random_ID,key_resp_6.keys,key_resp_6.rt,Gender.keys,Gender.rt,key_resp.keys,key_resp.corr,key_resp.rt,key_resp_2.keys,trials.thisRepN,trials.thisTrialN,trials.thisN,trials.thisIndex,trials.ran,FILE_CMP_IMAGE,FILE_SEARCH_IMAGE,TARGET,TARGET_NAME,TARGET_MEM,D1,D2,D3,D4,D5,D6,D7,D8,CONTEXT,VISUAL_SET_SIZE,MEM_SET_SIZE,stDur_Mem,stDur_VS,corrAns,participant,age,date,expName,psychopyVersion,OS,frameRate,key_resp_end.keys,key_resp_end.rt
7323,y,4.07435,w,4.400335,m,1,1.85201,,0,0,0,99,1,cmp_mountain_025_cow_005,S8_mountain_025_cow_005.jpg,1,cow396.png,cow396.png,cow241.png,cow340.png,cow343.png,blank.png,blank.png,blank.png,blank.png,blank.png,1,8,4,4,7,m,00000,20,2021-02-15_14h23.44.377,vismem_search_builder_pavlovia2,2020.1.2,Win32,60,,
,,,,,m,1,3.05401,,0,1,1,45,1,cmp_africansavanna_001_wildanimals_001,S4_africansavanna_001_wildanimals_001.jpg,1,bear384.png,bear384.png,elephant316.png,giraffe5.png,zebra221.png,blank.png,blank.png,blank.png,blank.png,blank.png,1,4,4,4,7,m,00000,20,2021-02-15_14h23.44.377,vismem_search_builder_pavlovia2,2020.1.2,Win32,60,,
,,,,,m,1,0.95271,,0,2,2,34,1,cmp_building_001_dog_001,S4_building_001_dog_001.jpg,1,stm_builging_001_dog_001_010.png,stm_builging_001_dog_001_010.png,stm_builging_001_dog_001_006.png,stm_builging_001_dog_001_012.png,stm_builging_001_dog_001_015.png,blank.png,blank.png,blank.png,blank.png,blank.png,0,4,4,4,7,m,00000,20,2021-02-15_14h23.44.377,vismem_search_builder_pavlovia2,2020.1.2,Win32,60,,
,,,,,m,1,0.644125,,0,3,3,71,1,cmp_building_019_cat_006,S4_building_019_cat_006.jpg,1,cat997.png,cat997.png,blank.png,blank.png,blank.png,blank.png,blank.png,blank.png,blank.png,blank.png,0,4,1,1,7,m,00000,20,2021-02-15_14h23.44.377,vismem_search_builder_pavlovia2,2020.1.2,Win32,60,,
,,,,,v,1,3.35645,,0,4,4,42,1,cmp_building_045_dog_013,S4_building_045_dog_013.jpg,0,blank.png,blank.png,dog1760.png,dog1810.png,dog1887.png,dog1907.png,blank.png,blank.png,blank.png,blank.png,0,4,4,4,7,v,00000,20,2021-02-15_14h23.44.377,vismem_search_builder_pavlovia2,2020.1.2,Win32,60,,
,,,,,v,1,2.789345,,0,5,5,106,1,cmp_mountain_018_sheep_006,S8_mountain_018_sheep_006.jpg,0,blank.png,blank.png,sheep1610.png,sheep1647.png,sheep1786.png,sheep1673.png,blank.png,blank.png,blank.png,blank.png,1,8,4,4,7,v,00000,20,2021-02-15_14h23.44.377,vismem_search_builder_pavlovia2,2020.1.2,Win32,60,,
,,,,,v,1,3.165005,,0,6,6,92,1,cmp_building_024_person_010,S4_building_024_person_010.jpg,0,blank.png,blank.png,person1015.png,person1089.png,blank.png,blank.png,blank.png,blank.png,blank.png,blank.png,0,4,2,2,7,v,00000,20,2021-02-15_14h23.44.377,vismem_search_builder_pavlovia2,2020.1.2,Win32,60,,
,,,,,m,1,0.678355,,0,7,7,4,1,cmp_building_050_bird_006,S1_building_050_bird_006.jpg,1,bird709.png,bird709.png,bird680.png,bird1112.png,bird455.png,blank.png,blank.png,blank.png,blank.png,blank.png,0,1,4,4,7,m,00000,20,2021-02-15_14h23.44.377,vismem_search_builder_pavlovia2,2020.1.2,Win32,60,,
,,,,,m,1,0.933695,,0,8,8,35,1,cmp_building_021_cat_008,S4_building_021_cat_008.jpg,1,cat1953.png,cat1953.png,cat1966.png,cat1835.png,cat1921.png,blank.png,blank.png,blank.png,blank.png,blank.png,0,4,4,4,7,m,00000,20,2021-02-15_14h23.44.377,vismem_search_builder_pavlovia2,2020.1.2,Win32,60,,
,,,,,v,1,2.99768,,0,9,9,91,1,cmp_building_017_cat_004,S4_building_017_cat_004.jpg,0,blank.png,blank.png,cat800.png,cat830.png,blank.png,blank.png,blank.png,blank.png,blank.png,blank.png,1,4,2,2,7,v,00000,20,2021-02-15_14h23.44.377,vismem_search_builder_pavlovia2,2020.1.2,Win32,60,,
,,,,,m,0,2.567155,,0,10,10,52,1,cmp_building_022_cat_009,S4_building_022_cat_009.jpg,0,blank.png,blank.png,cat1624.png,cat1707.png,cat1761.png,cat1792.png,cat1636.png,cat1650.png,cat1793.png,cat1757.png,0,4,8,8,7,v,00000,20,2021-02-15_14h23.44.377,vismem_search_builder_pavlovia2,2020.1.2,Win32,60,,
,,,,,m,1,0.6903,,0,11,11,85,1,cmp_building_030_person_016,S4_building_030_person_016.jpg,1,person1923.png,person1923.png,person1925.png,blank.png,blank.png,blank.png,blank.png,blank.png,blank.png,blank.png,0,4,2,2,7,m,00000,20,2021-02-15_14h23.44.377,vismem_search_builder_pavlovia2,2020.1.2,Win32,60,,
,,,,,m,1,0.894865,,0,12,12,80,1,cmp_shelves_029_book_002,S4_shelves_029_book_002.jpg,1,book874.png,book874.png,book1249.png,blank.png,blank.png,blank.png,blank.png,blank.png,blank.png,blank.png,1,4,2,2,7,m,00000,20,2021-02-15_14h23.44.377,vismem_search_builder_pavlovia2,2020.1.2,Win32,60,,
,,,,,v,0,3.672125,,0,13,13,46,1,cmp_jungle_001_bird_001.jpg,S4_jungle_001_bird_001.jpg,1,stm_jungle_001_bird_001_007.png,stm_jungle_001_bird_001_007.png,stm_jungle_001_bird_001_010.png,stm_jungle_001_bird_001_015.png,stm_jungle_001_bird_001_005.png,blank.png,blank.png,blank.png,blank.png,blank.png,1,4,4,4,7,m,00000,20,2021-02-15_14h23.44.377,vismem_search_builder_pavlovia2,2020.1.2,Win32,60,,
,,,,,m,1,0.833445,,0,14,14,64,1,cmp_stadium_001_person_001,S4_stadium_001_person_001.jpg,1,stadium_001_person_010.png,stadium_001_person_010.png,blank.png,blank.png,blank.png,blank.png,blank.png,blank.png,blank.png,blank.png,1,4,1,1,7,m,00000,20,2021-02-15_14h23.44.377,vismem_search_builder_pavlovia2,2020.1.2,Win32,60,,
,,,,,v,1,1.48441,,0,15,15,37,1,cmp_shelves_037_book_010,S4_shelves_037_book_010.jpg,0,blank.png,blank.png,book817.png,book1001.png,book344.png,book319.png,blank.png,blank.png,blank.png,blank.png,1,4,4,4,7,v,00000,20,2021-02-15_14h23.44.377,vismem_search_builder_pavlovia2,2020.1.2,Win32,60,,
,,,,,m,1,1.47069,,0,16,16,17,1,cmp_jungle_003_bird_003,S2_jungle_003_bird_003.jpg,1,stm_jugle_003_birds_003_001.png,stm_jugle_003_birds_003_001.png,stm_jugle_003_birds_003_009.png,stm_jugle_003_birds_003_011.png,stm_jugle_003_birds_003_013.png,blank.png,blank.png,blank.png,blank.png,blank.png,1,2,4,4,7,m,00000,20,2021-02-15_14h23.44.377,vismem_search_builder_pavlovia2,2020.1.2,Win32,60,,
,,,,,m,1,0.84794,,0,17,17,44,1,cmp_shelves_001_pottedplant001,S4_shelves_001_pottedplant_001.jpg,1,stm_shelves_001_pottedplant_001_002.png,stm_shelves_001_pottedplant_001_002.png,stm_shelves_001_pottedplant_001_009.png,stm_shelves_001_pottedplant_001_014.png,stm_shelves_001_pottedplant_001_016.png,blank.png,blank.png,blank.png,blank.png,blank.png,1,4,4,4,7,m,00000,20,2021-02-15_14h23.44.377,vismem_search_builder_pavlovia2,2020.1.2,Win32,60,,
,,,,,m,1,0.61845,,0,18,18,68,1,cmp_building_010_cat_002,S4_building_010_cat_002.jpg,1,cat105.png,cat105.png,blank.png,blank.png,blank.png,blank.png,blank.png,blank.png,blank.png,blank.png,0,4,1,1,7,m,00000,20,2021-02-15_14h23.44.377,vismem_search_builder_pavlovia2,2020.1.2,Win32,60,,
,,,,,v,0,2.615245,,0,19,19,98,1,cmp_building_035_dog_003,S8_building_035_dog_003.jpg,1,dog587.png,dog587.png,dog455.png,dog499.png,dog557.png,blank.png,blank.png,blank.png,blank.png,blank.png,1,8,4,4,7,m,00000,20,2021-02-15_14h23.44.377,vismem_search_builder_pavlovia2,2020.1.2,Win32,60,,
,,,,,m,0,3.553225,,0,20,20,22,1,cmp_shelves_002_fruits_001,S2_shelves_002_fruits_001.jpg,0,blank.png,blank.png,stm_shelves_001_fruits_001_012.png,stm_shelves_001_fruits_001_010.png,stm_shelves_001_fruits_001_009.png,stm_shelves_001_fruits_001_013.png,blank.png,blank.png,blank.png,blank.png,1,2,4,4,7,v,00000,20,2021-02-15_14h23.44.377,vismem_search_builder_pavlovia2,2020.1.2,Win32,60,,
,,,,,m,1,1.912065,,0,21,21,3,1,cmp_building_044_dog_012,S1_building_044_dog_012.jpg,1,dog1544.png,dog1544.png,dog1543.png,dog1592.png,dog1560.png,blank.png,blank.png,blank.png,blank.png,blank.png,1,1,4,4,7,m,00000,20,2021-02-15_14h23.44.377,vismem_search_builder_pavlovia2,2020.1.2,Win32,60,,
,,,,,v,1,2.693435,,0,22,22,20,1,cmp_jungle_004_bird_004,S2_jungle_004_bird_004.jpg,0,blank.png,blank.png,bird224.png,bird133.png,bird244.png,bird131.png,blank.png,blank.png,blank.png,blank.png,1,2,4,4,7,v,00000,20,2021-02-15_14h23.44.377,vismem_search_builder_pavlovia2,2020.1.2,Win32,60,,
,,,,,m,0,1.92597,,0,23,23,54,1,cmp_shelves_036_book_009,S4_shelves_036_book_009.jpg,0,blank.png,blank.png,book670.png,book778.png,book672.png,book674.png,book694.png,book660.png,book656.png,book688.png,0,4,8,8,7,v,00000,20,2021-02-15_14h23.44.377,vismem_search_builder_pavlovia2,2020.1.2,Win32,60,,
,,,,,v,0,3.50323,,0,24,24,57,1,cmp_shelves_018_remote_002,S4_shelves_018_remote_002.jpg,1,remote63.png,remote63.png,remote23.png,remote38.png,remote48.png,remote65.png,remote71.png,remote82.png,remote19.png,blank.png,1,4,8,8,7,m,00000,20,2021-02-15_14h23.44.377,vismem_search_builder_pavlovia2,2020.1.2,Win32,60,,
,,,,,v,1,2.55955,,0,25,25,53,1,cmp_building_046_sheep_001,S4_building_046_sheep_001.jpg,0,blank.png,blank.png,sheep1453.png,sheep1556.png,sheep224.png,sheep1458.png,sheep1754.png,sheep1748.png,sheep1843.png,sheep238.png,0,4,8,8,7,v,00000,20,2021-02-15_14h23.44.377,vismem_search_builder_pavlovia2,2020.1.2,Win32,60,,
,,,,,m,0,4.458285,,0,26,26,107,1,cmp_shelves_020_remote_004,S8_shelves_020_remote_004.jpg,0,blank.png,blank.png,remote258.png,remote260.png,remote361.png,remote269.png,blank.png,blank.png,blank.png,blank.png,1,8,4,4,7,v,00000,20,2021-02-15_14h23.44.377,vismem_search_builder_pavlovia2,2020.1.2,Win32,60,,
,,,,,m,1,2.393705,,0,27,27,100,1,cmp_shelves_016_cup_001,S8_shelves_016_cup_001.jpg,1,cup406.png,cup406.png,cup356.png,cup636.png,cup677.png,blank.png,blank.png,blank.png,blank.png,blank.png,0,8,4,4,7,m,00000,20,2021-02-15_14h23.44.377,vismem_search_builder_pavlovia2,2020.1.2,Win32,60,,
,,,,,v,1,2.85401,,0,28,28,49,1,cmp_mountain_021_sheep_009,S4_mountain_021_sheep_009.jpg,0,blank.png,blank.png,sheep760.png,sheep655.png,sheep710.png,sheep654.png,sheep618.png,sheep761.png,sheep719.png,sheep739.png,1,4,8,8,7,v,00000,20,2021-02-15_14h23.44.377,vismem_search_builder_pavlovia2,2020.1.2,Win32,60,,
,,,,,v,1,2.1146,,0,29,29,9,1,cmp_building_026_person_012,S1_building_026_person_012.jpg,0,blank.png,blank.png,person150.png,person390.png,person137.png,person140.png,blank.png,blank.png,blank.png,blank.png,1,1,4,4,7,v,00000,20,2021-02-15_14h23.44.377,vismem_search_builder_pavlovia2,2020.1.2,Win32,60,,
,,,,,v,1,1.628685,,0,30,30,51,1,cmp_shelves_023_teddybear_004,S4_shelves_023_teddybear_004.jpg,0,blank.png,blank.png,teddy bear487.png,teddy bear517.png,teddy bear521.png,teddy bear555.png,teddy bear637.png,teddy bear762.png,teddy bear725.png,teddy bear755.png,1,4,8,8,7,v,00000,20,2021-02-15_14h23.44.377,vismem_search_builder_pavlovia2,2020.1.2,Win32,60,,
,,,,,,0,,,0,31,31,78,1,cmp_building_011_cat_003,S4_building_011_cat_003.jpg,0,blank.png,blank.png,cat167.png,blank.png,blank.png,blank.png,blank.png,blank.png,blank.png,blank.png,0,4,1,1,7,v,00000,20,2021-02-15_14h23.44.377,vismem_search_builder_pavlovia2,2020.1.2,Win32,60,,
,,,,,m,0,1.854575,,0,32,32,30,1,cmp_mountain_010_sheep_002,S2_mountain_010_sheep_002.jpg,0,blank.png,blank.png,sheep1280.png,sheep1344.png,sheep1652.png,sheep1275.png,blank.png,blank.png,blank.png,blank.png,0,2,4,4,7,v,00000,20,2021-02-15_14h23.44.377,vismem_search_builder_pavlovia2,2020.1.2,Win32,60,,
,,,,,m,0,2.72305,,0,33,33,40,1,cmp_mountain_003_cow_001,S4_mountain_003_cow_001.jpg,0,blank.png,blank.png,cow77.png,cow241.png,cow192.png,cow256.png,blank.png,blank.png,blank.png,blank.png,0,4,4,4,7,v,00000,20,2021-02-15_14h23.44.377,vismem_search_builder_pavlovia2,2020.1.2,Win32,60,,
,,,,,v,1,2.66896,,0,34,34,38,1,cmp_building_047_bird_003,S4_building_047_bird_003.jpg,0,bird370.png,blank.png,bird417.png,bird489.png,bird389.png,bird358.png,blank.png,blank.png,blank.png,blank.png,1,4,4,4,7,v,00000,20,2021-02-15_14h23.44.377,vismem_search_builder_pavlovia2,2020.1.2,Win32,60,,
,,,,,m,1,2.680785,,0,35,35,47,1,cmp_field_001_farmanimals_001,S4_field_001_farmanimals_001.jpg,1,horse34.png,horse34.png,horse90.png,sheep288.png,cow143.png,blank.png,blank.png,blank.png,blank.png,blank.png,1,4,4,4,7,m,00000,20,2021-02-15_14h23.44.377,vismem_search_builder_pavlovia2,2020.1.2,Win32,60,,
,,,,,v,1,2.1977,,0,36,36,111,1,cmp_shelves_009_teddybear_002,S8_shelves_009_teddybear_002.jpg,0,blank.png,blank.png,teddy bear107.png,teddy bear123.png,teddy bear226.png,teddy bear241.png,blank.png,blank.png,blank.png,blank.png,0,8,4,4,7,v,00000,20,2021-02-15_14h23.44.377,vismem_search_builder_pavlovia2,2020.1.2,Win32,60,,
,,,,,v,0,2.043585,,0,37,37,87,1,cmp_mountain_026_horse_001,S4_mountain_026_horse_001.jpg,1,horse815.png,horse815.png,horse1010.png,blank.png,blank.png,blank.png,blank.png,blank.png,blank.png,blank.png,0,4,2,2,7,m,00000,20,2021-02-15_14h23.44.377,vismem_search_builder_pavlovia2,2020.1.2,Win32,60,,
,,,,,m,0,1.41772,,0,38,38,23,1,cmp_mountain_009_horse _001,S2_mountain_009_horse _001.jpg,0,blank.png,blank.png,horse1643.png,horse1105.png,horse1725.png,horse1447.png,blank.png,blank.png,blank.png,blank.png,1,2,4,4,7,v,00000,20,2021-02-15_14h23.44.377,vismem_search_builder_pavlovia2,2020.1.2,Win32,60,,
,,,,,m,1,1.459305,,0,39,39,81,1,cmp_shelves_053_toys_012,S4_shelves_053_toys_012.jpg,1,motorcycle509.png,motorcycle509.png,airplane136.png,blank.png,blank.png,blank.png,blank.png,blank.png,blank.png,blank.png,1,4,2,2,7,m,00000,20,2021-02-15_14h23.44.377,vismem_search_builder_pavlovia2,2020.1.2,Win32,60,,
,,,,,m,1,1.11874,,0,40,40,66,1,cmp_shelves_052_toys_011,S4_shelves_052_toys_011.jpg,1,bus112.png,bus112.png,blank.png,blank.png,blank.png,blank.png,blank.png,blank.png,blank.png,blank.png,1,4,1,1,7,m,00000,20,2021-02-15_14h23.44.377,vismem_search_builder_pavlovia2,2020.1.2,Win32,60,,
,,,,,m,1,1.1811,,0,41,41,56,1,cmp_shelves_027_vase_003,S4_shelves_027_vase_003.jpg,1,vase549.png,vase549.png,vase127.png,vase136.png,vase162.png,vase330.png,vase602.png,vase640.png,vase654.png,blank.png,1,4,8,8,7,m,00000,20,2021-02-15_14h23.44.377,vismem_search_builder_pavlovia2,2020.1.2,Win32,60,,
,,,,,,0,,,0,42,42,110,1,cmp_mountain_016_sheep_004,S8_mountain_016_sheep_004.jpg,0,blank.png,blank.png,sheep1420.png,sheep1560.png,sheep1768.png,sheep1774.png,blank.png,blank.png,blank.png,blank.png,0,8,4,4,7,v,00000,20,2021-02-15_14h23.44.377,vismem_search_builder_pavlovia2,2020.1.2,Win32,60,,
,,,,,m,0,1.255535,,0,43,43,12,1,cmp_mountain_022_sheep_010,S1_mountain_022_sheep_010.jpg,0,blank.png,blank.png,sheep920.png,sheep1036.png,sheep1087.png,sheep909.png,blank.png,blank.png,blank.png,blank.png,0,1,4,4,7,v,00000,20,2021-02-15_14h23.44.377,vismem_search_builder_pavlovia2,2020.1.2,Win32,60,,
,,,,,m,1,0.796385,,0,44,44,86,1,cmp_shelves_051_toys_010,S4_shelves_051_toys_010.jpg,1,truck262.png,truck262.png,truck167.png,blank.png,blank.png,blank.png,blank.png,blank.png,blank.png,blank.png,0,4,2,2,7,m,00000,20,2021-02-15_14h23.44.377,vismem_search_builder_pavlovia2,2020.1.2,Win32,60,,
,,,,,v,0,3.08211,,0,45,45,1,1,cmp_building_028_person_014,S1_building_028_person_014.jpg,1,person1293.png,person1293.png,person1501.png,person1447.png,person1485.png,blank.png,blank.png,blank.png,blank.png,blank.png,1,1,4,4,7,m,00000,20,2021-02-15_14h23.44.377,vismem_search_builder_pavlovia2,2020.1.2,Win32,60,,
,,,,,v,1,1.15132,,0,46,46,76,1,cmp_shelves_042_toys_001,S4_shelves_042_toys_001.jpg,0,blank.png,blank.png,bus30.png,blank.png,blank.png,blank.png,blank.png,blank.png,blank.png,blank.png,0,4,1,1,7,v,00000,20,2021-02-15_14h23.44.377,vismem_search_builder_pavlovia2,2020.1.2,Win32,60,,
,,,,,m,1,2.157215,,0,47,47,58,1,cmp_jungle_007_bird_007,S4_jungle_007_bird_007.jpg,1,bird207.png,bird207.png,bird195.png,bird232.png,bird242.png,bird246.png,bird278.png,bird294.png,bird310.png,blank.png,1,4,8,8,7,m,00000,20,2021-02-15_14h23.44.377,vismem_search_builder_pavlovia2,2020.1.2,Win32,60,,
,,,,,m,0,2.826915,,0,48,48,36,1,cmp_field_001_farmanimals_007,S4_field_001_farmanimals_007.jpg,0,blank.png,blank.png,cow375.png,cow361.png,horse620.png,sheep317.png,blank.png,blank.png,blank.png,blank.png,1,4,4,4,7,v,00000,20,2021-02-15_14h23.44.377,vismem_search_builder_pavlovia2,2020.1.2,Win32,60,,
,,,,,v,0,3.88627,,0,49,49,16,1,cmp_building_002_cat_001,S2_building_002_cat_001.jpg,1,stm_building_002_cat_001_012.png,stm_building_002_cat_001_012.png,stm_building_002_cat_001_005.png,stm_building_002_cat_001_007.png,stm_building_002_cat_001_003.png,blank.png,blank.png,blank.png,blank.png,blank.png,1,2,4,4,7,m,00000,20,2021-02-15_14h23.44.377,vismem_search_builder_pavlovia2,2020.1.2,Win32,60,,
,,,,,m,1,1.78459,,0,50,50,83,1,cmp_field_006_farmanimals_006,S4_field_006_farmanimals_006.jpg,1,sheep386.png,sheep386.png,cow128.png,blank.png,blank.png,blank.png,blank.png,blank.png,blank.png,blank.png,1,4,2,2,7,m,00000,20,2021-02-15_14h23.44.377,vismem_search_builder_pavlovia2,2020.1.2,Win32,60,,
,,,,,m,0,0.96232,,0,51,51,55,1,cmp_shelves_050_toys_009,S4_shelves_050_toys_009.jpg,0,blank.png,blank.png,airplane359.png,bus23.png,bus17.png,airplane364.png,airplane413.png,motorcycle306.png,airplane379.png,motorcycle660.png,0,4,8,8,7,v,00000,20,2021-02-15_14h23.44.377,vismem_search_builder_pavlovia2,2020.1.2,Win32,60,,
,,,,,v,0,4.94747,,0,52,52,62,1,cmp_shelves_047_toys_006,S4_shelves_047_toys_006.jpg,1,bus328.png,bus328.png,bus558.png,car108.png,car112.png,car82.png,motorcycle779.png,airplane17.png,airplane4.png,blank.png,0,4,8,8,7,m,00000,20,2021-02-15_14h23.44.377,vismem_search_builder_pavlovia2,2020.1.2,Win32,60,,
,,,,,m,1,1.967575,,0,53,53,19,1,cmp_building_004_sheep_001,S2_building_004_sheep_001.jpg,1,stm_building_004_sheep_001_009.png,stm_building_004_sheep_001_009.png,stm_building_004_sheep_001_014.png,stm_building_004_sheep_001_015.png,stm_building_004_sheep_001_010.png,blank.png,blank.png,blank.png,blank.png,blank.png,1,2,4,4,7,m,00000,20,2021-02-15_14h23.44.377,vismem_search_builder_pavlovia2,2020.1.2,Win32,60,,
,,,,,m,1,0.757355,,0,54,54,24,1,cmp_mountain_006_bear_002,S2_mountain_006_bear_002.jpg,1,bear688.png,bear688.png,bear4.png,bear71.png,bear72.png,blank.png,blank.png,blank.png,blank.png,blank.png,0,2,4,4,7,m,00000,20,2021-02-15_14h23.44.377,vismem_search_builder_pavlovia2,2020.1.2,Win32,60,,
,,,,,v,1,2.029615,,0,55,55,90,1,cmp_building_032_cat_011,S4_building_032_cat_011.jpg,0,blank.png,blank.png,cat206.png,cat219.png,blank.png,blank.png,blank.png,blank.png,blank.png,blank.png,1,4,2,2,7,v,00000,20,2021-02-15_14h23.44.377,vismem_search_builder_pavlovia2,2020.1.2,Win32,60,,
,,,,,m,1,1.369235,,0,56,56,102,1,cmp_building_003_person_001,S8_building_003_person_001.jpg,1,stm_building_003_person_001_005.png,stm_building_003_person_001_005.png,stm_building_003_person_001_013.png,stm_building_003_person_001_020.png,stm_building_003_person_001_014.png,blank.png,blank.png,blank.png,blank.png,blank.png,0,8,4,4,7,m,00000,20,2021-02-15_14h23.44.377,vismem_search_builder_pavlovia2,2020.1.2,Win32,60,,
,,,,,m,0,2.00464,,0,57,57,48,1,cmp_shelves_030_book_003,S4_shelves_030_book_003.jpg,0,blank.png,blank.png,book106.png,book150.png,book237.png,book549.png,book9.png,book417.png,book51.png,book396.png,1,4,8,8,7,v,00000,20,2021-02-15_14h23.44.377,vismem_search_builder_pavlovia2,2020.1.2,Win32,60,,
,,,,,m,1,0.87577,,0,58,58,6,1,cmp_building_043_dog_011,S1_building_043_dog_011.jpg,1,dog1389.png,dog1389.png,dog1385.png,dog1267.png,dog1402.png,blank.png,blank.png,blank.png,blank.png,blank.png,0,1,4,4,7,m,00000,20,2021-02-15_14h23.44.377,vismem_search_builder_pavlovia2,2020.1.2,Win32,60,,
,,,,,v,1,0.940615,,0,59,59,13,1,cmp_shelves_046_toys_005,S1_shelves_046_toys_005.jpg,0,blank.png,blank.png,bus321.png,airplane351.png,airplane381.png,bus323.png,blank.png,blank.png,blank.png,blank.png,0,1,4,4,7,v,00000,20,2021-02-15_14h23.44.377,vismem_search_builder_pavlovia2,2020.1.2,Win32,60,,
,,,,,m,1,1.54631,,0,60,60,60,1,cmp_building_031_person_017,S4_building_031_person_017.jpg,1,person771.png,person771.png,person1039.png,person34.png,person512.png,person513.png,person58.png,person596.png,person842.png,blank.png,0,4,8,8,7,m,00000,20,2021-02-15_14h23.44.377,vismem_search_builder_pavlovia2,2020.1.2,Win32,60,,
,,,,,m,1,1.97551,,0,61,61,29,1,cmp_mountain_005_farmanimals_001,S2_mountain_005_farmanimals_001.jpg,1,sheep564.png,sheep564.png,cow367.png,horse126.png,cow325.png,blank.png,blank.png,blank.png,blank.png,blank.png,0,2,4,4,7,m,00000,20,2021-02-15_14h23.44.377,vismem_search_builder_pavlovia2,2020.1.2,Win32,60,,
,,,,,v,1,1.24838,,0,62,62,14,1,cmp_shelves_035_book_008,S1_shelves_035_book_008.jpg,0,blank.png,blank.png,book271.png,book113.png,book484.png,book429.png,blank.png,blank.png,blank.png,blank.png,0,1,4,4,7,v,00000,20,2021-02-15_14h23.44.377,vismem_search_builder_pavlovia2,2020.1.2,Win32,60,,
,,,,,v,0,2.86381,,0,63,63,82,1,cmp_building_049_bird_005,S4_building_049_bird_005.jpg,1,bird1082.png,bird1082.png,bird1040.png,blank.png,blank.png,blank.png,blank.png,blank.png,blank.png,blank.png,1,4,2,2,7,m,00000,20,2021-02-15_14h23.44.377,vismem_search_builder_pavlovia2,2020.1.2,Win32,60,,
,,,,,v,1,2.639945,,0,64,64,28,1,cmp_field_002_farmanimals_002,S2_field_002_farmanimals_002.jpg,0,blank.png,blank.png,cow120.png,cow65.png,horse126.png,cow325.png,blank.png,blank.png,blank.png,blank.png,0,2,4,4,7,v,00000,20,2021-02-15_14h23.44.377,vismem_search_builder_pavlovia2,2020.1.2,Win32,60,,
,,,,,m,1,2.707795,,0,65,65,2,1,cmp_building_018_cat_005,S1_building_018_cat_005.jpg,1,cat1440.png,cat1440.png,cat1534.png,cat1396.png,cat1452.png,blank.png,blank.png,blank.png,blank.png,blank.png,1,1,4,4,7,m,00000,20,2021-02-15_14h23.44.377,vismem_search_builder_pavlovia2,2020.1.2,Win32,60,,
,,,,,m,1,0.72852,,0,66,66,69,1,cmp_sky_003_kite_003,S4_sky_003_kite_003.jpg,1,kite624.png,kite624.png,blank.png,blank.png,blank.png,blank.png,blank.png,blank.png,blank.png,blank.png,0,4,1,1,7,m,00000,20,2021-02-15_14h23.44.377,vismem_search_builder_pavlovia2,2020.1.2,Win32,60,,
,,,,,v,1,1.691505,,0,67,67,94,1,cmp_mountain_014_bird_002,S4_mountain_014_bird_002.jpg,0,blank.png,blank.png,bird27.png,bird456.png,blank.png,blank.png,blank.png,blank.png,blank.png,blank.png,0,4,2,2,7,v,00000,20,2021-02-15_14h23.44.377,vismem_search_builder_pavlovia2,2020.1.2,Win32,60,,
,,,,,m,1,1.08648,,0,68,68,0,1,cmp_shelves_044_toys_003,S1_shelves_044_toys_003.jpg,1,motorcycle341.png,motorcycle341.png,truck96.png,truck83.png,airplane19.png,blank.png,blank.png,blank.png,blank.png,blank.png,1,1,4,4,7,m,00000,20,2021-02-15_14h23.44.377,vismem_search_builder_pavlovia2,2020.1.2,Win32,60,,
,,,,,m,1,2.46924,,0,69,69,18,1,cmp_building_052_bird_008,S2_building_052_bird_008.jpg,1,bird936.png,bird936.png,bird927.png,bird935.png,bird938.png,blank.png,blank.png,blank.png,blank.png,blank.png,1,2,4,4,7,m,00000,20,2021-02-15_14h23.44.377,vismem_search_builder_pavlovia2,2020.1.2,Win32,60,,
,,,,,v,1,1.3223,,0,70,70,93,1,cmp_building_025_person_011,S4_building_025_person_011.jpg,0,blank.png,blank.png,person1266.png,person1352.png,blank.png,blank.png,blank.png,blank.png,blank.png,blank.png,0,4,2,2,7,v,00000,20,2021-02-15_14h23.44.377,vismem_search_builder_pavlovia2,2020.1.2,Win32,60,,
,,,,,v,0,4.23995,,0,71,71,59,1,cmp_field_004_farmanimals_004,S4_field_004_farmanimals_004.jpg,1,horse205.png,horse205.png,horse7.png,sheep103.png,sheep106.png,cow69.png,cow232.png,cow15.png,sheep3.png,blank.png,1,4,8,8,7,m,00000,20,2021-02-15_14h23.44.377,vismem_search_builder_pavlovia2,2020.1.2,Win32,60,,
,,,,,m,0,2.403045,,0,72,72,39,1,cmp_mountain_017_sheep_005,S4_mountain_017_sheep_005.jpg,0,blank.png,blank.png,sheep1498.png,sheep1552.png,sheep1422.png,sheep1597.png,blank.png,blank.png,blank.png,blank.png,1,4,4,4,7,v,00000,20,2021-02-15_14h23.44.377,vismem_search_builder_pavlovia2,2020.1.2,Win32,60,,
,,,,,m,1,3.72667,,0,73,73,63,1,cmp_building_041_dog_009,S4_building_041_dog_009.jpg,1,dog583.png,dog583.png,dog301.png,dog446.png,dog447.png,dog461.png,dog475.png,dog541.png,dog562.png,blank.png,0,4,8,8,7,m,00000,20,2021-02-15_14h23.44.377,vismem_search_builder_pavlovia2,2020.1.2,Win32,60,,
,,,,,v,1,2.790345,,0,74,74,89,1,cmp_building_015_person_008,S4_building_015_person_008.jpg,0,blank.png,blank.png,person100.png,person108.png,blank.png,blank.png,blank.png,blank.png,blank.png,blank.png,1,4,2,2,7,v,00000,20,2021-02-15_14h23.44.377,vismem_search_builder_pavlovia2,2020.1.2,Win32,60,,
,,,,,m,1,1.14112,,0,75,75,67,1,cmp_field_008_farmanimals_008,S4_field_008_farmanimals_008.jpg,1,sheep913.png,sheep913.png,blank.png,blank.png,blank.png,blank.png,blank.png,blank.png,blank.png,blank.png,1,4,1,1,7,m,00000,20,2021-02-15_14h23.44.377,vismem_search_builder_pavlovia2,2020.1.2,Win32,60,,
,,,,,m,1,0.795035,,0,76,76,70,1,cmp_shelves_049_toys_008,S4_shelves_049_toys_008.jpg,1,truck627.png,truck627.png,blank.png,blank.png,blank.png,blank.png,blank.png,blank.png,blank.png,blank.png,0,4,1,1,7,m,00000,20,2021-02-15_14h23.44.377,vismem_search_builder_pavlovia2,2020.1.2,Win32,60,,
,,,,,v,1,2.52171,,0,77,77,50,1,cmp_shelves_038_book_011,S4_shelves_038_book_011.jpg,0,blank.png,blank.png,book546.png,book620.png,book1262.png,book634.png,book633.png,book1096.png,book1261.png,book1265.png,1,4,8,8,7,v,00000,20,2021-02-15_14h23.44.377,vismem_search_builder_pavlovia2,2020.1.2,Win32,60,,
,,,,,m,1,0.845785,,0,78,78,61,1,cmp_building_042_dog_010,S4_building_042_dog_010.jpg,1,dog495.png,dog495.png,dog1126.png,dog1176.png,dog508.png,dog518.png,dog780.png,dog872.png,dog948.png,blank.png,0,4,8,8,7,m,00000,20,2021-02-15_14h23.44.377,vismem_search_builder_pavlovia2,2020.1.2,Win32,60,,
,,,,,v,1,1.47266,,0,79,79,74,1,cmp_shelves_033_book_006,S4_shelves_033_book_006.jpg,0,blank.png,blank.png,book119.png,blank.png,blank.png,blank.png,blank.png,blank.png,blank.png,blank.png,1,4,1,1,7,v,00000,20,2021-02-15_14h23.44.377,vismem_search_builder_pavlovia2,2020.1.2,Win32,60,,
,,,,,v,1,3.009505,,0,80,80,21,1,cmp_mountain_001_bear_001,S2_mountain_001_bear_001.jpg,0,blank.png,blank.png,stm_mountain_001_bear_001_003.png,stm_mountain_001_bear_001_013.png,stm_mountain_001_bear_001_010.png,stm_mountain_001_bear_001_005.png,blank.png,blank.png,blank.png,blank.png,1,2,4,4,7,v,00000,20,2021-02-15_14h23.44.377,vismem_search_builder_pavlovia2,2020.1.2,Win32,60,,
,,,,,m,1,4.009035,,0,81,81,96,1,cmp_building_005_person_002,S8_building_005_person_002.jpg,1,person546.png,person546.png,person248.png,person303.png,person367.png,blank.png,blank.png,blank.png,blank.png,blank.png,1,8,4,4,7,m,00000,20,2021-02-15_14h23.44.377,vismem_search_builder_pavlovia2,2020.1.2,Win32,60,,
,,,,,v,1,2.366045,,0,82,82,88,1,cmp_building_014_person_007,S4_building_014_person_007.jpg,0,blank.png,blank.png,person120.png,person198.png,blank.png,blank.png,blank.png,blank.png,blank.png,blank.png,1,4,2,2,7,v,00000,20,2021-02-15_14h23.44.377,vismem_search_builder_pavlovia2,2020.1.2,Win32,60,,
,,,,,m,1,1.090075,,0,83,83,27,1,cmp_shelves_008_fruitvegetal_001,S2_shelves_008_fruitvegetal_001.jpg,1,carrot46.png,carrot46.png,broccoli85.png,apple473.png,orange138.png,blank.png,blank.png,blank.png,blank.png,blank.png,0,2,4,4,7,m,00000,20,2021-02-15_14h23.44.377,vismem_search_builder_pavlovia2,2020.1.2,Win32,60,,
,,,,,v,0,1.763035,,0,84,84,33,1,cmp_shelves_039_book_012,S4_shelves_039_book_012.jpg,1,book1310.png,book1310.png,book1064.png,book1213.png,book172.png,blank.png,blank.png,blank.png,blank.png,blank.png,0,4,4,4,7,m,00000,20,2021-02-15_14h23.44.377,vismem_search_builder_pavlovia2,2020.1.2,Win32,60,,
,,,,,v,0,3.416755,,0,85,85,65,1,cmp_sky_004_kite_004,S4_sky_004_kite_004.jpg,1,kite630.png,kite630.png,blank.png,blank.png,blank.png,blank.png,blank.png,blank.png,blank.png,blank.png,1,4,1,1,7,m,00000,20,2021-02-15_14h23.44.377,vismem_search_builder_pavlovia2,2020.1.2,Win32,60,,
,,,,,m,1,0.722885,,0,86,86,97,1,cmp_shelves_031_book_004,S8_shelves_031_book_004.jpg,1,book1164.png,book1164.png,book692.png,book935.png,book499.png,blank.png,blank.png,blank.png,blank.png,blank.png,1,8,4,4,7,m,00000,20,2021-02-15_14h23.44.377,vismem_search_builder_pavlovia2,2020.1.2,Win32,60,,
,,,,,v,1,1.73416,,0,87,87,72,1,cmp_building_006_person_003,S4_building_006_person_003.jpg,0,blank.png,blank.png,person311.png,blank.png,blank.png,blank.png,blank.png,blank.png,blank.png,blank.png,1,4,1,1,7,v,00000,20,2021-02-15_14h23.44.377,vismem_search_builder_pavlovia2,2020.1.2,Win32,60,,
,,,,,m,1,1.426975,,0,88,88,103,1,cmp_shelves_014_bottle_003,S8_shelves_014_bottle_003.jpg,1,bottle244.png,bottle244.png,bottle465.png,bottle409.png,bottle197.png,blank.png,blank.png,blank.png,blank.png,blank.png,0,8,4,4,7,m,00000,20,2021-02-15_14h23.44.377,vismem_search_builder_pavlovia2,2020.1.2,Win32,60,,
,,,,,m,1,1.229945,,0,89,89,26,1,cmp_mountain_011_bear_003,S2_mountain_011_bear_003.jpg,1,bear46.png,bear46.png,bear145.png,bear70.png,bear215.png,blank.png,blank.png,blank.png,blank.png,blank.png,0,2,4,4,7,m,00000,20,2021-02-15_14h23.44.377,vismem_search_builder_pavlovia2,2020.1.2,Win32,60,,
,,,,,v,1,1.664065,,0,90,90,75,1,cmp_jungle_011_bird_011,S4_jungle_011_bird_011.jpg,0,blank.png,blank.png,bird1369.png,blank.png,blank.png,blank.png,blank.png,blank.png,blank.png,blank.png,1,4,1,1,7,v,00000,20,2021-02-15_14h23.44.377,vismem_search_builder_pavlovia2,2020.1.2,Win32,60,,
,,,,,v,1,1.209155,,0,91,91,15,1,cmp_mountain_019_sheep_007,S1_mountain_019_sheep_007.jpg,0,blank.png,blank.png,sheep46.png,sheep53.png,sheep128.png,sheep20.png,blank.png,blank.png,blank.png,blank.png,0,1,4,4,7,v,00000,20,2021-02-15_14h23.44.377,vismem_search_builder_pavlovia2,2020.1.2,Win32,60,,
,,,,,m,0,3.61823,,0,92,92,105,1,cmp_shelves_021_remote_005,S8_shelves_021_remote_005.jpg,0,blank.png,blank.png,remote353.png,remote357.png,remote358.png,remote373.png,blank.png,blank.png,blank.png,blank.png,1,8,4,4,7,v,00000,20,2021-02-15_14h23.44.377,vismem_search_builder_pavlovia2,2020.1.2,Win32,60,,
,,,,,m,1,2.523525,,0,93,93,101,1,cmp_building_051_bird_007,S8_building_051_bird_007.jpg,1,bird596.png,bird596.png,bird663.png,bird540.png,bird661.png,blank.png,blank.png,blank.png,blank.png,blank.png,0,8,4,4,7,m,00000,20,2021-02-15_14h23.44.377,vismem_search_builder_pavlovia2,2020.1.2,Win32,60,,
,,,,,m,0,1.384855,,0,94,94,25,1,cmp_mountain_004_sheep_001,S2_mountain_004_sheep_001.jpg,0,blank.png,blank.png,sheep662.png,sheep796.png,sheep858.png,sheep875.png,blank.png,blank.png,blank.png,blank.png,0,2,4,4,7,v,00000,20,2021-02-15_14h23.44.377,vismem_search_builder_pavlovia2,2020.1.2,Win32,60,,
,,,,,v,1,1.12022,,0,95,95,79,1,cmp_shelves_048_toys_007,S4_shelves_048_toys_007.jpg,0,blank.png,blank.png,airplane180.png,blank.png,blank.png,blank.png,blank.png,blank.png,blank.png,blank.png,0,4,1,1,7,v,00000,20,2021-02-15_14h23.44.377,vismem_search_builder_pavlovia2,2020.1.2,Win32,60,,
,,,,,v,1,1.74961,,0,96,96,43,1,cmp_mountain_020_sheep_008,S4_mountain_020_sheep_008.jpg,0,blank.png,blank.png,sheep474.png,sheep356.png,sheep455.png,sheep483.png,blank.png,blank.png,blank.png,blank.png,0,4,4,4,7,v,00000,20,2021-02-15_14h23.44.377,vismem_search_builder_pavlovia2,2020.1.2,Win32,60,,
,,,,,v,1,3.680135,,0,97,97,73,1,cmp_jungle_009_bird_009,S4_jungle_009_bird_009.jpg,0,blank.png,blank.png,bird435.png,blank.png,blank.png,blank.png,blank.png,blank.png,blank.png,blank.png,1,4,1,1,7,v,00000,20,2021-02-15_14h23.44.377,vismem_search_builder_pavlovia2,2020.1.2,Win32,60,,
,,,,,m,1,0.942895,,0,98,98,5,1,cmp_building_033_cat_012,S1_building_033_cat_012.jpg,1,cat1997.png,cat1997.png,cat1953.png,cat1921.png,cat1927.png,blank.png,blank.png,blank.png,blank.png,blank.png,0,1,4,4,7,m,00000,20,2021-02-15_14h23.44.377,vismem_search_builder_pavlovia2,2020.1.2,Win32,60,,
,,,,,m,0,2.55431,,0,99,99,109,1,cmp_building_023_cat_010,S8_building_023_cat_010.jpg,0,blank.png,blank.png,cat1497.png,cat1551.png,cat1592.png,cat1671.png,blank.png,blank.png,blank.png,blank.png,0,8,4,4,7,v,00000,20,2021-02-15_14h23.44.377,vismem_search_builder_pavlovia2,2020.1.2,Win32,60,,
,,,,,v,1,2.709415,,0,100,100,108,1,cmp_africansavanna_002_wildanimals_002,S8_africansavanna_002_wildanimals_002.jpg,0,blank.png,blank.png,elephant231.png,elephant458.png,giraffe141.png,giraffe352.png,blank.png,blank.png,blank.png,blank.png,0,8,4,4,7,v,00000,20,2021-02-15_14h23.44.377,vismem_search_builder_pavlovia2,2020.1.2,Win32,60,,
,,,,,v,1,0.773055,,0,101,101,8,1,cmp_shelves_026_vase_002,S1_shelves_026_vase_002.jpg,0,blank.png,blank.png,vase179.png,vase975.png,vase1032.png,vase556.png,blank.png,blank.png,blank.png,blank.png,1,1,4,4,7,v,00000,20,2021-02-15_14h23.44.377,vismem_search_builder_pavlovia2,2020.1.2,Win32,60,,
,,,,,m,1,0.735285,,0,102,102,32,1,cmp_shelves_032_book_005,S4_shelves_032_book_005.jpg,1,book466.png,book466.png,book22.png,book23.png,book513.png,blank.png,blank.png,blank.png,blank.png,blank.png,0,4,4,4,7,m,00000,20,2021-02-15_14h23.44.377,vismem_search_builder_pavlovia2,2020.1.2,Win32,60,,
,,,,,v,1,2.82642,,0,103,103,41,1,cmp_africansavanna_003_wildanimals_003,S4_africansavanna_003_wildanimals_003.jpg,0,blank.png,blank.png,elephant449.png,giraffe169.png,zebra311.png,giraffe738.png,blank.png,blank.png,blank.png,blank.png,0,4,4,4,7,v,00000,20,2021-02-15_14h23.44.377,vismem_search_builder_pavlovia2,2020.1.2,Win32,60,,
,,,,,v,1,2.924835,,0,104,104,104,1,cmp_shelves_040_book_013,S8_shelves_040_book_013.jpg,0,blank.png,blank.png,book477.png,book786.png,book915.png,book921.png,blank.png,blank.png,blank.png,blank.png,1,8,4,4,7,v,00000,20,2021-02-15_14h23.44.377,vismem_search_builder_pavlovia2,2020.1.2,Win32,60,,
,,,,,v,1,1.02059,,0,105,105,77,1,cmp_shelves_043_toys_002,S4_shelves_043_toys_002.jpg,0,blank.png,blank.png,car138.png,blank.png,blank.png,blank.png,blank.png,blank.png,blank.png,blank.png,0,4,1,1,7,v,00000,20,2021-02-15_14h23.44.377,vismem_search_builder_pavlovia2,2020.1.2,Win32,60,,
,,,,,v,0,2.473945,,0,106,106,84,1,cmp_building_039_dog_007,S4_building_039_dog_007.jpg,1,dog519.png,dog519.png,dog592.png,blank.png,blank.png,blank.png,blank.png,blank.png,blank.png,blank.png,0,4,2,2,7,m,00000,20,2021-02-15_14h23.44.377,vismem_search_builder_pavlovia2,2020.1.2,Win32,60,,
,,,,,m,1,0.797515,,0,107,107,7,1,cmp_shelves_028_book_001,S1_shelves_028_book_001.jpg,1,book624.png,book624.png,book349.png,book368.png,book392.png,blank.png,blank.png,blank.png,blank.png,blank.png,0,1,4,4,7,m,00000,20,2021-02-15_14h23.44.377,vismem_search_builder_pavlovia2,2020.1.2,Win32,60,,
,,,,,v,1,1.199975,,0,108,108,95,1,cmp_mountain_013_bird_001,S4_mountain_013_bird_001.jpg,0,blank.png,blank.png,bird152.png,bird403.png,blank.png,blank.png,blank.png,blank.png,blank.png,blank.png,0,4,2,2,7,v,00000,20,2021-02-15_14h23.44.377,vismem_search_builder_pavlovia2,2020.1.2,Win32,60,,
,,,,,v,1,1.68938,,0,109,109,10,1,cmp_building_020_cat_007,S1_building_020_cat_007.jpg,0,blank.png,blank.png,cat1553.png,cat1557.png,cat1569.png,cat1630.png,blank.png,blank.png,blank.png,blank.png,1,1,4,4,7,v,00000,20,2021-02-15_14h23.44.377,vismem_search_builder_pavlovia2,2020.1.2,Win32,60,,
,,,,,v,1,0.93287,,0,110,110,11,1,cmp_shelves_015_bottle_004,S1_shelves_015_bottle_004.jpg,0,blank.png,blank.png,bottle1332.png,bottle1090.png,bottle1390.png,bottle1498.png,blank.png,blank.png,blank.png,blank.png,1,1,4,4,7,v,00000,20,2021-02-15_14h23.44.377,vismem_search_builder_pavlovia2,2020.1.2,Win32,60,,
,,,,,v,1,1.728545,,0,111,111,31,1,cmp_mountain_024_cow_004,S2_mountain_024_cow_004.jpg,0,blank.png,blank.png,cow289.png,cow337.png,cow306.png,cow452.png,blank.png,blank.png,blank.png,blank.png,0,2,4,4,7,v,00000,20,2021-02-15_14h23.44.377,vismem_search_builder_pavlovia2,2020.1.2,Win32,60,,
,,,,,,,,,,,,,,,,,,,,,,,,,,,,,,,,,00000,20,2021-02-15_14h23.44.377,vismem_search_builder_pavlovia2,2020.1.2,Win32,60,x,21.185625
