key_resp_6.keys,key_resp_6.rt,key_resp_2.keys,key_resp_2.corr,key_resp_2.rt,CDT_trials_train.thisRepN,CDT_trials_train.thisTrialN,CDT_trials_train.thisN,CDT_trials_train.thisIndex,CDT_trials_train.ran,trialnum,condit,stimamt,stim1posx,stim1posy,stim1col,stim1opa,stim2posx,stim2posy,stim2col,stim2opa,stim3posx,stim3posy,stim3col,stim3opa,stim4posx,stim4posy,stim4col,stim4opa,stim5posx,stim5posy,stim5col,stim5opa,stim6posx,stim6posy,stim6col,stim6opa,stimsizex,stimsizey,stimdur,targetposx,targetposy,targetcol,corrAns,participant,age,date,expName,psychopyVersion,OS,frameRate,key_resp_5.keys,key_resp.keys,key_resp.corr,key_resp.rt,CDT_trials.thisRepN,CDT_trials.thisTrialN,CDT_trials.thisN,CDT_trials.thisIndex,CDT_trials.ran,key_resp_5.rt,trialResp_Train.keys,trialResp_Train.corr,GNGtrials_train.thisRepN,GNGtrials_train.thisTrialN,GNGtrials_train.thisN,GNGtrials_train.thisIndex,GNGtrials_train.ran,orangeOpacity,blueOpacity,trialResp_Train.rt,trialResp.keys,trialResp.corr,trialResp.rt,GNG_trials_1.thisRepN,GNG_trials_1.thisTrialN,GNG_trials_1.thisN,GNG_trials_1.thisIndex,GNG_trials_1.ran,GNG_trials_2.thisRepN,GNG_trials_2.thisTrialN,GNG_trials_2.thisN,GNG_trials_2.thisIndex,GNG_trials_2.ran,GNG_trials_3.thisRepN,GNG_trials_3.thisTrialN,GNG_trials_3.thisN,GNG_trials_3.thisIndex,GNG_trials_3.ran,slider_2.response,slider_2.rt,engprof_trials.thisRepN,engprof_trials.thisTrialN,engprof_trials.thisN,engprof_trials.thisIndex,engprof_trials.ran,qpnumber,qproficiency,slider.response,slider.rt,IUS12_trials.thisRepN,IUS12_trials.thisTrialN,IUS12_trials.thisN,IUS12_trials.thisIndex,IUS12_trials.ran,qnumber,qenglish,key_resp_end.keys,key_resp_end.rt
y,5.290015,k,1,2.34193,0,0,0,0,1,1,same,4,0.273779233,-0.054755847,black,1,-0.16426754,-0.273779233,magenta,1,-0.16426754,0.16426754,orange,1,0.16426754,0.054755847,yellow,1,0.16426754,-0.054755847,cyan,0,-0.054755847,-0.16426754,blue,0,0.05,0.05,0.15,-0.16426754,0.16426754,orange,k,00000,,2020-08-21_18h56.51.192,CDT_GNG_IUS12,2020.1.2,Win32,60,,,,,,,,,,,,,,,,,,,,,,,,,,,,,,,,,,,,,,,,,,,,,,,,,,,,,,,,,,
,,l,1,1.18755,0,1,1,1,1,2,different,4,0.054755847,-0.054755847,orange,1,-0.273779233,0.273779233,magenta,1,0.273779233,0.16426754,yellow,1,-0.273779233,-0.16426754,blue,1,0.273779233,-0.054755847,red,0,-0.273779233,0.054755847,cyan,0,0.05,0.05,0.15,-0.273779233,-0.16426754,black,l,00000,,2020-08-21_18h56.51.192,CDT_GNG_IUS12,2020.1.2,Win32,60,,,,,,,,,,,,,,,,,,,,,,,,,,,,,,,,,,,,,,,,,,,,,,,,,,,,,,,,,,
,,k,1,2.66967,0,2,2,2,1,3,same,6,-0.054755847,0.273779233,green,1,0.273779233,-0.273779233,magenta,1,0.273779233,0.16426754,cyan,1,-0.054755847,-0.054755847,black,1,-0.273779233,0.16426754,orange,1,0.16426754,-0.054755847,blue,1,0.05,0.05,0.15,-0.054755847,0.273779233,green,k,00000,,2020-08-21_18h56.51.192,CDT_GNG_IUS12,2020.1.2,Win32,60,,,,,,,,,,,,,,,,,,,,,,,,,,,,,,,,,,,,,,,,,,,,,,,,,,,,,,,,,,
,,l,1,1.39702,0,3,3,3,1,4,different,6,0.16426754,-0.054755847,orange,1,-0.054755847,0.273779233,red,1,0.273779233,0.273779233,green,1,-0.054755847,-0.273779233,yellow,1,0.273779233,-0.054755847,blue,1,-0.16426754,0.16426754,black,1,0.05,0.05,0.15,0.273779233,0.273779233,cyan,l,00000,,2020-08-21_18h56.51.192,CDT_GNG_IUS12,2020.1.2,Win32,60,,,,,,,,,,,,,,,,,,,,,,,,,,,,,,,,,,,,,,,,,,,,,,,,,,,,,,,,,,
,,,,,,,,,,59,different,4,0.16426754,-0.16426754,red,1,-0.054755847,-0.16426754,cyan,1,0.054755847,0.16426754,yellow,1,-0.16426754,0.273779233,green,1,0.16426754,-0.054755847,orange,0,-0.16426754,-0.054755847,black,0,0.05,0.05,0.15,-0.16426754,0.273779233,black,l,00000,,2020-08-21_18h56.51.192,CDT_GNG_IUS12,2020.1.2,Win32,60,,l,1,1.103025,0,0,0,58,1,,,,,,,,,,,,,,,,,,,,,,,,,,,,,,,,,,,,,,,,,,,,,,,,,
,,,,,,,,,,47,different,4,-0.16426754,-0.054755847,orange,1,0.273779233,0.054755847,black,1,-0.16426754,0.16426754,red,1,0.273779233,-0.16426754,blue,1,-0.054755847,-0.273779233,green,0,0.16426754,0.16426754,yellow,0,0.05,0.05,0.15,0.273779233,0.054755847,red,l,00000,,2020-08-21_18h56.51.192,CDT_GNG_IUS12,2020.1.2,Win32,60,,l,1,1.306405,0,1,1,46,1,,,,,,,,,,,,,,,,,,,,,,,,,,,,,,,,,,,,,,,,,,,,,,,,,
,,,,,,,,,,52,different,4,-0.273779233,-0.16426754,magenta,1,-0.273779233,0.054755847,green,1,0.273779233,-0.054755847,cyan,1,0.273779233,0.054755847,black,1,-0.16426754,-0.16426754,orange,0,-0.054755847,0.054755847,red,0,0.05,0.05,0.15,-0.273779233,-0.16426754,black,l,00000,,2020-08-21_18h56.51.192,CDT_GNG_IUS12,2020.1.2,Win32,60,,l,1,0.9577,0,2,2,51,1,,,,,,,,,,,,,,,,,,,,,,,,,,,,,,,,,,,,,,,,,,,,,,,,,
,,,,,,,,,,57,different,4,-0.273779233,-0.054755847,yellow,1,0.16426754,-0.054755847,green,1,-0.273779233,0.16426754,red,1,0.273779233,0.054755847,black,1,-0.16426754,-0.054755847,orange,0,0.054755847,-0.16426754,magenta,0,0.05,0.05,0.15,0.16426754,-0.054755847,orange,l,00000,,2020-08-21_18h56.51.192,CDT_GNG_IUS12,2020.1.2,Win32,60,,l,1,1.013005,0,3,3,56,1,,,,,,,,,,,,,,,,,,,,,,,,,,,,,,,,,,,,,,,,,,,,,,,,,
,,,,,,,,,,6,same,4,0.273779233,0.273779233,blue,1,-0.273779233,-0.16426754,magenta,1,-0.054755847,0.054755847,green,1,0.054755847,-0.054755847,black,1,0.054755847,0.054755847,orange,0,-0.054755847,-0.054755847,red,0,0.05,0.05,0.15,-0.054755847,0.054755847,green,k,00000,,2020-08-21_18h56.51.192,CDT_GNG_IUS12,2020.1.2,Win32,60,,k,1,0.87311,0,4,4,5,1,,,,,,,,,,,,,,,,,,,,,,,,,,,,,,,,,,,,,,,,,,,,,,,,,
,,,,,,,,,,94,different,6,0.273779233,-0.273779233,green,1,-0.16426754,-0.054755847,black,1,-0.273779233,0.16426754,blue,1,0.273779233,0.054755847,cyan,1,0.16426754,-0.16426754,magenta,1,-0.054755847,-0.054755847,orange,1,0.05,0.05,0.15,0.273779233,-0.273779233,magenta,l,00000,,2020-08-21_18h56.51.192,CDT_GNG_IUS12,2020.1.2,Win32,60,,l,1,1.287635,0,5,5,93,1,,,,,,,,,,,,,,,,,,,,,,,,,,,,,,,,,,,,,,,,,,,,,,,,,
,,,,,,,,,,15,same,4,0.054755847,-0.273779233,yellow,1,-0.273779233,-0.054755847,cyan,1,0.273779233,0.16426754,green,1,-0.16426754,0.16426754,blue,1,0.273779233,-0.054755847,magenta,0,-0.16426754,-0.054755847,orange,0,0.05,0.05,0.15,-0.273779233,-0.054755847,cyan,k,00000,,2020-08-21_18h56.51.192,CDT_GNG_IUS12,2020.1.2,Win32,60,,k,1,1.12532,0,6,6,14,1,,,,,,,,,,,,,,,,,,,,,,,,,,,,,,,,,,,,,,,,,,,,,,,,,
,,,,,,,,,,11,same,4,0.273779233,0.16426754,black,1,-0.054755847,0.273779233,cyan,1,0.16426754,-0.054755847,blue,1,-0.273779233,-0.16426754,orange,1,0.054755847,0.273779233,magenta,0,-0.273779233,0.054755847,green,0,0.05,0.05,0.15,0.273779233,0.16426754,black,k,00000,,2020-08-21_18h56.51.192,CDT_GNG_IUS12,2020.1.2,Win32,60,,k,1,1.35226,0,7,7,10,1,,,,,,,,,,,,,,,,,,,,,,,,,,,,,,,,,,,,,,,,,,,,,,,,,
,,,,,,,,,,108,different,6,-0.273779233,-0.054755847,magenta,1,0.054755847,0.16426754,red,1,-0.16426754,0.054755847,cyan,1,0.054755847,-0.273779233,green,1,-0.273779233,-0.16426754,orange,1,0.273779233,0.273779233,black,1,0.05,0.05,0.15,-0.273779233,-0.054755847,blue,l,00000,,2020-08-21_18h56.51.192,CDT_GNG_IUS12,2020.1.2,Win32,60,,k,0,1.86889,0,8,8,107,1,,,,,,,,,,,,,,,,,,,,,,,,,,,,,,,,,,,,,,,,,,,,,,,,,
,,,,,,,,,,55,different,4,0.273779233,0.054755847,yellow,1,0.054755847,-0.16426754,green,1,-0.273779233,-0.16426754,orange,1,-0.273779233,0.273779233,blue,1,0.273779233,0.273779233,red,0,0.273779233,-0.16426754,cyan,0,0.05,0.05,0.15,0.054755847,-0.16426754,red,l,00000,,2020-08-21_18h56.51.192,CDT_GNG_IUS12,2020.1.2,Win32,60,,k,0,0.83927,0,9,9,54,1,,,,,,,,,,,,,,,,,,,,,,,,,,,,,,,,,,,,,,,,,,,,,,,,,
,,,,,,,,,,34,different,4,0.16426754,0.16426754,yellow,1,0.273779233,-0.16426754,cyan,1,-0.273779233,-0.273779233,magenta,1,-0.273779233,0.16426754,green,1,0.054755847,0.054755847,black,0,0.273779233,-0.273779233,orange,0,0.05,0.05,0.15,0.16426754,0.16426754,cyan,l,00000,,2020-08-21_18h56.51.192,CDT_GNG_IUS12,2020.1.2,Win32,60,,l,1,1.099295,0,10,10,33,1,,,,,,,,,,,,,,,,,,,,,,,,,,,,,,,,,,,,,,,,,,,,,,,,,
,,,,,,,,,,116,different,6,-0.273779233,0.16426754,green,1,-0.054755847,-0.054755847,orange,1,0.273779233,-0.273779233,cyan,1,0.054755847,0.273779233,red,1,-0.054755847,0.16426754,blue,1,-0.16426754,-0.054755847,yellow,1,0.05,0.05,0.15,-0.054755847,-0.054755847,magenta,l,00000,,2020-08-21_18h56.51.192,CDT_GNG_IUS12,2020.1.2,Win32,60,,l,1,1.011505,0,11,11,115,1,,,,,,,,,,,,,,,,,,,,,,,,,,,,,,,,,,,,,,,,,,,,,,,,,
,,,,,,,,,,110,different,6,-0.273779233,0.273779233,black,1,0.273779233,-0.16426754,red,1,0.054755847,0.273779233,cyan,1,-0.273779233,-0.16426754,orange,1,-0.054755847,0.054755847,magenta,1,0.16426754,-0.054755847,yellow,1,0.05,0.05,0.15,0.273779233,-0.16426754,yellow,l,00000,,2020-08-21_18h56.51.192,CDT_GNG_IUS12,2020.1.2,Win32,60,,l,1,2.803665,0,12,12,109,1,,,,,,,,,,,,,,,,,,,,,,,,,,,,,,,,,,,,,,,,,,,,,,,,,
,,,,,,,,,,29,same,4,0.273779233,0.054755847,magenta,1,-0.054755847,0.273779233,cyan,1,0.16426754,-0.054755847,green,1,-0.16426754,-0.054755847,black,1,0.273779233,0.16426754,orange,0,-0.16426754,0.054755847,blue,0,0.05,0.05,0.15,0.16426754,-0.054755847,green,k,00000,,2020-08-21_18h56.51.192,CDT_GNG_IUS12,2020.1.2,Win32,60,,k,1,1.09265,0,13,13,28,1,,,,,,,,,,,,,,,,,,,,,,,,,,,,,,,,,,,,,,,,,,,,,,,,,
,,,,,,,,,,25,same,4,0.16426754,-0.273779233,green,1,-0.16426754,-0.273779233,black,1,0.16426754,0.054755847,cyan,1,-0.273779233,0.273779233,blue,1,0.054755847,-0.273779233,yellow,0,-0.273779233,-0.273779233,red,0,0.05,0.05,0.15,-0.273779233,0.273779233,blue,k,00000,,2020-08-21_18h56.51.192,CDT_GNG_IUS12,2020.1.2,Win32,60,,l,0,3.038765,0,14,14,24,1,,,,,,,,,,,,,,,,,,,,,,,,,,,,,,,,,,,,,,,,,,,,,,,,,
,,,,,,,,,,22,same,4,-0.054755847,-0.16426754,green,1,-0.16426754,0.054755847,blue,1,0.16426754,0.16426754,yellow,1,0.273779233,-0.054755847,black,1,-0.273779233,-0.054755847,red,0,-0.054755847,0.16426754,cyan,0,0.05,0.05,0.15,0.273779233,-0.054755847,black,k,00000,,2020-08-21_18h56.51.192,CDT_GNG_IUS12,2020.1.2,Win32,60,,k,1,3.393695,0,15,15,21,1,,,,,,,,,,,,,,,,,,,,,,,,,,,,,,,,,,,,,,,,,,,,,,,,,
,,,,,,,,,,16,same,4,0.16426754,0.16426754,cyan,1,-0.16426754,-0.273779233,red,1,-0.16426754,0.16426754,black,1,0.273779233,-0.054755847,yellow,1,0.273779233,0.273779233,orange,0,-0.054755847,-0.273779233,blue,0,0.05,0.05,0.15,-0.16426754,-0.273779233,red,k,00000,,2020-08-21_18h56.51.192,CDT_GNG_IUS12,2020.1.2,Win32,60,,k,1,1.262015,0,16,16,15,1,,,,,,,,,,,,,,,,,,,,,,,,,,,,,,,,,,,,,,,,,,,,,,,,,
,,,,,,,,,,89,same,6,-0.054755847,-0.273779233,cyan,1,-0.16426754,0.16426754,green,1,0.273779233,0.273779233,black,1,0.273779233,-0.273779233,orange,1,-0.273779233,-0.16426754,magenta,1,-0.16426754,0.273779233,yellow,1,0.05,0.05,0.15,-0.16426754,0.273779233,yellow,k,00000,,2020-08-21_18h56.51.192,CDT_GNG_IUS12,2020.1.2,Win32,60,,k,1,0.94399,0,17,17,88,1,,,,,,,,,,,,,,,,,,,,,,,,,,,,,,,,,,,,,,,,,,,,,,,,,
,,,,,,,,,,117,different,6,-0.054755847,0.054755847,black,1,0.054755847,0.273779233,magenta,1,-0.273779233,-0.273779233,yellow,1,0.054755847,-0.16426754,blue,1,-0.16426754,0.054755847,cyan,1,0.054755847,0.054755847,red,1,0.05,0.05,0.15,-0.16426754,0.054755847,black,l,00000,,2020-08-21_18h56.51.192,CDT_GNG_IUS12,2020.1.2,Win32,60,,l,1,2.03679,0,18,18,116,1,,,,,,,,,,,,,,,,,,,,,,,,,,,,,,,,,,,,,,,,,,,,,,,,,
,,,,,,,,,,62,same,6,0.054755847,-0.054755847,yellow,1,-0.273779233,-0.16426754,green,1,0.273779233,0.054755847,orange,1,-0.16426754,0.054755847,cyan,1,0.054755847,-0.273779233,red,1,-0.054755847,-0.054755847,blue,1,0.05,0.05,0.15,0.054755847,-0.054755847,yellow,k,00000,,2020-08-21_18h56.51.192,CDT_GNG_IUS12,2020.1.2,Win32,60,,k,1,1.119615,0,19,19,61,1,,,,,,,,,,,,,,,,,,,,,,,,,,,,,,,,,,,,,,,,,,,,,,,,,
,,,,,,,,,,83,same,6,0.054755847,-0.16426754,cyan,1,-0.16426754,-0.16426754,blue,1,0.273779233,0.054755847,magenta,1,-0.273779233,0.273779233,green,1,0.273779233,-0.16426754,orange,1,-0.054755847,-0.054755847,yellow,1,0.05,0.05,0.15,-0.054755847,-0.054755847,yellow,k,00000,,2020-08-21_18h56.51.192,CDT_GNG_IUS12,2020.1.2,Win32,60,,l,0,2.10348,0,20,20,82,1,,,,,,,,,,,,,,,,,,,,,,,,,,,,,,,,,,,,,,,,,,,,,,,,,
,,,,,,,,,,79,same,6,0.054755847,-0.16426754,black,1,-0.054755847,-0.273779233,yellow,1,-0.273779233,0.273779233,red,1,0.054755847,0.054755847,magenta,1,0.16426754,-0.054755847,cyan,1,-0.16426754,-0.054755847,orange,1,0.05,0.05,0.15,0.054755847,0.054755847,magenta,k,00000,,2020-08-21_18h56.51.192,CDT_GNG_IUS12,2020.1.2,Win32,60,,k,1,0.952995,0,21,21,78,1,,,,,,,,,,,,,,,,,,,,,,,,,,,,,,,,,,,,,,,,,,,,,,,,,
,,,,,,,,,,12,same,4,0.054755847,0.054755847,blue,1,-0.273779233,-0.054755847,magenta,1,-0.054755847,0.273779233,black,1,0.16426754,-0.16426754,green,1,0.16426754,0.16426754,yellow,0,-0.16426754,-0.054755847,orange,0,0.05,0.05,0.15,0.054755847,0.054755847,blue,k,00000,,2020-08-21_18h56.51.192,CDT_GNG_IUS12,2020.1.2,Win32,60,,k,1,0.946785,0,22,22,11,1,,,,,,,,,,,,,,,,,,,,,,,,,,,,,,,,,,,,,,,,,,,,,,,,,
,,,,,,,,,,70,same,6,0.16426754,0.16426754,cyan,1,0.273779233,-0.273779233,red,1,-0.16426754,0.16426754,yellow,1,-0.273779233,-0.273779233,green,1,0.16426754,0.054755847,magenta,1,0.16426754,-0.054755847,blue,1,0.05,0.05,0.15,0.273779233,-0.273779233,red,k,00000,,2020-08-21_18h56.51.192,CDT_GNG_IUS12,2020.1.2,Win32,60,,l,0,1.43859,0,23,23,69,1,,,,,,,,,,,,,,,,,,,,,,,,,,,,,,,,,,,,,,,,,,,,,,,,,
,,,,,,,,,,17,same,4,0.16426754,0.273779233,yellow,1,-0.054755847,0.16426754,orange,1,0.273779233,-0.054755847,cyan,1,-0.273779233,-0.054755847,green,1,0.16426754,0.16426754,blue,0,-0.054755847,0.273779233,magenta,0,0.05,0.05,0.15,0.16426754,0.273779233,yellow,k,00000,,2020-08-21_18h56.51.192,CDT_GNG_IUS12,2020.1.2,Win32,60,,k,1,1.687445,0,24,24,16,1,,,,,,,,,,,,,,,,,,,,,,,,,,,,,,,,,,,,,,,,,,,,,,,,,
,,,,,,,,,,77,same,6,0.273779233,0.273779233,black,1,-0.273779233,-0.16426754,red,1,0.16426754,-0.054755847,magenta,1,-0.054755847,0.16426754,cyan,1,0.16426754,0.273779233,orange,1,-0.16426754,-0.273779233,blue,1,0.05,0.05,0.15,-0.273779233,-0.16426754,red,k,00000,,2020-08-21_18h56.51.192,CDT_GNG_IUS12,2020.1.2,Win32,60,,l,0,2.077795,0,25,25,76,1,,,,,,,,,,,,,,,,,,,,,,,,,,,,,,,,,,,,,,,,,,,,,,,,,
,,,,,,,,,,24,same,4,0.054755847,-0.16426754,red,1,0.054755847,0.054755847,yellow,1,-0.273779233,0.16426754,orange,1,-0.273779233,-0.16426754,magenta,1,0.273779233,-0.16426754,black,0,0.273779233,0.273779233,green,0,0.05,0.05,0.15,0.054755847,-0.16426754,red,k,00000,,2020-08-21_18h56.51.192,CDT_GNG_IUS12,2020.1.2,Win32,60,,k,1,0.77656,0,26,26,23,1,,,,,,,,,,,,,,,,,,,,,,,,,,,,,,,,,,,,,,,,,,,,,,,,,
,,,,,,,,,,4,same,4,0.16426754,-0.16426754,black,1,-0.054755847,0.16426754,yellow,1,0.16426754,0.16426754,blue,1,-0.16426754,-0.16426754,green,1,0.054755847,-0.16426754,magenta,0,-0.054755847,0.273779233,orange,0,0.05,0.05,0.15,0.16426754,-0.16426754,black,k,00000,,2020-08-21_18h56.51.192,CDT_GNG_IUS12,2020.1.2,Win32,60,,k,1,0.97539,0,27,27,3,1,,,,,,,,,,,,,,,,,,,,,,,,,,,,,,,,,,,,,,,,,,,,,,,,,
,,,,,,,,,,39,different,4,0.054755847,0.054755847,green,1,0.273779233,-0.16426754,yellow,1,-0.16426754,0.054755847,orange,1,-0.273779233,-0.054755847,red,1,0.273779233,0.054755847,blue,0,0.054755847,-0.16426754,cyan,0,0.05,0.05,0.15,-0.273779233,-0.054755847,cyan,l,00000,,2020-08-21_18h56.51.192,CDT_GNG_IUS12,2020.1.2,Win32,60,,l,1,1.104165,0,28,28,38,1,,,,,,,,,,,,,,,,,,,,,,,,,,,,,,,,,,,,,,,,,,,,,,,,,
,,,,,,,,,,75,same,6,0.16426754,0.273779233,magenta,1,-0.273779233,-0.16426754,green,1,-0.273779233,0.16426754,yellow,1,0.054755847,-0.054755847,red,1,0.273779233,0.054755847,blue,1,-0.16426754,-0.054755847,cyan,1,0.05,0.05,0.15,0.054755847,-0.054755847,red,k,00000,,2020-08-21_18h56.51.192,CDT_GNG_IUS12,2020.1.2,Win32,60,,k,1,0.653775,0,29,29,74,1,,,,,,,,,,,,,,,,,,,,,,,,,,,,,,,,,,,,,,,,,,,,,,,,,
,,,,,,,,,,53,different,4,-0.16426754,0.054755847,green,1,0.273779233,0.054755847,cyan,1,-0.273779233,-0.273779233,magenta,1,0.054755847,-0.16426754,black,1,-0.054755847,0.16426754,red,0,0.273779233,0.273779233,blue,0,0.05,0.05,0.15,-0.273779233,-0.273779233,black,l,00000,,2020-08-21_18h56.51.192,CDT_GNG_IUS12,2020.1.2,Win32,60,,l,1,1.142795,0,30,30,52,1,,,,,,,,,,,,,,,,,,,,,,,,,,,,,,,,,,,,,,,,,,,,,,,,,
,,,,,,,,,,10,same,4,0.273779233,0.273779233,green,1,-0.16426754,-0.054755847,yellow,1,-0.16426754,0.16426754,cyan,1,0.273779233,-0.16426754,blue,1,0.273779233,0.054755847,orange,0,-0.273779233,-0.16426754,red,0,0.05,0.05,0.15,0.273779233,0.273779233,green,k,00000,,2020-08-21_18h56.51.192,CDT_GNG_IUS12,2020.1.2,Win32,60,,k,1,0.96942,0,31,31,9,1,,,,,,,,,,,,,,,,,,,,,,,,,,,,,,,,,,,,,,,,,,,,,,,,,
,,,,,,,,,,58,different,4,-0.16426754,0.273779233,blue,1,0.16426754,0.273779233,yellow,1,0.273779233,-0.16426754,black,1,-0.16426754,-0.054755847,cyan,1,-0.16426754,0.16426754,green,0,0.16426754,0.054755847,orange,0,0.05,0.05,0.15,0.273779233,-0.16426754,magenta,l,00000,,2020-08-21_18h56.51.192,CDT_GNG_IUS12,2020.1.2,Win32,60,,l,1,1.053365,0,32,32,57,1,,,,,,,,,,,,,,,,,,,,,,,,,,,,,,,,,,,,,,,,,,,,,,,,,
,,,,,,,,,,101,different,6,0.273779233,0.273779233,yellow,1,0.054755847,-0.16426754,black,1,-0.054755847,0.054755847,cyan,1,-0.054755847,-0.16426754,magenta,1,0.273779233,0.054755847,green,1,0.16426754,-0.16426754,blue,1,0.05,0.05,0.15,0.273779233,0.273779233,green,l,00000,,2020-08-21_18h56.51.192,CDT_GNG_IUS12,2020.1.2,Win32,60,,l,1,1.375065,0,33,33,100,1,,,,,,,,,,,,,,,,,,,,,,,,,,,,,,,,,,,,,,,,,,,,,,,,,
,,,,,,,,,,73,same,6,0.054755847,0.16426754,blue,1,-0.273779233,0.273779233,red,1,-0.273779233,-0.16426754,green,1,0.054755847,-0.054755847,orange,1,0.16426754,0.16426754,black,1,-0.054755847,0.16426754,magenta,1,0.05,0.05,0.15,-0.273779233,0.273779233,red,k,00000,,2020-08-21_18h56.51.192,CDT_GNG_IUS12,2020.1.2,Win32,60,,k,1,1.44726,0,34,34,72,1,,,,,,,,,,,,,,,,,,,,,,,,,,,,,,,,,,,,,,,,,,,,,,,,,
,,,,,,,,,,13,same,4,0.16426754,0.273779233,orange,1,0.054755847,-0.273779233,blue,1,-0.054755847,0.054755847,magenta,1,-0.054755847,-0.16426754,black,1,0.054755847,0.16426754,yellow,0,0.16426754,-0.054755847,cyan,0,0.05,0.05,0.15,0.054755847,-0.273779233,blue,k,00000,,2020-08-21_18h56.51.192,CDT_GNG_IUS12,2020.1.2,Win32,60,,k,1,1.05412,0,35,35,12,1,,,,,,,,,,,,,,,,,,,,,,,,,,,,,,,,,,,,,,,,,,,,,,,,,
,,,,,,,,,,82,same,6,-0.054755847,-0.16426754,red,1,0.273779233,-0.054755847,cyan,1,0.16426754,0.273779233,blue,1,-0.054755847,0.054755847,black,1,-0.16426754,-0.16426754,yellow,1,0.273779233,-0.16426754,green,1,0.05,0.05,0.15,-0.16426754,-0.16426754,yellow,k,00000,,2020-08-21_18h56.51.192,CDT_GNG_IUS12,2020.1.2,Win32,60,,l,0,1.45419,0,36,36,81,1,,,,,,,,,,,,,,,,,,,,,,,,,,,,,,,,,,,,,,,,,,,,,,,,,
,,,,,,,,,,56,different,4,0.16426754,0.054755847,red,1,-0.054755847,0.16426754,orange,1,0.16426754,-0.16426754,black,1,-0.273779233,-0.054755847,yellow,1,0.16426754,0.273779233,blue,0,-0.054755847,0.273779233,magenta,0,0.05,0.05,0.15,-0.273779233,-0.054755847,green,l,00000,,2020-08-21_18h56.51.192,CDT_GNG_IUS12,2020.1.2,Win32,60,,l,1,1.18887,0,37,37,55,1,,,,,,,,,,,,,,,,,,,,,,,,,,,,,,,,,,,,,,,,,,,,,,,,,
,,,,,,,,,,103,different,6,-0.273779233,-0.16426754,black,1,0.273779233,-0.054755847,cyan,1,0.054755847,0.273779233,magenta,1,-0.054755847,0.16426754,orange,1,-0.16426754,-0.16426754,green,1,0.273779233,-0.16426754,red,1,0.05,0.05,0.15,-0.273779233,-0.16426754,blue,l,00000,,2020-08-21_18h56.51.192,CDT_GNG_IUS12,2020.1.2,Win32,60,,l,1,1.08718,0,38,38,102,1,,,,,,,,,,,,,,,,,,,,,,,,,,,,,,,,,,,,,,,,,,,,,,,,,
,,,,,,,,,,112,different,6,-0.273779233,-0.16426754,magenta,1,-0.054755847,0.054755847,orange,1,0.054755847,0.273779233,cyan,1,0.16426754,-0.273779233,yellow,1,-0.273779233,-0.273779233,black,1,-0.16426754,0.054755847,red,1,0.05,0.05,0.15,-0.16426754,0.054755847,orange,l,00000,,2020-08-21_18h56.51.192,CDT_GNG_IUS12,2020.1.2,Win32,60,,k,0,2.038425,0,39,39,111,1,,,,,,,,,,,,,,,,,,,,,,,,,,,,,,,,,,,,,,,,,,,,,,,,,
,,,,,,,,,,63,same,6,-0.273779233,0.273779233,red,1,-0.273779233,-0.16426754,orange,1,0.054755847,-0.273779233,black,1,0.16426754,0.16426754,cyan,1,-0.054755847,0.054755847,blue,1,-0.273779233,-0.054755847,magenta,1,0.05,0.05,0.15,-0.273779233,-0.054755847,magenta,k,00000,,2020-08-21_18h56.51.192,CDT_GNG_IUS12,2020.1.2,Win32,60,,l,0,1.39265,0,40,40,62,1,,,,,,,,,,,,,,,,,,,,,,,,,,,,,,,,,,,,,,,,,,,,,,,,,
,,,,,,,,,,60,different,4,0.273779233,0.273779233,red,1,-0.273779233,-0.054755847,blue,1,-0.273779233,0.054755847,magenta,1,0.054755847,-0.273779233,black,1,0.273779233,0.054755847,orange,0,-0.054755847,-0.16426754,yellow,0,0.05,0.05,0.15,-0.273779233,0.054755847,yellow,l,00000,,2020-08-21_18h56.51.192,CDT_GNG_IUS12,2020.1.2,Win32,60,,l,1,0.83135,0,41,41,59,1,,,,,,,,,,,,,,,,,,,,,,,,,,,,,,,,,,,,,,,,,,,,,,,,,
,,,,,,,,,,78,same,6,0.054755847,0.054755847,black,1,-0.054755847,0.16426754,red,1,0.273779233,-0.273779233,blue,1,-0.054755847,-0.054755847,magenta,1,0.16426754,0.054755847,yellow,1,-0.273779233,0.16426754,cyan,1,0.05,0.05,0.15,-0.054755847,0.16426754,red,k,00000,,2020-08-21_18h56.51.192,CDT_GNG_IUS12,2020.1.2,Win32,60,,l,0,1.322735,0,42,42,77,1,,,,,,,,,,,,,,,,,,,,,,,,,,,,,,,,,,,,,,,,,,,,,,,,,
,,,,,,,,,,14,same,4,0.16426754,0.16426754,magenta,1,-0.16426754,0.16426754,blue,1,0.16426754,-0.16426754,green,1,-0.16426754,-0.16426754,red,1,0.16426754,0.273779233,cyan,0,-0.16426754,0.273779233,orange,0,0.05,0.05,0.15,-0.16426754,0.16426754,blue,k,00000,,2020-08-21_18h56.51.192,CDT_GNG_IUS12,2020.1.2,Win32,60,,k,1,0.80351,0,43,43,13,1,,,,,,,,,,,,,,,,,,,,,,,,,,,,,,,,,,,,,,,,,,,,,,,,,
,,,,,,,,,,28,same,4,0.16426754,-0.273779233,yellow,1,-0.054755847,0.16426754,black,1,0.16426754,0.054755847,cyan,1,-0.273779233,-0.16426754,blue,1,0.273779233,-0.273779233,orange,0,-0.054755847,0.054755847,magenta,0,0.05,0.05,0.15,-0.054755847,0.16426754,black,k,00000,,2020-08-21_18h56.51.192,CDT_GNG_IUS12,2020.1.2,Win32,60,,k,1,0.970955,0,44,44,27,1,,,,,,,,,,,,,,,,,,,,,,,,,,,,,,,,,,,,,,,,,,,,,,,,,
,,,,,,,,,,36,different,4,-0.16426754,-0.054755847,cyan,1,0.16426754,0.054755847,red,1,0.16426754,-0.054755847,black,1,-0.273779233,0.273779233,orange,1,-0.054755847,-0.054755847,yellow,0,0.273779233,0.273779233,green,0,0.05,0.05,0.15,0.16426754,-0.054755847,orange,l,00000,,2020-08-21_18h56.51.192,CDT_GNG_IUS12,2020.1.2,Win32,60,,l,1,1.524985,0,45,45,35,1,,,,,,,,,,,,,,,,,,,,,,,,,,,,,,,,,,,,,,,,,,,,,,,,,
,,,,,,,,,,119,different,6,-0.273779233,0.054755847,cyan,1,-0.273779233,-0.273779233,blue,1,0.16426754,0.054755847,orange,1,0.054755847,-0.16426754,yellow,1,-0.273779233,0.273779233,black,1,-0.054755847,-0.054755847,green,1,0.05,0.05,0.15,-0.273779233,-0.273779233,cyan,l,00000,,2020-08-21_18h56.51.192,CDT_GNG_IUS12,2020.1.2,Win32,60,,l,1,2.81178,0,46,46,118,1,,,,,,,,,,,,,,,,,,,,,,,,,,,,,,,,,,,,,,,,,,,,,,,,,
,,,,,,,,,,21,same,4,0.273779233,0.273779233,black,1,-0.273779233,-0.273779233,blue,1,0.054755847,-0.16426754,yellow,1,-0.273779233,0.054755847,cyan,1,0.16426754,0.273779233,magenta,0,-0.054755847,-0.054755847,green,0,0.05,0.05,0.15,0.273779233,0.273779233,black,k,00000,,2020-08-21_18h56.51.192,CDT_GNG_IUS12,2020.1.2,Win32,60,,k,1,0.96939,0,47,47,20,1,,,,,,,,,,,,,,,,,,,,,,,,,,,,,,,,,,,,,,,,,,,,,,,,,
,,,,,,,,,,41,different,4,0.054755847,-0.273779233,orange,1,-0.273779233,0.054755847,blue,1,-0.054755847,-0.16426754,yellow,1,0.273779233,0.16426754,red,1,0.273779233,-0.273779233,black,0,-0.273779233,0.273779233,magenta,0,0.05,0.05,0.15,-0.054755847,-0.16426754,black,l,00000,,2020-08-21_18h56.51.192,CDT_GNG_IUS12,2020.1.2,Win32,60,,l,1,1.136755,0,48,48,40,1,,,,,,,,,,,,,,,,,,,,,,,,,,,,,,,,,,,,,,,,,,,,,,,,,
,,,,,,,,,,80,same,6,-0.273779233,0.16426754,orange,1,0.054755847,-0.273779233,yellow,1,0.054755847,0.273779233,green,1,-0.16426754,-0.273779233,red,1,-0.16426754,0.273779233,blue,1,0.273779233,-0.16426754,black,1,0.05,0.05,0.15,0.054755847,-0.273779233,yellow,k,00000,,2020-08-21_18h56.51.192,CDT_GNG_IUS12,2020.1.2,Win32,60,,l,0,1.29598,0,49,49,79,1,,,,,,,,,,,,,,,,,,,,,,,,,,,,,,,,,,,,,,,,,,,,,,,,,
,,,,,,,,,,54,different,4,-0.054755847,-0.054755847,black,1,0.054755847,0.054755847,cyan,1,0.273779233,-0.16426754,green,1,-0.273779233,0.16426754,magenta,1,-0.054755847,-0.16426754,orange,0,0.054755847,0.16426754,blue,0,0.05,0.05,0.15,-0.273779233,0.16426754,orange,l,00000,,2020-08-21_18h56.51.192,CDT_GNG_IUS12,2020.1.2,Win32,60,,l,1,0.991955,0,50,50,53,1,,,,,,,,,,,,,,,,,,,,,,,,,,,,,,,,,,,,,,,,,,,,,,,,,
,,,,,,,,,,38,different,4,0.273779233,-0.16426754,red,1,-0.054755847,0.16426754,blue,1,-0.273779233,-0.054755847,green,1,0.273779233,0.054755847,cyan,1,0.16426754,-0.054755847,orange,0,-0.054755847,0.054755847,yellow,0,0.05,0.05,0.15,0.273779233,0.054755847,black,l,00000,,2020-08-21_18h56.51.192,CDT_GNG_IUS12,2020.1.2,Win32,60,,l,1,1.20505,0,51,51,37,1,,,,,,,,,,,,,,,,,,,,,,,,,,,,,,,,,,,,,,,,,,,,,,,,,
,,,,,,,,,,69,same,6,-0.054755847,-0.054755847,black,1,0.273779233,-0.054755847,orange,1,-0.273779233,0.16426754,blue,1,0.054755847,0.054755847,yellow,1,-0.16426754,-0.16426754,green,1,0.054755847,-0.16426754,magenta,1,0.05,0.05,0.15,-0.16426754,-0.16426754,green,k,00000,,2020-08-21_18h56.51.192,CDT_GNG_IUS12,2020.1.2,Win32,60,,k,1,1.340845,0,52,52,68,1,,,,,,,,,,,,,,,,,,,,,,,,,,,,,,,,,,,,,,,,,,,,,,,,,
,,,,,,,,,,3,same,4,-0.054755847,-0.054755847,yellow,1,-0.054755847,0.054755847,cyan,1,0.16426754,-0.273779233,black,1,0.273779233,0.273779233,magenta,1,-0.054755847,-0.273779233,orange,0,-0.273779233,0.054755847,green,0,0.05,0.05,0.15,0.273779233,0.273779233,magenta,k,00000,,2020-08-21_18h56.51.192,CDT_GNG_IUS12,2020.1.2,Win32,60,,k,1,1.122545,0,53,53,2,1,,,,,,,,,,,,,,,,,,,,,,,,,,,,,,,,,,,,,,,,,,,,,,,,,
,,,,,,,,,,93,different,6,-0.16426754,0.16426754,red,1,0.054755847,-0.054755847,black,1,-0.054755847,-0.16426754,blue,1,0.054755847,0.273779233,magenta,1,-0.054755847,0.054755847,orange,1,0.16426754,-0.054755847,cyan,1,0.05,0.05,0.15,-0.054755847,-0.16426754,black,l,00000,,2020-08-21_18h56.51.192,CDT_GNG_IUS12,2020.1.2,Win32,60,,k,0,1.257385,0,54,54,92,1,,,,,,,,,,,,,,,,,,,,,,,,,,,,,,,,,,,,,,,,,,,,,,,,,
,,,,,,,,,,104,different,6,0.054755847,-0.16426754,magenta,1,0.273779233,0.273779233,yellow,1,-0.273779233,0.273779233,blue,1,-0.16426754,-0.054755847,cyan,1,0.16426754,-0.054755847,orange,1,0.273779233,0.16426754,green,1,0.05,0.05,0.15,0.054755847,-0.16426754,cyan,l,00000,,2020-08-21_18h56.51.192,CDT_GNG_IUS12,2020.1.2,Win32,60,,l,1,1.3199,0,55,55,103,1,,,,,,,,,,,,,,,,,,,,,,,,,,,,,,,,,,,,,,,,,,,,,,,,,
,,,,,,,,,,107,different,6,0.273779233,0.16426754,cyan,1,-0.16426754,-0.273779233,magenta,1,-0.054755847,0.054755847,black,1,0.16426754,-0.054755847,blue,1,0.16426754,0.054755847,green,1,-0.273779233,-0.16426754,yellow,1,0.05,0.05,0.15,0.16426754,0.054755847,blue,l,00000,,2020-08-21_18h56.51.192,CDT_GNG_IUS12,2020.1.2,Win32,60,,l,1,1.18267,0,56,56,106,1,,,,,,,,,,,,,,,,,,,,,,,,,,,,,,,,,,,,,,,,,,,,,,,,,
,,,,,,,,,,85,same,6,-0.16426754,-0.273779233,black,1,-0.16426754,0.16426754,green,1,0.16426754,-0.054755847,blue,1,0.054755847,0.054755847,magenta,1,-0.16426754,-0.054755847,red,1,-0.054755847,0.054755847,yellow,1,0.05,0.05,0.15,-0.16426754,-0.273779233,black,k,00000,,2020-08-21_18h56.51.192,CDT_GNG_IUS12,2020.1.2,Win32,60,,k,1,0.825655,0,57,57,84,1,,,,,,,,,,,,,,,,,,,,,,,,,,,,,,,,,,,,,,,,,,,,,,,,,
,,,,,,,,,,109,different,6,-0.273779233,-0.16426754,blue,1,0.054755847,-0.16426754,black,1,-0.054755847,0.054755847,cyan,1,0.054755847,0.16426754,green,1,-0.054755847,-0.054755847,yellow,1,0.16426754,-0.273779233,orange,1,0.05,0.05,0.15,-0.273779233,-0.16426754,green,l,00000,,2020-08-21_18h56.51.192,CDT_GNG_IUS12,2020.1.2,Win32,60,,l,1,3.22248,0,58,58,108,1,,,,,,,,,,,,,,,,,,,,,,,,,,,,,,,,,,,,,,,,,,,,,,,,,
,,,,,,,,,,32,different,4,-0.054755847,-0.273779233,green,1,-0.273779233,0.16426754,black,1,0.16426754,0.16426754,cyan,1,0.273779233,-0.16426754,yellow,1,-0.054755847,-0.054755847,blue,0,-0.054755847,0.273779233,orange,0,0.05,0.05,0.15,-0.054755847,-0.273779233,red,l,00000,,2020-08-21_18h56.51.192,CDT_GNG_IUS12,2020.1.2,Win32,60,s,l,1,0.83997,0,59,59,31,1,30.680445,,,,,,,,,,,,,,,,,,,,,,,,,,,,,,,,,,,,,,,,,,,,,,,,
,,,,,,,,,,105,different,6,0.054755847,0.273779233,cyan,1,0.273779233,-0.16426754,magenta,1,-0.16426754,-0.054755847,yellow,1,-0.16426754,0.16426754,blue,1,0.273779233,0.16426754,orange,1,0.16426754,-0.273779233,green,1,0.05,0.05,0.15,0.16426754,-0.273779233,blue,l,00000,,2020-08-21_18h56.51.192,CDT_GNG_IUS12,2020.1.2,Win32,60,,l,1,1.556325,0,60,60,104,1,,,,,,,,,,,,,,,,,,,,,,,,,,,,,,,,,,,,,,,,,,,,,,,,,
,,,,,,,,,,99,different,6,0.054755847,0.16426754,orange,1,0.16426754,-0.16426754,yellow,1,-0.16426754,0.273779233,red,1,-0.273779233,-0.054755847,magenta,1,0.16426754,0.054755847,black,1,0.054755847,-0.054755847,green,1,0.05,0.05,0.15,-0.16426754,0.273779233,blue,l,00000,,2020-08-21_18h56.51.192,CDT_GNG_IUS12,2020.1.2,Win32,60,,k,0,1.43917,0,61,61,98,1,,,,,,,,,,,,,,,,,,,,,,,,,,,,,,,,,,,,,,,,,,,,,,,,,
,,,,,,,,,,113,different,6,-0.273779233,0.054755847,black,1,-0.16426754,-0.16426754,blue,1,0.054755847,-0.16426754,orange,1,0.16426754,0.16426754,red,1,-0.273779233,0.273779233,green,1,-0.273779233,-0.16426754,magenta,1,0.05,0.05,0.15,-0.273779233,-0.16426754,black,l,00000,,2020-08-21_18h56.51.192,CDT_GNG_IUS12,2020.1.2,Win32,60,,l,1,0.995285,0,62,62,112,1,,,,,,,,,,,,,,,,,,,,,,,,,,,,,,,,,,,,,,,,,,,,,,,,,
,,,,,,,,,,102,different,6,-0.273779233,-0.273779233,magenta,1,0.054755847,0.16426754,green,1,0.16426754,-0.273779233,yellow,1,-0.16426754,0.054755847,orange,1,-0.16426754,-0.273779233,red,1,0.273779233,0.054755847,cyan,1,0.05,0.05,0.15,-0.273779233,-0.273779233,yellow,l,00000,,2020-08-21_18h56.51.192,CDT_GNG_IUS12,2020.1.2,Win32,60,,k,0,2.455445,0,63,63,101,1,,,,,,,,,,,,,,,,,,,,,,,,,,,,,,,,,,,,,,,,,,,,,,,,,
,,,,,,,,,,9,same,4,-0.16426754,0.054755847,cyan,1,0.16426754,-0.16426754,magenta,1,-0.273779233,-0.054755847,black,1,0.054755847,0.054755847,green,1,-0.273779233,0.16426754,orange,0,0.273779233,-0.273779233,red,0,0.05,0.05,0.15,-0.273779233,-0.054755847,black,k,00000,,2020-08-21_18h56.51.192,CDT_GNG_IUS12,2020.1.2,Win32,60,,k,1,1.33565,0,64,64,8,1,,,,,,,,,,,,,,,,,,,,,,,,,,,,,,,,,,,,,,,,,,,,,,,,,
,,,,,,,,,,49,different,4,-0.16426754,-0.273779233,black,1,0.16426754,0.16426754,red,1,-0.273779233,0.16426754,yellow,1,0.054755847,-0.273779233,green,1,-0.273779233,-0.273779233,magenta,0,0.054755847,0.273779233,blue,0,0.05,0.05,0.15,0.054755847,-0.273779233,orange,l,00000,,2020-08-21_18h56.51.192,CDT_GNG_IUS12,2020.1.2,Win32,60,,l,1,1.036675,0,65,65,48,1,,,,,,,,,,,,,,,,,,,,,,,,,,,,,,,,,,,,,,,,,,,,,,,,,
,,,,,,,,,,72,same,6,0.273779233,-0.16426754,blue,1,0.16426754,0.273779233,yellow,1,-0.16426754,0.273779233,magenta,1,-0.273779233,-0.054755847,orange,1,0.054755847,-0.16426754,cyan,1,0.273779233,0.054755847,black,1,0.05,0.05,0.15,-0.16426754,0.273779233,magenta,k,00000,,2020-08-21_18h56.51.192,CDT_GNG_IUS12,2020.1.2,Win32,60,,l,0,1.304525,0,66,66,71,1,,,,,,,,,,,,,,,,,,,,,,,,,,,,,,,,,,,,,,,,,,,,,,,,,
,,,,,,,,,,88,same,6,0.054755847,0.054755847,orange,1,0.054755847,-0.273779233,red,1,-0.16426754,-0.16426754,magenta,1,-0.16426754,0.273779233,yellow,1,0.16426754,0.16426754,blue,1,0.273779233,-0.16426754,cyan,1,0.05,0.05,0.15,-0.16426754,0.273779233,yellow,k,00000,,2020-08-21_18h56.51.192,CDT_GNG_IUS12,2020.1.2,Win32,60,,k,1,0.885875,0,67,67,87,1,,,,,,,,,,,,,,,,,,,,,,,,,,,,,,,,,,,,,,,,,,,,,,,,,
,,,,,,,,,,74,same,6,-0.273779233,-0.273779233,magenta,1,0.16426754,0.054755847,cyan,1,-0.16426754,0.273779233,black,1,0.273779233,-0.054755847,yellow,1,-0.16426754,-0.16426754,red,1,0.054755847,0.273779233,green,1,0.05,0.05,0.15,-0.16426754,-0.16426754,red,k,00000,,2020-08-21_18h56.51.192,CDT_GNG_IUS12,2020.1.2,Win32,60,,l,0,1.43791,0,68,68,73,1,,,,,,,,,,,,,,,,,,,,,,,,,,,,,,,,,,,,,,,,,,,,,,,,,
,,,,,,,,,,84,same,6,-0.273779233,-0.16426754,black,1,0.273779233,0.273779233,blue,1,-0.054755847,0.054755847,red,1,0.16426754,-0.054755847,orange,1,-0.16426754,-0.16426754,cyan,1,0.16426754,0.16426754,magenta,1,0.05,0.05,0.15,-0.16426754,-0.16426754,cyan,k,00000,,2020-08-21_18h56.51.192,CDT_GNG_IUS12,2020.1.2,Win32,60,,k,1,0.7381,0,69,69,83,1,,,,,,,,,,,,,,,,,,,,,,,,,,,,,,,,,,,,,,,,,,,,,,,,,
,,,,,,,,,,91,different,6,-0.054755847,0.054755847,green,1,0.054755847,-0.16426754,cyan,1,-0.054755847,-0.054755847,black,1,0.16426754,0.273779233,yellow,1,-0.273779233,0.273779233,magenta,1,0.16426754,-0.054755847,red,1,0.05,0.05,0.15,0.16426754,-0.054755847,green,l,00000,,2020-08-21_18h56.51.192,CDT_GNG_IUS12,2020.1.2,Win32,60,,l,1,0.90715,0,70,70,90,1,,,,,,,,,,,,,,,,,,,,,,,,,,,,,,,,,,,,,,,,,,,,,,,,,
,,,,,,,,,,33,different,4,-0.273779233,0.273779233,yellow,1,0.16426754,-0.16426754,cyan,1,-0.273779233,-0.273779233,black,1,0.054755847,0.273779233,blue,1,-0.16426754,0.273779233,green,0,0.054755847,-0.273779233,orange,0,0.05,0.05,0.15,-0.273779233,-0.273779233,cyan,l,00000,,2020-08-21_18h56.51.192,CDT_GNG_IUS12,2020.1.2,Win32,60,,l,1,1.572035,0,71,71,32,1,,,,,,,,,,,,,,,,,,,,,,,,,,,,,,,,,,,,,,,,,,,,,,,,,
,,,,,,,,,,87,same,6,0.273779233,0.16426754,green,1,-0.16426754,-0.054755847,black,1,-0.054755847,0.054755847,cyan,1,0.273779233,-0.054755847,blue,1,0.054755847,0.054755847,yellow,1,-0.273779233,-0.273779233,red,1,0.05,0.05,0.15,-0.273779233,-0.273779233,red,k,00000,,2020-08-21_18h56.51.192,CDT_GNG_IUS12,2020.1.2,Win32,60,,k,1,0.82426,0,72,72,86,1,,,,,,,,,,,,,,,,,,,,,,,,,,,,,,,,,,,,,,,,,,,,,,,,,
,,,,,,,,,,43,different,4,-0.16426754,-0.054755847,red,1,0.273779233,0.054755847,cyan,1,-0.16426754,0.054755847,orange,1,0.054755847,-0.054755847,blue,1,-0.054755847,-0.273779233,magenta,0,0.273779233,0.273779233,yellow,0,0.05,0.05,0.15,-0.16426754,-0.054755847,yellow,l,00000,,2020-08-21_18h56.51.192,CDT_GNG_IUS12,2020.1.2,Win32,60,,l,1,0.83767,0,73,73,42,1,,,,,,,,,,,,,,,,,,,,,,,,,,,,,,,,,,,,,,,,,,,,,,,,,
,,,,,,,,,,51,different,4,-0.16426754,-0.273779233,yellow,1,0.16426754,-0.273779233,cyan,1,0.273779233,0.054755847,blue,1,-0.054755847,0.273779233,green,1,-0.16426754,-0.054755847,black,0,0.273779233,-0.273779233,red,0,0.05,0.05,0.15,0.16426754,-0.273779233,red,l,00000,,2020-08-21_18h56.51.192,CDT_GNG_IUS12,2020.1.2,Win32,60,,l,1,0.89731,0,74,74,50,1,,,,,,,,,,,,,,,,,,,,,,,,,,,,,,,,,,,,,,,,,,,,,,,,,
,,,,,,,,,,118,different,6,-0.16426754,-0.16426754,red,1,0.273779233,0.16426754,orange,1,-0.16426754,0.273779233,cyan,1,0.16426754,-0.273779233,black,1,-0.054755847,-0.054755847,yellow,1,0.054755847,0.054755847,green,1,0.05,0.05,0.15,-0.054755847,-0.054755847,magenta,l,00000,,2020-08-21_18h56.51.192,CDT_GNG_IUS12,2020.1.2,Win32,60,,l,1,0.853625,0,75,75,117,1,,,,,,,,,,,,,,,,,,,,,,,,,,,,,,,,,,,,,,,,,,,,,,,,,
,,,,,,,,,,30,same,4,0.16426754,0.16426754,blue,1,0.054755847,-0.054755847,green,1,-0.273779233,-0.16426754,black,1,-0.054755847,0.273779233,yellow,1,0.16426754,0.273779233,red,0,0.16426754,-0.16426754,magenta,0,0.05,0.05,0.15,0.054755847,-0.054755847,green,k,00000,,2020-08-21_18h56.51.192,CDT_GNG_IUS12,2020.1.2,Win32,60,,k,1,1.41323,0,76,76,29,1,,,,,,,,,,,,,,,,,,,,,,,,,,,,,,,,,,,,,,,,,,,,,,,,,
,,,,,,,,,,7,same,4,-0.16426754,-0.054755847,yellow,1,0.273779233,0.16426754,magenta,1,-0.16426754,0.054755847,cyan,1,0.054755847,-0.054755847,black,1,-0.054755847,-0.054755847,orange,0,0.273779233,0.273779233,blue,0,0.05,0.05,0.15,0.054755847,-0.054755847,black,k,00000,,2020-08-21_18h56.51.192,CDT_GNG_IUS12,2020.1.2,Win32,60,,k,1,1.20803,0,77,77,6,1,,,,,,,,,,,,,,,,,,,,,,,,,,,,,,,,,,,,,,,,,,,,,,,,,
,,,,,,,,,,45,different,4,0.054755847,0.16426754,blue,1,-0.054755847,-0.273779233,magenta,1,-0.16426754,0.16426754,black,1,0.054755847,-0.16426754,orange,1,0.273779233,0.273779233,green,0,-0.273779233,-0.16426754,cyan,0,0.05,0.05,0.15,-0.16426754,0.16426754,magenta,l,00000,,2020-08-21_18h56.51.192,CDT_GNG_IUS12,2020.1.2,Win32,60,,l,1,0.78975,0,78,78,44,1,,,,,,,,,,,,,,,,,,,,,,,,,,,,,,,,,,,,,,,,,,,,,,,,,
,,,,,,,,,,61,same,6,0.273779233,0.16426754,cyan,1,0.273779233,-0.273779233,blue,1,-0.16426754,-0.16426754,green,1,-0.16426754,0.273779233,black,1,0.16426754,0.054755847,red,1,0.273779233,-0.16426754,yellow,1,0.05,0.05,0.15,0.273779233,-0.16426754,yellow,k,00000,,2020-08-21_18h56.51.192,CDT_GNG_IUS12,2020.1.2,Win32,60,,l,0,1.163715,0,79,79,60,1,,,,,,,,,,,,,,,,,,,,,,,,,,,,,,,,,,,,,,,,,,,,,,,,,
,,,,,,,,,,31,different,4,-0.16426754,0.16426754,blue,1,0.16426754,-0.054755847,magenta,1,-0.16426754,-0.054755847,yellow,1,0.054755847,0.273779233,black,1,-0.273779233,0.054755847,red,0,0.273779233,-0.273779233,cyan,0,0.05,0.05,0.15,-0.16426754,-0.054755847,black,l,00000,,2020-08-21_18h56.51.192,CDT_GNG_IUS12,2020.1.2,Win32,60,,l,1,0.869875,0,80,80,30,1,,,,,,,,,,,,,,,,,,,,,,,,,,,,,,,,,,,,,,,,,,,,,,,,,
,,,,,,,,,,19,same,4,-0.054755847,-0.16426754,orange,1,-0.273779233,0.273779233,red,1,0.273779233,0.054755847,yellow,1,0.273779233,-0.16426754,magenta,1,-0.273779233,-0.054755847,black,0,-0.054755847,0.273779233,blue,0,0.05,0.05,0.15,0.273779233,-0.16426754,magenta,k,00000,,2020-08-21_18h56.51.192,CDT_GNG_IUS12,2020.1.2,Win32,60,,k,1,0.838525,0,81,81,18,1,,,,,,,,,,,,,,,,,,,,,,,,,,,,,,,,,,,,,,,,,,,,,,,,,
,,,,,,,,,,90,same,6,0.16426754,-0.054755847,black,1,-0.273779233,-0.054755847,orange,1,-0.16426754,0.16426754,cyan,1,0.273779233,0.273779233,blue,1,0.054755847,-0.054755847,magenta,1,-0.273779233,-0.273779233,yellow,1,0.05,0.05,0.15,-0.273779233,-0.054755847,orange,k,00000,,2020-08-21_18h56.51.192,CDT_GNG_IUS12,2020.1.2,Win32,60,,l,0,1.286635,0,82,82,89,1,,,,,,,,,,,,,,,,,,,,,,,,,,,,,,,,,,,,,,,,,,,,,,,,,
,,,,,,,,,,67,same,6,0.273779233,-0.054755847,magenta,1,0.16426754,0.273779233,orange,1,-0.273779233,0.273779233,cyan,1,-0.16426754,-0.054755847,yellow,1,0.16426754,-0.16426754,blue,1,0.16426754,0.16426754,red,1,0.05,0.05,0.15,-0.273779233,0.273779233,cyan,k,00000,,2020-08-21_18h56.51.192,CDT_GNG_IUS12,2020.1.2,Win32,60,,k,1,0.746205,0,83,83,66,1,,,,,,,,,,,,,,,,,,,,,,,,,,,,,,,,,,,,,,,,,,,,,,,,,
,,,,,,,,,,46,different,4,-0.16426754,0.273779233,yellow,1,-0.16426754,-0.16426754,green,1,0.16426754,0.054755847,black,1,0.273779233,-0.054755847,red,1,-0.16426754,0.16426754,blue,0,-0.273779233,-0.054755847,cyan,0,0.05,0.05,0.15,0.16426754,0.054755847,cyan,l,00000,,2020-08-21_18h56.51.192,CDT_GNG_IUS12,2020.1.2,Win32,60,,l,1,0.84166,0,84,84,45,1,,,,,,,,,,,,,,,,,,,,,,,,,,,,,,,,,,,,,,,,,,,,,,,,,
,,,,,,,,,,92,different,6,0.16426754,0.16426754,green,1,-0.054755847,-0.054755847,cyan,1,-0.054755847,0.054755847,red,1,0.16426754,-0.054755847,magenta,1,0.054755847,0.16426754,orange,1,-0.273779233,-0.16426754,yellow,1,0.05,0.05,0.15,0.16426754,0.16426754,cyan,l,00000,,2020-08-21_18h56.51.192,CDT_GNG_IUS12,2020.1.2,Win32,60,,l,1,0.79613,0,85,85,91,1,,,,,,,,,,,,,,,,,,,,,,,,,,,,,,,,,,,,,,,,,,,,,,,,,
,,,,,,,,,,65,same,6,-0.273779233,-0.16426754,cyan,1,-0.054755847,0.054755847,blue,1,0.054755847,-0.054755847,red,1,0.273779233,0.054755847,green,1,-0.16426754,-0.054755847,orange,1,-0.273779233,0.273779233,yellow,1,0.05,0.05,0.15,-0.273779233,-0.16426754,cyan,k,00000,,2020-08-21_18h56.51.192,CDT_GNG_IUS12,2020.1.2,Win32,60,,l,0,1.62656,0,86,86,64,1,,,,,,,,,,,,,,,,,,,,,,,,,,,,,,,,,,,,,,,,,,,,,,,,,
,,,,,,,,,,64,same,6,0.16426754,0.273779233,black,1,-0.16426754,-0.16426754,orange,1,0.16426754,-0.16426754,red,1,-0.273779233,0.054755847,magenta,1,0.054755847,0.16426754,cyan,1,-0.054755847,-0.16426754,yellow,1,0.05,0.05,0.15,0.16426754,0.273779233,black,k,00000,,2020-08-21_18h56.51.192,CDT_GNG_IUS12,2020.1.2,Win32,60,,k,1,1.2126,0,87,87,63,1,,,,,,,,,,,,,,,,,,,,,,,,,,,,,,,,,,,,,,,,,,,,,,,,,
,,,,,,,,,,35,different,4,-0.054755847,-0.054755847,black,1,0.054755847,0.273779233,magenta,1,-0.273779233,0.054755847,blue,1,0.273779233,-0.054755847,red,1,-0.054755847,-0.16426754,cyan,0,0.054755847,0.054755847,yellow,0,0.05,0.05,0.15,0.054755847,0.273779233,cyan,l,00000,,2020-08-21_18h56.51.192,CDT_GNG_IUS12,2020.1.2,Win32,60,,l,1,1.46858,0,88,88,34,1,,,,,,,,,,,,,,,,,,,,,,,,,,,,,,,,,,,,,,,,,,,,,,,,,
,,,,,,,,,,20,same,4,0.273779233,0.054755847,magenta,1,0.054755847,-0.273779233,black,1,-0.054755847,0.16426754,blue,1,-0.273779233,-0.054755847,orange,1,0.054755847,0.054755847,red,0,0.054755847,-0.054755847,cyan,0,0.05,0.05,0.15,-0.054755847,0.16426754,blue,k,00000,,2020-08-21_18h56.51.192,CDT_GNG_IUS12,2020.1.2,Win32,60,,k,1,0.686345,0,89,89,19,1,,,,,,,,,,,,,,,,,,,,,,,,,,,,,,,,,,,,,,,,,,,,,,,,,
,,,,,,,,,,40,different,4,-0.273779233,-0.273779233,magenta,1,0.054755847,-0.16426754,yellow,1,-0.16426754,0.054755847,red,1,0.273779233,0.273779233,orange,1,-0.054755847,-0.054755847,cyan,0,0.16426754,-0.16426754,green,0,0.05,0.05,0.15,0.273779233,0.273779233,black,l,00000,,2020-08-21_18h56.51.192,CDT_GNG_IUS12,2020.1.2,Win32,60,,l,1,1.0067,0,90,90,39,1,,,,,,,,,,,,,,,,,,,,,,,,,,,,,,,,,,,,,,,,,,,,,,,,,
,,,,,,,,,,50,different,4,-0.16426754,0.054755847,black,1,-0.273779233,-0.16426754,magenta,1,0.054755847,0.054755847,cyan,1,0.273779233,-0.16426754,green,1,-0.273779233,0.273779233,yellow,0,-0.16426754,-0.054755847,orange,0,0.05,0.05,0.15,-0.273779233,-0.16426754,yellow,l,00000,,2020-08-21_18h56.51.192,CDT_GNG_IUS12,2020.1.2,Win32,60,,l,1,0.96227,0,91,91,49,1,,,,,,,,,,,,,,,,,,,,,,,,,,,,,,,,,,,,,,,,,,,,,,,,,
,,,,,,,,,,114,different,6,-0.16426754,0.16426754,black,1,-0.054755847,-0.273779233,orange,1,0.054755847,0.16426754,magenta,1,0.273779233,-0.16426754,green,1,-0.054755847,0.16426754,cyan,1,-0.273779233,-0.273779233,yellow,1,0.05,0.05,0.15,0.054755847,0.16426754,blue,l,00000,,2020-08-21_18h56.51.192,CDT_GNG_IUS12,2020.1.2,Win32,60,,l,1,0.976315,0,92,92,113,1,,,,,,,,,,,,,,,,,,,,,,,,,,,,,,,,,,,,,,,,,,,,,,,,,
,,,,,,,,,,42,different,4,0.273779233,0.16426754,cyan,1,-0.054755847,0.16426754,magenta,1,0.16426754,-0.054755847,green,1,-0.16426754,-0.16426754,red,1,0.16426754,0.273779233,black,0,-0.054755847,0.273779233,yellow,0,0.05,0.05,0.15,0.273779233,0.16426754,blue,l,00000,,2020-08-21_18h56.51.192,CDT_GNG_IUS12,2020.1.2,Win32,60,,l,1,0.862725,0,93,93,41,1,,,,,,,,,,,,,,,,,,,,,,,,,,,,,,,,,,,,,,,,,,,,,,,,,
,,,,,,,,,,26,same,4,0.16426754,-0.16426754,green,1,-0.054755847,0.16426754,yellow,1,-0.273779233,-0.16426754,black,1,0.054755847,0.054755847,red,1,0.16426754,-0.054755847,cyan,0,-0.273779233,0.273779233,magenta,0,0.05,0.05,0.15,-0.054755847,0.16426754,yellow,k,00000,,2020-08-21_18h56.51.192,CDT_GNG_IUS12,2020.1.2,Win32,60,,k,1,0.6414,0,94,94,25,1,,,,,,,,,,,,,,,,,,,,,,,,,,,,,,,,,,,,,,,,,,,,,,,,,
,,,,,,,,,,81,same,6,-0.273779233,-0.273779233,green,1,-0.273779233,0.16426754,blue,1,0.054755847,-0.16426754,black,1,0.273779233,0.054755847,cyan,1,-0.16426754,-0.273779233,orange,1,-0.054755847,0.054755847,red,1,0.05,0.05,0.15,0.054755847,-0.16426754,black,k,00000,,2020-08-21_18h56.51.192,CDT_GNG_IUS12,2020.1.2,Win32,60,,k,1,0.908875,0,95,95,80,1,,,,,,,,,,,,,,,,,,,,,,,,,,,,,,,,,,,,,,,,,,,,,,,,,
,,,,,,,,,,27,same,4,-0.273779233,0.054755847,blue,1,-0.16426754,-0.16426754,black,1,0.16426754,-0.273779233,cyan,1,0.273779233,0.054755847,red,1,-0.054755847,0.273779233,magenta,0,-0.054755847,-0.273779233,yellow,0,0.05,0.05,0.15,0.273779233,0.054755847,red,k,00000,,2020-08-21_18h56.51.192,CDT_GNG_IUS12,2020.1.2,Win32,60,,l,0,1.509985,0,96,96,26,1,,,,,,,,,,,,,,,,,,,,,,,,,,,,,,,,,,,,,,,,,,,,,,,,,
,,,,,,,,,,44,different,4,0.16426754,0.16426754,green,1,0.16426754,-0.16426754,black,1,-0.16426754,-0.054755847,cyan,1,-0.16426754,0.054755847,magenta,1,0.16426754,0.054755847,blue,0,0.054755847,-0.273779233,yellow,0,0.05,0.05,0.15,0.16426754,0.16426754,red,l,00000,,2020-08-21_18h56.51.192,CDT_GNG_IUS12,2020.1.2,Win32,60,,l,1,0.7861,0,97,97,43,1,,,,,,,,,,,,,,,,,,,,,,,,,,,,,,,,,,,,,,,,,,,,,,,,,
,,,,,,,,,,18,same,4,-0.054755847,0.273779233,black,1,-0.16426754,-0.16426754,cyan,1,0.054755847,0.16426754,red,1,0.273779233,-0.273779233,magenta,1,-0.16426754,0.273779233,orange,0,-0.054755847,-0.273779233,green,0,0.05,0.05,0.15,0.273779233,-0.273779233,magenta,k,00000,,2020-08-21_18h56.51.192,CDT_GNG_IUS12,2020.1.2,Win32,60,,k,1,0.931495,0,98,98,17,1,,,,,,,,,,,,,,,,,,,,,,,,,,,,,,,,,,,,,,,,,,,,,,,,,
,,,,,,,,,,66,same,6,0.273779233,-0.273779233,cyan,1,-0.273779233,-0.054755847,black,1,-0.273779233,0.054755847,yellow,1,0.273779233,0.16426754,green,1,0.054755847,-0.16426754,orange,1,-0.273779233,-0.16426754,magenta,1,0.05,0.05,0.15,0.273779233,0.16426754,green,k,00000,,2020-08-21_18h56.51.192,CDT_GNG_IUS12,2020.1.2,Win32,60,,l,0,1.739065,0,99,99,65,1,,,,,,,,,,,,,,,,,,,,,,,,,,,,,,,,,,,,,,,,,,,,,,,,,
,,,,,,,,,,23,same,4,0.273779233,-0.16426754,yellow,1,0.054755847,0.273779233,red,1,-0.054755847,0.054755847,black,1,-0.273779233,-0.054755847,orange,1,0.273779233,-0.054755847,green,0,0.273779233,0.054755847,magenta,0,0.05,0.05,0.15,-0.054755847,0.054755847,black,k,00000,,2020-08-21_18h56.51.192,CDT_GNG_IUS12,2020.1.2,Win32,60,,k,1,0.854355,0,100,100,22,1,,,,,,,,,,,,,,,,,,,,,,,,,,,,,,,,,,,,,,,,,,,,,,,,,
,,,,,,,,,,115,different,6,-0.16426754,0.273779233,magenta,1,-0.273779233,-0.054755847,blue,1,0.273779233,0.273779233,red,1,0.054755847,-0.273779233,cyan,1,-0.054755847,0.16426754,green,1,-0.273779233,-0.273779233,yellow,1,0.05,0.05,0.15,-0.273779233,-0.054755847,yellow,l,00000,,2020-08-21_18h56.51.192,CDT_GNG_IUS12,2020.1.2,Win32,60,,l,1,1.237775,0,101,101,114,1,,,,,,,,,,,,,,,,,,,,,,,,,,,,,,,,,,,,,,,,,,,,,,,,,
,,,,,,,,,,98,different,6,-0.054755847,-0.16426754,magenta,1,0.273779233,0.273779233,green,1,0.273779233,-0.273779233,red,1,-0.16426754,0.273779233,blue,1,-0.273779233,-0.16426754,cyan,1,0.273779233,0.054755847,black,1,0.05,0.05,0.15,-0.16426754,0.273779233,cyan,l,00000,,2020-08-21_18h56.51.192,CDT_GNG_IUS12,2020.1.2,Win32,60,,l,1,0.820615,0,102,102,97,1,,,,,,,,,,,,,,,,,,,,,,,,,,,,,,,,,,,,,,,,,,,,,,,,,
,,,,,,,,,,97,different,6,-0.273779233,-0.273779233,orange,1,0.054755847,-0.273779233,blue,1,0.16426754,0.16426754,green,1,-0.16426754,0.054755847,cyan,1,-0.16426754,-0.16426754,black,1,0.273779233,-0.16426754,yellow,1,0.05,0.05,0.15,-0.16426754,0.054755847,yellow,l,00000,,2020-08-21_18h56.51.192,CDT_GNG_IUS12,2020.1.2,Win32,60,,l,1,0.85884,0,103,103,96,1,,,,,,,,,,,,,,,,,,,,,,,,,,,,,,,,,,,,,,,,,,,,,,,,,
,,,,,,,,,,96,different,6,-0.16426754,-0.16426754,green,1,-0.16426754,0.054755847,black,1,0.054755847,0.16426754,cyan,1,0.16426754,-0.273779233,yellow,1,-0.273779233,-0.273779233,blue,1,-0.054755847,0.054755847,red,1,0.05,0.05,0.15,-0.16426754,0.054755847,magenta,l,00000,,2020-08-21_18h56.51.192,CDT_GNG_IUS12,2020.1.2,Win32,60,,l,1,0.743135,0,104,104,95,1,,,,,,,,,,,,,,,,,,,,,,,,,,,,,,,,,,,,,,,,,,,,,,,,,
,,,,,,,,,,5,same,4,0.273779233,-0.054755847,green,1,0.273779233,0.054755847,orange,1,-0.054755847,0.054755847,black,1,-0.054755847,-0.16426754,blue,1,0.054755847,-0.054755847,cyan,0,0.054755847,0.273779233,red,0,0.05,0.05,0.15,-0.054755847,-0.16426754,blue,k,00000,,2020-08-21_18h56.51.192,CDT_GNG_IUS12,2020.1.2,Win32,60,,k,1,0.829805,0,105,105,4,1,,,,,,,,,,,,,,,,,,,,,,,,,,,,,,,,,,,,,,,,,,,,,,,,,
,,,,,,,,,,76,same,6,0.16426754,0.054755847,cyan,1,0.273779233,-0.273779233,red,1,-0.054755847,-0.273779233,magenta,1,-0.054755847,0.16426754,yellow,1,0.054755847,0.273779233,blue,1,0.054755847,-0.273779233,green,1,0.05,0.05,0.15,0.16426754,0.054755847,cyan,k,00000,,2020-08-21_18h56.51.192,CDT_GNG_IUS12,2020.1.2,Win32,60,,l,0,1.442415,0,106,106,75,1,,,,,,,,,,,,,,,,,,,,,,,,,,,,,,,,,,,,,,,,,,,,,,,,,
,,,,,,,,,,100,different,6,0.273779233,0.16426754,blue,1,-0.054755847,0.054755847,magenta,1,-0.273779233,-0.054755847,orange,1,0.273779233,-0.273779233,red,1,0.16426754,0.054755847,green,1,-0.273779233,0.054755847,yellow,1,0.05,0.05,0.15,0.273779233,0.16426754,orange,l,00000,,2020-08-21_18h56.51.192,CDT_GNG_IUS12,2020.1.2,Win32,60,,k,0,1.22792,0,107,107,99,1,,,,,,,,,,,,,,,,,,,,,,,,,,,,,,,,,,,,,,,,,,,,,,,,,
,,,,,,,,,,106,different,6,0.054755847,-0.16426754,blue,1,-0.273779233,-0.273779233,magenta,1,0.273779233,0.273779233,yellow,1,-0.273779233,0.054755847,orange,1,0.054755847,-0.054755847,green,1,-0.054755847,-0.16426754,black,1,0.05,0.05,0.15,0.054755847,-0.054755847,cyan,l,00000,,2020-08-21_18h56.51.192,CDT_GNG_IUS12,2020.1.2,Win32,60,,l,1,0.74519,0,108,108,105,1,,,,,,,,,,,,,,,,,,,,,,,,,,,,,,,,,,,,,,,,,,,,,,,,,
,,,,,,,,,,120,different,6,0.16426754,-0.054755847,blue,1,-0.16426754,-0.273779233,cyan,1,0.16426754,0.16426754,magenta,1,-0.273779233,0.273779233,black,1,0.273779233,-0.16426754,green,1,-0.273779233,-0.16426754,orange,1,0.05,0.05,0.15,0.16426754,0.16426754,yellow,l,00000,,2020-08-21_18h56.51.192,CDT_GNG_IUS12,2020.1.2,Win32,60,,k,0,1.424595,0,109,109,119,1,,,,,,,,,,,,,,,,,,,,,,,,,,,,,,,,,,,,,,,,,,,,,,,,,
,,,,,,,,,,68,same,6,0.16426754,-0.054755847,blue,1,-0.054755847,-0.16426754,orange,1,-0.16426754,0.054755847,red,1,0.16426754,0.273779233,magenta,1,0.054755847,-0.054755847,black,1,-0.273779233,-0.273779233,yellow,1,0.05,0.05,0.15,-0.054755847,-0.16426754,orange,k,00000,,2020-08-21_18h56.51.192,CDT_GNG_IUS12,2020.1.2,Win32,60,,k,1,0.94052,0,110,110,67,1,,,,,,,,,,,,,,,,,,,,,,,,,,,,,,,,,,,,,,,,,,,,,,,,,
,,,,,,,,,,111,different,6,0.273779233,0.273779233,green,1,0.054755847,-0.16426754,red,1,-0.16426754,-0.16426754,black,1,-0.16426754,0.16426754,magenta,1,0.054755847,0.054755847,blue,1,0.273779233,-0.16426754,yellow,1,0.05,0.05,0.15,0.273779233,-0.16426754,green,l,00000,,2020-08-21_18h56.51.192,CDT_GNG_IUS12,2020.1.2,Win32,60,,l,1,0.952945,0,111,111,110,1,,,,,,,,,,,,,,,,,,,,,,,,,,,,,,,,,,,,,,,,,,,,,,,,,
,,,,,,,,,,48,different,4,0.16426754,0.273779233,cyan,1,-0.054755847,-0.273779233,magenta,1,0.16426754,-0.054755847,orange,1,-0.273779233,0.273779233,blue,1,0.273779233,0.16426754,red,0,-0.054755847,-0.16426754,green,0,0.05,0.05,0.15,0.16426754,-0.054755847,red,l,00000,,2020-08-21_18h56.51.192,CDT_GNG_IUS12,2020.1.2,Win32,60,,l,1,0.87445,0,112,112,47,1,,,,,,,,,,,,,,,,,,,,,,,,,,,,,,,,,,,,,,,,,,,,,,,,,
,,,,,,,,,,1,same,4,-0.16426754,-0.273779233,orange,1,0.054755847,0.16426754,yellow,1,-0.16426754,0.16426754,green,1,0.054755847,-0.054755847,red,1,-0.273779233,-0.16426754,cyan,0,0.16426754,0.16426754,blue,0,0.05,0.05,0.15,0.054755847,0.16426754,yellow,k,00000,,2020-08-21_18h56.51.192,CDT_GNG_IUS12,2020.1.2,Win32,60,,k,1,0.755565,0,113,113,0,1,,,,,,,,,,,,,,,,,,,,,,,,,,,,,,,,,,,,,,,,,,,,,,,,,
,,,,,,,,,,8,same,4,0.16426754,-0.16426754,blue,1,-0.16426754,-0.054755847,red,1,-0.273779233,0.16426754,green,1,0.054755847,0.054755847,cyan,1,0.16426754,-0.273779233,magenta,0,-0.054755847,-0.054755847,orange,0,0.05,0.05,0.15,-0.273779233,0.16426754,green,k,00000,,2020-08-21_18h56.51.192,CDT_GNG_IUS12,2020.1.2,Win32,60,,k,1,4.163215,0,114,114,7,1,,,,,,,,,,,,,,,,,,,,,,,,,,,,,,,,,,,,,,,,,,,,,,,,,
,,,,,,,,,,86,same,6,0.054755847,0.273779233,green,1,-0.054755847,0.273779233,red,1,0.16426754,-0.16426754,yellow,1,-0.054755847,-0.273779233,black,1,0.273779233,0.273779233,cyan,1,-0.273779233,0.054755847,orange,1,0.05,0.05,0.15,-0.273779233,0.054755847,orange,k,00000,,2020-08-21_18h56.51.192,CDT_GNG_IUS12,2020.1.2,Win32,60,,l,0,2.485235,0,115,115,85,1,,,,,,,,,,,,,,,,,,,,,,,,,,,,,,,,,,,,,,,,,,,,,,,,,
,,,,,,,,,,71,same,6,-0.054755847,-0.16426754,orange,1,0.273779233,0.054755847,green,1,0.16426754,-0.16426754,yellow,1,-0.054755847,0.054755847,blue,1,-0.054755847,-0.273779233,black,1,0.054755847,0.16426754,cyan,1,0.05,0.05,0.15,-0.054755847,0.054755847,blue,k,00000,,2020-08-21_18h56.51.192,CDT_GNG_IUS12,2020.1.2,Win32,60,,k,1,0.995345,0,116,116,70,1,,,,,,,,,,,,,,,,,,,,,,,,,,,,,,,,,,,,,,,,,,,,,,,,,
,,,,,,,,,,95,different,6,-0.273779233,-0.16426754,magenta,1,0.16426754,0.273779233,green,1,-0.273779233,0.273779233,black,1,0.16426754,-0.273779233,orange,1,-0.054755847,-0.16426754,blue,1,0.16426754,0.054755847,cyan,1,0.05,0.05,0.15,0.16426754,0.273779233,black,l,00000,,2020-08-21_18h56.51.192,CDT_GNG_IUS12,2020.1.2,Win32,60,,l,1,1.33885,0,117,117,94,1,,,,,,,,,,,,,,,,,,,,,,,,,,,,,,,,,,,,,,,,,,,,,,,,,
,,,,,,,,,,37,different,4,0.273779233,-0.273779233,cyan,1,-0.054755847,0.054755847,orange,1,-0.054755847,-0.16426754,yellow,1,0.16426754,0.054755847,blue,1,0.054755847,-0.273779233,red,0,-0.273779233,0.16426754,green,0,0.05,0.05,0.15,-0.054755847,0.054755847,green,l,00000,,2020-08-21_18h56.51.192,CDT_GNG_IUS12,2020.1.2,Win32,60,,l,1,0.77637,0,118,118,36,1,,,,,,,,,,,,,,,,,,,,,,,,,,,,,,,,,,,,,,,,,,,,,,,,,
,,,,,,,,,,2,same,4,0.273779233,0.054755847,magenta,1,-0.273779233,0.273779233,red,1,-0.054755847,-0.054755847,yellow,1,0.273779233,-0.273779233,blue,1,0.054755847,0.16426754,green,0,-0.16426754,0.054755847,cyan,0,0.05,0.05,0.15,0.273779233,-0.273779233,blue,k,00000,,2020-08-21_18h56.51.192,CDT_GNG_IUS12,2020.1.2,Win32,60,,k,1,0.92667,0,119,119,1,1,,,,,,,,,,,,,,,,,,,,,,,,,,,,,,,,,,,,,,,,,,,,,,,,,
,,,,,,,,,,,,,,,,,,,,,,,,,,,,,,,,,,,,,,,,,,,,00000,,2020-08-21_18h56.51.192,CDT_GNG_IUS12,2020.1.2,Win32,60,,,,,,,,,,,,1,0,0,0,1,1,1,0,,,,,,,,,,,,,,,,,,,,,,,,,,,,,,,,,,,,,,,
,,,,,,,,,,,,,,,,,,,,,,,,,,,,,,,,,,,,,,,,,,,space,00000,,2020-08-21_18h56.51.192,CDT_GNG_IUS12,2020.1.2,Win32,60,,,,,,,,,,,space,1,0,1,1,7,1,0,1,0.4187,,,,,,,,,,,,,,,,,,,,,,,,,,,,,,,,,,,,,,
,,,,,,,,,,,,,,,,,,,,,,,,,,,,,,,,,,,,,,,,,,,space,00000,,2020-08-21_18h56.51.192,CDT_GNG_IUS12,2020.1.2,Win32,60,,,,,,,,,,,space,1,0,2,2,4,1,0,1,0.439205,,,,,,,,,,,,,,,,,,,,,,,,,,,,,,,,,,,,,,
,,,,,,,,,,,,,,,,,,,,,,,,,,,,,,,,,,,,,,,,,,,space,00000,,2020-08-21_18h56.51.192,CDT_GNG_IUS12,2020.1.2,Win32,60,,,,,,,,,,,space,1,0,3,3,6,1,0,1,0.44386,,,,,,,,,,,,,,,,,,,,,,,,,,,,,,,,,,,,,,
,,,,,,,,,,,,,,,,,,,,,,,,,,,,,,,,,,,,,,,,,,,,00000,,2020-08-21_18h56.51.192,CDT_GNG_IUS12,2020.1.2,Win32,60,,,,,,,,,,,,1,0,4,4,0,1,1,0,,,,,,,,,,,,,,,,,,,,,,,,,,,,,,,,,,,,,,,
,,,,,,,,,,,,,,,,,,,,,,,,,,,,,,,,,,,,,,,,,,,space,00000,,2020-08-21_18h56.51.192,CDT_GNG_IUS12,2020.1.2,Win32,60,,,,,,,,,,,space,1,0,5,5,5,1,0,1,0.304835,,,,,,,,,,,,,,,,,,,,,,,,,,,,,,,,,,,,,,
,,,,,,,,,,,,,,,,,,,,,,,,,,,,,,,,,,,,,,,,,,,,00000,,2020-08-21_18h56.51.192,CDT_GNG_IUS12,2020.1.2,Win32,60,,,,,,,,,,,,1,0,6,6,2,1,1,0,,,,,,,,,,,,,,,,,,,,,,,,,,,,,,,,,,,,,,,
,,,,,,,,,,,,,,,,,,,,,,,,,,,,,,,,,,,,,,,,,,,,00000,,2020-08-21_18h56.51.192,CDT_GNG_IUS12,2020.1.2,Win32,60,,,,,,,,,,,,1,0,7,7,3,1,1,0,,,,,,,,,,,,,,,,,,,,,,,,,,,,,,,,,,,,,,,
,,,,,,,,,,,,,,,,,,,,,,,,,,,,,,,,,,,,,,,,,,,space,00000,,2020-08-21_18h56.51.192,CDT_GNG_IUS12,2020.1.2,Win32,60,,,,,,,,,,,,,,,,,,0,1,,space,1,0.3587,0,0,0,22,1,,,,,,,,,,,,,,,,,,,,,,,,,,,,,,
,,,,,,,,,,,,,,,,,,,,,,,,,,,,,,,,,,,,,,,,,,,space,00000,,2020-08-21_18h56.51.192,CDT_GNG_IUS12,2020.1.2,Win32,60,,,,,,,,,,,,,,,,,,0,1,,space,1,0.55127,0,1,1,21,1,,,,,,,,,,,,,,,,,,,,,,,,,,,,,,
,,,,,,,,,,,,,,,,,,,,,,,,,,,,,,,,,,,,,,,,,,,space,00000,,2020-08-21_18h56.51.192,CDT_GNG_IUS12,2020.1.2,Win32,60,,,,,,,,,,,,,,,,,,0,1,,space,1,0.42806,0,2,2,46,1,,,,,,,,,,,,,,,,,,,,,,,,,,,,,,
,,,,,,,,,,,,,,,,,,,,,,,,,,,,,,,,,,,,,,,,,,,space,00000,,2020-08-21_18h56.51.192,CDT_GNG_IUS12,2020.1.2,Win32,60,,,,,,,,,,,,,,,,,,0,1,,space,1,0.3805,0,3,3,24,1,,,,,,,,,,,,,,,,,,,,,,,,,,,,,,
,,,,,,,,,,,,,,,,,,,,,,,,,,,,,,,,,,,,,,,,,,,space,00000,,2020-08-21_18h56.51.192,CDT_GNG_IUS12,2020.1.2,Win32,60,,,,,,,,,,,,,,,,,,0,1,,space,1,0.37278,0,4,4,16,1,,,,,,,,,,,,,,,,,,,,,,,,,,,,,,
,,,,,,,,,,,,,,,,,,,,,,,,,,,,,,,,,,,,,,,,,,,space,00000,,2020-08-21_18h56.51.192,CDT_GNG_IUS12,2020.1.2,Win32,60,,,,,,,,,,,,,,,,,,0,1,,space,1,0.33971,0,5,5,26,1,,,,,,,,,,,,,,,,,,,,,,,,,,,,,,
,,,,,,,,,,,,,,,,,,,,,,,,,,,,,,,,,,,,,,,,,,,,00000,,2020-08-21_18h56.51.192,CDT_GNG_IUS12,2020.1.2,Win32,60,,,,,,,,,,,,,,,,,,1,0,,,1,,0,6,6,9,1,,,,,,,,,,,,,,,,,,,,,,,,,,,,,,
,,,,,,,,,,,,,,,,,,,,,,,,,,,,,,,,,,,,,,,,,,,space,00000,,2020-08-21_18h56.51.192,CDT_GNG_IUS12,2020.1.2,Win32,60,,,,,,,,,,,,,,,,,,0,1,,space,1,0.133855,0,7,7,20,1,,,,,,,,,,,,,,,,,,,,,,,,,,,,,,
,,,,,,,,,,,,,,,,,,,,,,,,,,,,,,,,,,,,,,,,,,,,00000,,2020-08-21_18h56.51.192,CDT_GNG_IUS12,2020.1.2,Win32,60,,,,,,,,,,,,,,,,,,1,0,,space,0,0.260005,0,8,8,5,1,,,,,,,,,,,,,,,,,,,,,,,,,,,,,,
,,,,,,,,,,,,,,,,,,,,,,,,,,,,,,,,,,,,,,,,,,,space,00000,,2020-08-21_18h56.51.192,CDT_GNG_IUS12,2020.1.2,Win32,60,,,,,,,,,,,,,,,,,,0,1,,,0,,0,9,9,33,1,,,,,,,,,,,,,,,,,,,,,,,,,,,,,,
,,,,,,,,,,,,,,,,,,,,,,,,,,,,,,,,,,,,,,,,,,,space,00000,,2020-08-21_18h56.51.192,CDT_GNG_IUS12,2020.1.2,Win32,60,,,,,,,,,,,,,,,,,,0,1,,,0,,0,10,10,32,1,,,,,,,,,,,,,,,,,,,,,,,,,,,,,,
,,,,,,,,,,,,,,,,,,,,,,,,,,,,,,,,,,,,,,,,,,,space,00000,,2020-08-21_18h56.51.192,CDT_GNG_IUS12,2020.1.2,Win32,60,,,,,,,,,,,,,,,,,,0,1,,space,1,0.15646,0,11,11,43,1,,,,,,,,,,,,,,,,,,,,,,,,,,,,,,
,,,,,,,,,,,,,,,,,,,,,,,,,,,,,,,,,,,,,,,,,,,space,00000,,2020-08-21_18h56.51.192,CDT_GNG_IUS12,2020.1.2,Win32,60,,,,,,,,,,,,,,,,,,0,1,,space,1,0.335255,0,12,12,19,1,,,,,,,,,,,,,,,,,,,,,,,,,,,,,,
,,,,,,,,,,,,,,,,,,,,,,,,,,,,,,,,,,,,,,,,,,,space,00000,,2020-08-21_18h56.51.192,CDT_GNG_IUS12,2020.1.2,Win32,60,,,,,,,,,,,,,,,,,,0,1,,space,1,0.31886,0,13,13,13,1,,,,,,,,,,,,,,,,,,,,,,,,,,,,,,
,,,,,,,,,,,,,,,,,,,,,,,,,,,,,,,,,,,,,,,,,,,space,00000,,2020-08-21_18h56.51.192,CDT_GNG_IUS12,2020.1.2,Win32,60,,,,,,,,,,,,,,,,,,0,1,,space,1,0.21215,0,14,14,44,1,,,,,,,,,,,,,,,,,,,,,,,,,,,,,,
,,,,,,,,,,,,,,,,,,,,,,,,,,,,,,,,,,,,,,,,,,,space,00000,,2020-08-21_18h56.51.192,CDT_GNG_IUS12,2020.1.2,Win32,60,,,,,,,,,,,,,,,,,,0,1,,space,1,0.308195,0,15,15,14,1,,,,,,,,,,,,,,,,,,,,,,,,,,,,,,
,,,,,,,,,,,,,,,,,,,,,,,,,,,,,,,,,,,,,,,,,,,space,00000,,2020-08-21_18h56.51.192,CDT_GNG_IUS12,2020.1.2,Win32,60,,,,,,,,,,,,,,,,,,0,1,,space,1,0.341615,0,16,16,29,1,,,,,,,,,,,,,,,,,,,,,,,,,,,,,,
,,,,,,,,,,,,,,,,,,,,,,,,,,,,,,,,,,,,,,,,,,,,00000,,2020-08-21_18h56.51.192,CDT_GNG_IUS12,2020.1.2,Win32,60,,,,,,,,,,,,,,,,,,1,0,,,1,,0,17,17,1,1,,,,,,,,,,,,,,,,,,,,,,,,,,,,,,
,,,,,,,,,,,,,,,,,,,,,,,,,,,,,,,,,,,,,,,,,,,space,00000,,2020-08-21_18h56.51.192,CDT_GNG_IUS12,2020.1.2,Win32,60,,,,,,,,,,,,,,,,,,0,1,,,0,,0,18,18,35,1,,,,,,,,,,,,,,,,,,,,,,,,,,,,,,
,,,,,,,,,,,,,,,,,,,,,,,,,,,,,,,,,,,,,,,,,,,,00000,,2020-08-21_18h56.51.192,CDT_GNG_IUS12,2020.1.2,Win32,60,,,,,,,,,,,,,,,,,,1,0,,space,0,0.27489,0,19,19,3,1,,,,,,,,,,,,,,,,,,,,,,,,,,,,,,
,,,,,,,,,,,,,,,,,,,,,,,,,,,,,,,,,,,,,,,,,,,space,00000,,2020-08-21_18h56.51.192,CDT_GNG_IUS12,2020.1.2,Win32,60,,,,,,,,,,,,,,,,,,0,1,,,0,,0,20,20,48,1,,,,,,,,,,,,,,,,,,,,,,,,,,,,,,
,,,,,,,,,,,,,,,,,,,,,,,,,,,,,,,,,,,,,,,,,,,space,00000,,2020-08-21_18h56.51.192,CDT_GNG_IUS12,2020.1.2,Win32,60,,,,,,,,,,,,,,,,,,0,1,,space,1,0.243945,0,21,21,38,1,,,,,,,,,,,,,,,,,,,,,,,,,,,,,,
,,,,,,,,,,,,,,,,,,,,,,,,,,,,,,,,,,,,,,,,,,,space,00000,,2020-08-21_18h56.51.192,CDT_GNG_IUS12,2020.1.2,Win32,60,,,,,,,,,,,,,,,,,,0,1,,space,1,0.136695,0,22,22,12,1,,,,,,,,,,,,,,,,,,,,,,,,,,,,,,
,,,,,,,,,,,,,,,,,,,,,,,,,,,,,,,,,,,,,,,,,,,,00000,,2020-08-21_18h56.51.192,CDT_GNG_IUS12,2020.1.2,Win32,60,,,,,,,,,,,,,,,,,,1,0,,space,0,0.00563,0,23,23,8,1,,,,,,,,,,,,,,,,,,,,,,,,,,,,,,
,,,,,,,,,,,,,,,,,,,,,,,,,,,,,,,,,,,,,,,,,,,space,00000,,2020-08-21_18h56.51.192,CDT_GNG_IUS12,2020.1.2,Win32,60,,,,,,,,,,,,,,,,,,0,1,,space,1,0.103525,0,24,24,37,1,,,,,,,,,,,,,,,,,,,,,,,,,,,,,,
,,,,,,,,,,,,,,,,,,,,,,,,,,,,,,,,,,,,,,,,,,,space,00000,,2020-08-21_18h56.51.192,CDT_GNG_IUS12,2020.1.2,Win32,60,,,,,,,,,,,,,,,,,,0,1,,space,1,0.29377,0,25,25,42,1,,,,,,,,,,,,,,,,,,,,,,,,,,,,,,
,,,,,,,,,,,,,,,,,,,,,,,,,,,,,,,,,,,,,,,,,,,space,00000,,2020-08-21_18h56.51.192,CDT_GNG_IUS12,2020.1.2,Win32,60,,,,,,,,,,,,,,,,,,0,1,,space,1,0.29992,0,26,26,31,1,,,,,,,,,,,,,,,,,,,,,,,,,,,,,,
,,,,,,,,,,,,,,,,,,,,,,,,,,,,,,,,,,,,,,,,,,,space,00000,,2020-08-21_18h56.51.192,CDT_GNG_IUS12,2020.1.2,Win32,60,,,,,,,,,,,,,,,,,,0,1,,space,1,0.334885,0,27,27,41,1,,,,,,,,,,,,,,,,,,,,,,,,,,,,,,
,,,,,,,,,,,,,,,,,,,,,,,,,,,,,,,,,,,,,,,,,,,,00000,,2020-08-21_18h56.51.192,CDT_GNG_IUS12,2020.1.2,Win32,60,,,,,,,,,,,,,,,,,,1,0,,space,0,0.567615,0,28,28,6,1,,,,,,,,,,,,,,,,,,,,,,,,,,,,,,
,,,,,,,,,,,,,,,,,,,,,,,,,,,,,,,,,,,,,,,,,,,space,00000,,2020-08-21_18h56.51.192,CDT_GNG_IUS12,2020.1.2,Win32,60,,,,,,,,,,,,,,,,,,0,1,,,0,,0,29,29,40,1,,,,,,,,,,,,,,,,,,,,,,,,,,,,,,
,,,,,,,,,,,,,,,,,,,,,,,,,,,,,,,,,,,,,,,,,,,space,00000,,2020-08-21_18h56.51.192,CDT_GNG_IUS12,2020.1.2,Win32,60,,,,,,,,,,,,,,,,,,0,1,,space,1,0.28486,0,30,30,36,1,,,,,,,,,,,,,,,,,,,,,,,,,,,,,,
,,,,,,,,,,,,,,,,,,,,,,,,,,,,,,,,,,,,,,,,,,,space,00000,,2020-08-21_18h56.51.192,CDT_GNG_IUS12,2020.1.2,Win32,60,,,,,,,,,,,,,,,,,,0,1,,space,1,0.285155,0,31,31,49,1,,,,,,,,,,,,,,,,,,,,,,,,,,,,,,
,,,,,,,,,,,,,,,,,,,,,,,,,,,,,,,,,,,,,,,,,,,,00000,,2020-08-21_18h56.51.192,CDT_GNG_IUS12,2020.1.2,Win32,60,,,,,,,,,,,,,,,,,,1,0,,space,0,0.287075,0,32,32,4,1,,,,,,,,,,,,,,,,,,,,,,,,,,,,,,
,,,,,,,,,,,,,,,,,,,,,,,,,,,,,,,,,,,,,,,,,,,space,00000,,2020-08-21_18h56.51.192,CDT_GNG_IUS12,2020.1.2,Win32,60,,,,,,,,,,,,,,,,,,0,1,,,0,,0,33,33,27,1,,,,,,,,,,,,,,,,,,,,,,,,,,,,,,
,,,,,,,,,,,,,,,,,,,,,,,,,,,,,,,,,,,,,,,,,,,space,00000,,2020-08-21_18h56.51.192,CDT_GNG_IUS12,2020.1.2,Win32,60,,,,,,,,,,,,,,,,,,0,1,,space,1,0.356405,0,34,34,34,1,,,,,,,,,,,,,,,,,,,,,,,,,,,,,,
,,,,,,,,,,,,,,,,,,,,,,,,,,,,,,,,,,,,,,,,,,,,00000,,2020-08-21_18h56.51.192,CDT_GNG_IUS12,2020.1.2,Win32,60,,,,,,,,,,,,,,,,,,1,0,,,1,,0,35,35,2,1,,,,,,,,,,,,,,,,,,,,,,,,,,,,,,
,,,,,,,,,,,,,,,,,,,,,,,,,,,,,,,,,,,,,,,,,,,space,00000,,2020-08-21_18h56.51.192,CDT_GNG_IUS12,2020.1.2,Win32,60,,,,,,,,,,,,,,,,,,0,1,,space,1,0.020585,0,36,36,17,1,,,,,,,,,,,,,,,,,,,,,,,,,,,,,,
,,,,,,,,,,,,,,,,,,,,,,,,,,,,,,,,,,,,,,,,,,,space,00000,,2020-08-21_18h56.51.192,CDT_GNG_IUS12,2020.1.2,Win32,60,,,,,,,,,,,,,,,,,,0,1,,space,1,0.38892,0,37,37,25,1,,,,,,,,,,,,,,,,,,,,,,,,,,,,,,
,,,,,,,,,,,,,,,,,,,,,,,,,,,,,,,,,,,,,,,,,,,space,00000,,2020-08-21_18h56.51.192,CDT_GNG_IUS12,2020.1.2,Win32,60,,,,,,,,,,,,,,,,,,0,1,,space,1,0.444255,0,38,38,10,1,,,,,,,,,,,,,,,,,,,,,,,,,,,,,,
,,,,,,,,,,,,,,,,,,,,,,,,,,,,,,,,,,,,,,,,,,,space,00000,,2020-08-21_18h56.51.192,CDT_GNG_IUS12,2020.1.2,Win32,60,,,,,,,,,,,,,,,,,,0,1,,space,1,0.36925,0,39,39,45,1,,,,,,,,,,,,,,,,,,,,,,,,,,,,,,
,,,,,,,,,,,,,,,,,,,,,,,,,,,,,,,,,,,,,,,,,,,space,00000,,2020-08-21_18h56.51.192,CDT_GNG_IUS12,2020.1.2,Win32,60,,,,,,,,,,,,,,,,,,0,1,,space,1,0.32309,0,40,40,15,1,,,,,,,,,,,,,,,,,,,,,,,,,,,,,,
,,,,,,,,,,,,,,,,,,,,,,,,,,,,,,,,,,,,,,,,,,,space,00000,,2020-08-21_18h56.51.192,CDT_GNG_IUS12,2020.1.2,Win32,60,,,,,,,,,,,,,,,,,,0,1,,space,1,0.320025,0,41,41,23,1,,,,,,,,,,,,,,,,,,,,,,,,,,,,,,
,,,,,,,,,,,,,,,,,,,,,,,,,,,,,,,,,,,,,,,,,,,space,00000,,2020-08-21_18h56.51.192,CDT_GNG_IUS12,2020.1.2,Win32,60,,,,,,,,,,,,,,,,,,0,1,,space,1,0.30037,0,42,42,28,1,,,,,,,,,,,,,,,,,,,,,,,,,,,,,,
,,,,,,,,,,,,,,,,,,,,,,,,,,,,,,,,,,,,,,,,,,,space,00000,,2020-08-21_18h56.51.192,CDT_GNG_IUS12,2020.1.2,Win32,60,,,,,,,,,,,,,,,,,,0,1,,space,1,0.320385,0,43,43,18,1,,,,,,,,,,,,,,,,,,,,,,,,,,,,,,
,,,,,,,,,,,,,,,,,,,,,,,,,,,,,,,,,,,,,,,,,,,space,00000,,2020-08-21_18h56.51.192,CDT_GNG_IUS12,2020.1.2,Win32,60,,,,,,,,,,,,,,,,,,0,1,,space,1,0.339665,0,44,44,11,1,,,,,,,,,,,,,,,,,,,,,,,,,,,,,,
,,,,,,,,,,,,,,,,,,,,,,,,,,,,,,,,,,,,,,,,,,,,00000,,2020-08-21_18h56.51.192,CDT_GNG_IUS12,2020.1.2,Win32,60,,,,,,,,,,,,,,,,,,1,0,,,1,,0,45,45,7,1,,,,,,,,,,,,,,,,,,,,,,,,,,,,,,
,,,,,,,,,,,,,,,,,,,,,,,,,,,,,,,,,,,,,,,,,,,space,00000,,2020-08-21_18h56.51.192,CDT_GNG_IUS12,2020.1.2,Win32,60,,,,,,,,,,,,,,,,,,0,1,,space,1,0.26039,0,46,46,30,1,,,,,,,,,,,,,,,,,,,,,,,,,,,,,,
,,,,,,,,,,,,,,,,,,,,,,,,,,,,,,,,,,,,,,,,,,,,00000,,2020-08-21_18h56.51.192,CDT_GNG_IUS12,2020.1.2,Win32,60,,,,,,,,,,,,,,,,,,1,0,,space,0,0.276475,0,47,47,0,1,,,,,,,,,,,,,,,,,,,,,,,,,,,,,,
,,,,,,,,,,,,,,,,,,,,,,,,,,,,,,,,,,,,,,,,,,,space,00000,,2020-08-21_18h56.51.192,CDT_GNG_IUS12,2020.1.2,Win32,60,,,,,,,,,,,,,,,,,,0,1,,space,1,0.50989,0,48,48,47,1,,,,,,,,,,,,,,,,,,,,,,,,,,,,,,
,,,,,,,,,,,,,,,,,,,,,,,,,,,,,,,,,,,,,,,,,,,space,00000,,2020-08-21_18h56.51.192,CDT_GNG_IUS12,2020.1.2,Win32,60,,,,,,,,,,,,,,,,,,0,1,,space,1,0.483835,0,49,49,39,1,,,,,,,,,,,,,,,,,,,,,,,,,,,,,,
,,,,,,,,,,,,,,,,,,,,,,,,,,,,,,,,,,,,,,,,,,,space,00000,,2020-08-21_18h56.51.192,CDT_GNG_IUS12,2020.1.2,Win32,60,,,,,,,,,,,,,,,,,,0,1,,space,1,0.408845,,,,,,0,0,0,48,1,,,,,,,,,,,,,,,,,,,,,,,,,
,,,,,,,,,,,,,,,,,,,,,,,,,,,,,,,,,,,,,,,,,,,space,00000,,2020-08-21_18h56.51.192,CDT_GNG_IUS12,2020.1.2,Win32,60,,,,,,,,,,,,,,,,,,0,1,,space,1,0.35115,,,,,,0,1,1,32,1,,,,,,,,,,,,,,,,,,,,,,,,,
,,,,,,,,,,,,,,,,,,,,,,,,,,,,,,,,,,,,,,,,,,,space,00000,,2020-08-21_18h56.51.192,CDT_GNG_IUS12,2020.1.2,Win32,60,,,,,,,,,,,,,,,,,,0,1,,space,1,0.29313,,,,,,0,2,2,20,1,,,,,,,,,,,,,,,,,,,,,,,,,
,,,,,,,,,,,,,,,,,,,,,,,,,,,,,,,,,,,,,,,,,,,space,00000,,2020-08-21_18h56.51.192,CDT_GNG_IUS12,2020.1.2,Win32,60,,,,,,,,,,,,,,,,,,0,1,,space,1,0.287155,,,,,,0,3,3,30,1,,,,,,,,,,,,,,,,,,,,,,,,,
,,,,,,,,,,,,,,,,,,,,,,,,,,,,,,,,,,,,,,,,,,,space,00000,,2020-08-21_18h56.51.192,CDT_GNG_IUS12,2020.1.2,Win32,60,,,,,,,,,,,,,,,,,,0,1,,space,1,0.31861,,,,,,0,4,4,45,1,,,,,,,,,,,,,,,,,,,,,,,,,
,,,,,,,,,,,,,,,,,,,,,,,,,,,,,,,,,,,,,,,,,,,space,00000,,2020-08-21_18h56.51.192,CDT_GNG_IUS12,2020.1.2,Win32,60,,,,,,,,,,,,,,,,,,0,1,,space,1,0.251255,,,,,,0,5,5,40,1,,,,,,,,,,,,,,,,,,,,,,,,,
,,,,,,,,,,,,,,,,,,,,,,,,,,,,,,,,,,,,,,,,,,,space,00000,,2020-08-21_18h56.51.192,CDT_GNG_IUS12,2020.1.2,Win32,60,,,,,,,,,,,,,,,,,,0,1,,space,1,0.25976,,,,,,0,6,6,37,1,,,,,,,,,,,,,,,,,,,,,,,,,
,,,,,,,,,,,,,,,,,,,,,,,,,,,,,,,,,,,,,,,,,,,space,00000,,2020-08-21_18h56.51.192,CDT_GNG_IUS12,2020.1.2,Win32,60,,,,,,,,,,,,,,,,,,0,1,,space,1,0.31806,,,,,,0,7,7,12,1,,,,,,,,,,,,,,,,,,,,,,,,,
,,,,,,,,,,,,,,,,,,,,,,,,,,,,,,,,,,,,,,,,,,,space,00000,,2020-08-21_18h56.51.192,CDT_GNG_IUS12,2020.1.2,Win32,60,,,,,,,,,,,,,,,,,,0,1,,space,1,0.27383,,,,,,0,8,8,39,1,,,,,,,,,,,,,,,,,,,,,,,,,
,,,,,,,,,,,,,,,,,,,,,,,,,,,,,,,,,,,,,,,,,,,space,00000,,2020-08-21_18h56.51.192,CDT_GNG_IUS12,2020.1.2,Win32,60,,,,,,,,,,,,,,,,,,0,1,,space,1,0.14204,,,,,,0,9,9,36,1,,,,,,,,,,,,,,,,,,,,,,,,,
,,,,,,,,,,,,,,,,,,,,,,,,,,,,,,,,,,,,,,,,,,,space,00000,,2020-08-21_18h56.51.192,CDT_GNG_IUS12,2020.1.2,Win32,60,,,,,,,,,,,,,,,,,,0,1,,space,1,0.12361,,,,,,0,10,10,15,1,,,,,,,,,,,,,,,,,,,,,,,,,
,,,,,,,,,,,,,,,,,,,,,,,,,,,,,,,,,,,,,,,,,,,space,00000,,2020-08-21_18h56.51.192,CDT_GNG_IUS12,2020.1.2,Win32,60,,,,,,,,,,,,,,,,,,0,1,,space,1,0.12365,,,,,,0,11,11,21,1,,,,,,,,,,,,,,,,,,,,,,,,,
,,,,,,,,,,,,,,,,,,,,,,,,,,,,,,,,,,,,,,,,,,,space,00000,,2020-08-21_18h56.51.192,CDT_GNG_IUS12,2020.1.2,Win32,60,,,,,,,,,,,,,,,,,,0,1,,space,1,0.17251,,,,,,0,12,12,10,1,,,,,,,,,,,,,,,,,,,,,,,,,
,,,,,,,,,,,,,,,,,,,,,,,,,,,,,,,,,,,,,,,,,,,space,00000,,2020-08-21_18h56.51.192,CDT_GNG_IUS12,2020.1.2,Win32,60,,,,,,,,,,,,,,,,,,0,1,,space,1,0.275355,,,,,,0,13,13,29,1,,,,,,,,,,,,,,,,,,,,,,,,,
,,,,,,,,,,,,,,,,,,,,,,,,,,,,,,,,,,,,,,,,,,,,00000,,2020-08-21_18h56.51.192,CDT_GNG_IUS12,2020.1.2,Win32,60,,,,,,,,,,,,,,,,,,1,0,,space,0,0.29034,,,,,,0,14,14,7,1,,,,,,,,,,,,,,,,,,,,,,,,,
,,,,,,,,,,,,,,,,,,,,,,,,,,,,,,,,,,,,,,,,,,,space,00000,,2020-08-21_18h56.51.192,CDT_GNG_IUS12,2020.1.2,Win32,60,,,,,,,,,,,,,,,,,,0,1,,space,1,0.320245,,,,,,0,15,15,14,1,,,,,,,,,,,,,,,,,,,,,,,,,
,,,,,,,,,,,,,,,,,,,,,,,,,,,,,,,,,,,,,,,,,,,space,00000,,2020-08-21_18h56.51.192,CDT_GNG_IUS12,2020.1.2,Win32,60,,,,,,,,,,,,,,,,,,0,1,,space,1,0.181035,,,,,,0,16,16,24,1,,,,,,,,,,,,,,,,,,,,,,,,,
,,,,,,,,,,,,,,,,,,,,,,,,,,,,,,,,,,,,,,,,,,,space,00000,,2020-08-21_18h56.51.192,CDT_GNG_IUS12,2020.1.2,Win32,60,,,,,,,,,,,,,,,,,,0,1,,space,1,0.211195,,,,,,0,17,17,22,1,,,,,,,,,,,,,,,,,,,,,,,,,
,,,,,,,,,,,,,,,,,,,,,,,,,,,,,,,,,,,,,,,,,,,space,00000,,2020-08-21_18h56.51.192,CDT_GNG_IUS12,2020.1.2,Win32,60,,,,,,,,,,,,,,,,,,0,1,,space,1,0.27025,,,,,,0,18,18,49,1,,,,,,,,,,,,,,,,,,,,,,,,,
,,,,,,,,,,,,,,,,,,,,,,,,,,,,,,,,,,,,,,,,,,,,00000,,2020-08-21_18h56.51.192,CDT_GNG_IUS12,2020.1.2,Win32,60,,,,,,,,,,,,,,,,,,1,0,,space,0,0.25311,,,,,,0,19,19,3,1,,,,,,,,,,,,,,,,,,,,,,,,,
,,,,,,,,,,,,,,,,,,,,,,,,,,,,,,,,,,,,,,,,,,,,00000,,2020-08-21_18h56.51.192,CDT_GNG_IUS12,2020.1.2,Win32,60,,,,,,,,,,,,,,,,,,1,0,,space,0,0.30911,,,,,,0,20,20,1,1,,,,,,,,,,,,,,,,,,,,,,,,,
,,,,,,,,,,,,,,,,,,,,,,,,,,,,,,,,,,,,,,,,,,,space,00000,,2020-08-21_18h56.51.192,CDT_GNG_IUS12,2020.1.2,Win32,60,,,,,,,,,,,,,,,,,,0,1,,,0,,,,,,,0,21,21,33,1,,,,,,,,,,,,,,,,,,,,,,,,,
,,,,,,,,,,,,,,,,,,,,,,,,,,,,,,,,,,,,,,,,,,,space,00000,,2020-08-21_18h56.51.192,CDT_GNG_IUS12,2020.1.2,Win32,60,,,,,,,,,,,,,,,,,,0,1,,space,1,0.027105,,,,,,0,22,22,25,1,,,,,,,,,,,,,,,,,,,,,,,,,
,,,,,,,,,,,,,,,,,,,,,,,,,,,,,,,,,,,,,,,,,,,,00000,,2020-08-21_18h56.51.192,CDT_GNG_IUS12,2020.1.2,Win32,60,,,,,,,,,,,,,,,,,,1,0,,space,0,0.30161,,,,,,0,23,23,8,1,,,,,,,,,,,,,,,,,,,,,,,,,
,,,,,,,,,,,,,,,,,,,,,,,,,,,,,,,,,,,,,,,,,,,space,00000,,2020-08-21_18h56.51.192,CDT_GNG_IUS12,2020.1.2,Win32,60,,,,,,,,,,,,,,,,,,0,1,,space,1,0.578015,,,,,,0,24,24,11,1,,,,,,,,,,,,,,,,,,,,,,,,,
,,,,,,,,,,,,,,,,,,,,,,,,,,,,,,,,,,,,,,,,,,,space,00000,,2020-08-21_18h56.51.192,CDT_GNG_IUS12,2020.1.2,Win32,60,,,,,,,,,,,,,,,,,,0,1,,,0,,,,,,,0,25,25,43,1,,,,,,,,,,,,,,,,,,,,,,,,,
,,,,,,,,,,,,,,,,,,,,,,,,,,,,,,,,,,,,,,,,,,,space,00000,,2020-08-21_18h56.51.192,CDT_GNG_IUS12,2020.1.2,Win32,60,,,,,,,,,,,,,,,,,,0,1,,,0,,,,,,,0,26,26,42,1,,,,,,,,,,,,,,,,,,,,,,,,,
,,,,,,,,,,,,,,,,,,,,,,,,,,,,,,,,,,,,,,,,,,,space,00000,,2020-08-21_18h56.51.192,CDT_GNG_IUS12,2020.1.2,Win32,60,,,,,,,,,,,,,,,,,,0,1,,space,1,0.01156,,,,,,0,27,27,16,1,,,,,,,,,,,,,,,,,,,,,,,,,
,,,,,,,,,,,,,,,,,,,,,,,,,,,,,,,,,,,,,,,,,,,,00000,,2020-08-21_18h56.51.192,CDT_GNG_IUS12,2020.1.2,Win32,60,,,,,,,,,,,,,,,,,,1,0,,space,0,0.0593,,,,,,0,28,28,5,1,,,,,,,,,,,,,,,,,,,,,,,,,
,,,,,,,,,,,,,,,,,,,,,,,,,,,,,,,,,,,,,,,,,,,,00000,,2020-08-21_18h56.51.192,CDT_GNG_IUS12,2020.1.2,Win32,60,,,,,,,,,,,,,,,,,,1,0,,space,0,0.37981,,,,,,0,29,29,2,1,,,,,,,,,,,,,,,,,,,,,,,,,
,,,,,,,,,,,,,,,,,,,,,,,,,,,,,,,,,,,,,,,,,,,space,00000,,2020-08-21_18h56.51.192,CDT_GNG_IUS12,2020.1.2,Win32,60,,,,,,,,,,,,,,,,,,0,1,,space,1,0.5722,,,,,,0,30,30,31,1,,,,,,,,,,,,,,,,,,,,,,,,,
,,,,,,,,,,,,,,,,,,,,,,,,,,,,,,,,,,,,,,,,,,,space,00000,,2020-08-21_18h56.51.192,CDT_GNG_IUS12,2020.1.2,Win32,60,,,,,,,,,,,,,,,,,,0,1,,space,1,0.54713,,,,,,0,31,31,19,1,,,,,,,,,,,,,,,,,,,,,,,,,
,,,,,,,,,,,,,,,,,,,,,,,,,,,,,,,,,,,,,,,,,,,space,00000,,2020-08-21_18h56.51.192,CDT_GNG_IUS12,2020.1.2,Win32,60,,,,,,,,,,,,,,,,,,0,1,,space,1,0.58244,,,,,,0,32,32,17,1,,,,,,,,,,,,,,,,,,,,,,,,,
,,,,,,,,,,,,,,,,,,,,,,,,,,,,,,,,,,,,,,,,,,,,00000,,2020-08-21_18h56.51.192,CDT_GNG_IUS12,2020.1.2,Win32,60,,,,,,,,,,,,,,,,,,1,0,,,1,,,,,,,0,33,33,9,1,,,,,,,,,,,,,,,,,,,,,,,,,
,,,,,,,,,,,,,,,,,,,,,,,,,,,,,,,,,,,,,,,,,,,space,00000,,2020-08-21_18h56.51.192,CDT_GNG_IUS12,2020.1.2,Win32,60,,,,,,,,,,,,,,,,,,0,1,,space,1,0.303375,,,,,,0,34,34,13,1,,,,,,,,,,,,,,,,,,,,,,,,,
,,,,,,,,,,,,,,,,,,,,,,,,,,,,,,,,,,,,,,,,,,,space,00000,,2020-08-21_18h56.51.192,CDT_GNG_IUS12,2020.1.2,Win32,60,,,,,,,,,,,,,,,,,,0,1,,space,1,0.27435,,,,,,0,35,35,28,1,,,,,,,,,,,,,,,,,,,,,,,,,
,,,,,,,,,,,,,,,,,,,,,,,,,,,,,,,,,,,,,,,,,,,space,00000,,2020-08-21_18h56.51.192,CDT_GNG_IUS12,2020.1.2,Win32,60,,,,,,,,,,,,,,,,,,0,1,,space,1,0.318245,,,,,,0,36,36,18,1,,,,,,,,,,,,,,,,,,,,,,,,,
,,,,,,,,,,,,,,,,,,,,,,,,,,,,,,,,,,,,,,,,,,,space,00000,,2020-08-21_18h56.51.192,CDT_GNG_IUS12,2020.1.2,Win32,60,,,,,,,,,,,,,,,,,,0,1,,space,1,0.33976,,,,,,0,37,37,27,1,,,,,,,,,,,,,,,,,,,,,,,,,
,,,,,,,,,,,,,,,,,,,,,,,,,,,,,,,,,,,,,,,,,,,,00000,,2020-08-21_18h56.51.192,CDT_GNG_IUS12,2020.1.2,Win32,60,,,,,,,,,,,,,,,,,,1,0,,,1,,,,,,,0,38,38,0,1,,,,,,,,,,,,,,,,,,,,,,,,,
,,,,,,,,,,,,,,,,,,,,,,,,,,,,,,,,,,,,,,,,,,,space,00000,,2020-08-21_18h56.51.192,CDT_GNG_IUS12,2020.1.2,Win32,60,,,,,,,,,,,,,,,,,,0,1,,space,1,0.11639,,,,,,0,39,39,26,1,,,,,,,,,,,,,,,,,,,,,,,,,
,,,,,,,,,,,,,,,,,,,,,,,,,,,,,,,,,,,,,,,,,,,space,00000,,2020-08-21_18h56.51.192,CDT_GNG_IUS12,2020.1.2,Win32,60,,,,,,,,,,,,,,,,,,0,1,,space,1,0.27553,,,,,,0,40,40,41,1,,,,,,,,,,,,,,,,,,,,,,,,,
,,,,,,,,,,,,,,,,,,,,,,,,,,,,,,,,,,,,,,,,,,,space,00000,,2020-08-21_18h56.51.192,CDT_GNG_IUS12,2020.1.2,Win32,60,,,,,,,,,,,,,,,,,,0,1,,space,1,0.303525,,,,,,0,41,41,23,1,,,,,,,,,,,,,,,,,,,,,,,,,
,,,,,,,,,,,,,,,,,,,,,,,,,,,,,,,,,,,,,,,,,,,,00000,,2020-08-21_18h56.51.192,CDT_GNG_IUS12,2020.1.2,Win32,60,,,,,,,,,,,,,,,,,,1,0,,,1,,,,,,,0,42,42,4,1,,,,,,,,,,,,,,,,,,,,,,,,,
,,,,,,,,,,,,,,,,,,,,,,,,,,,,,,,,,,,,,,,,,,,space,00000,,2020-08-21_18h56.51.192,CDT_GNG_IUS12,2020.1.2,Win32,60,,,,,,,,,,,,,,,,,,0,1,,space,1,0.068875,,,,,,0,43,43,46,1,,,,,,,,,,,,,,,,,,,,,,,,,
,,,,,,,,,,,,,,,,,,,,,,,,,,,,,,,,,,,,,,,,,,,,00000,,2020-08-21_18h56.51.192,CDT_GNG_IUS12,2020.1.2,Win32,60,,,,,,,,,,,,,,,,,,1,0,,space,0,0.274185,,,,,,0,44,44,6,1,,,,,,,,,,,,,,,,,,,,,,,,,
,,,,,,,,,,,,,,,,,,,,,,,,,,,,,,,,,,,,,,,,,,,space,00000,,2020-08-21_18h56.51.192,CDT_GNG_IUS12,2020.1.2,Win32,60,,,,,,,,,,,,,,,,,,0,1,,,0,,,,,,,0,45,45,44,1,,,,,,,,,,,,,,,,,,,,,,,,,
,,,,,,,,,,,,,,,,,,,,,,,,,,,,,,,,,,,,,,,,,,,space,00000,,2020-08-21_18h56.51.192,CDT_GNG_IUS12,2020.1.2,Win32,60,,,,,,,,,,,,,,,,,,0,1,,space,1,0.01134,,,,,,0,46,46,38,1,,,,,,,,,,,,,,,,,,,,,,,,,
,,,,,,,,,,,,,,,,,,,,,,,,,,,,,,,,,,,,,,,,,,,space,00000,,2020-08-21_18h56.51.192,CDT_GNG_IUS12,2020.1.2,Win32,60,,,,,,,,,,,,,,,,,,0,1,,,0,,,,,,,0,47,47,34,1,,,,,,,,,,,,,,,,,,,,,,,,,
,,,,,,,,,,,,,,,,,,,,,,,,,,,,,,,,,,,,,,,,,,,space,00000,,2020-08-21_18h56.51.192,CDT_GNG_IUS12,2020.1.2,Win32,60,,,,,,,,,,,,,,,,,,0,1,,space,1,0.075785,,,,,,0,48,48,35,1,,,,,,,,,,,,,,,,,,,,,,,,,
,,,,,,,,,,,,,,,,,,,,,,,,,,,,,,,,,,,,,,,,,,,space,00000,,2020-08-21_18h56.51.192,CDT_GNG_IUS12,2020.1.2,Win32,60,,,,,,,,,,,,,,,,,,0,1,,space,1,0.173465,,,,,,0,49,49,47,1,,,,,,,,,,,,,,,,,,,,,,,,,
,,,,,,,,,,,,,,,,,,,,,,,,,,,,,,,,,,,,,,,,,,,space,00000,,2020-08-21_18h56.51.192,CDT_GNG_IUS12,2020.1.2,Win32,60,,,,,,,,,,,,,,,,,,0,1,,space,1,0.30798,,,,,,,,,,,0,0,0,21,1,,,,,,,,,,,,,,,,,,,,
,,,,,,,,,,,,,,,,,,,,,,,,,,,,,,,,,,,,,,,,,,,,00000,,2020-08-21_18h56.51.192,CDT_GNG_IUS12,2020.1.2,Win32,60,,,,,,,,,,,,,,,,,,1,0,,,1,,,,,,,,,,,,0,1,1,2,1,,,,,,,,,,,,,,,,,,,,
,,,,,,,,,,,,,,,,,,,,,,,,,,,,,,,,,,,,,,,,,,,space,00000,,2020-08-21_18h56.51.192,CDT_GNG_IUS12,2020.1.2,Win32,60,,,,,,,,,,,,,,,,,,0,1,,space,1,0.24259,,,,,,,,,,,0,2,2,39,1,,,,,,,,,,,,,,,,,,,,
,,,,,,,,,,,,,,,,,,,,,,,,,,,,,,,,,,,,,,,,,,,space,00000,,2020-08-21_18h56.51.192,CDT_GNG_IUS12,2020.1.2,Win32,60,,,,,,,,,,,,,,,,,,0,1,,space,1,0.42029,,,,,,,,,,,0,3,3,28,1,,,,,,,,,,,,,,,,,,,,
,,,,,,,,,,,,,,,,,,,,,,,,,,,,,,,,,,,,,,,,,,,,00000,,2020-08-21_18h56.51.192,CDT_GNG_IUS12,2020.1.2,Win32,60,,,,,,,,,,,,,,,,,,1,0,,,1,,,,,,,,,,,,0,4,4,5,1,,,,,,,,,,,,,,,,,,,,
,,,,,,,,,,,,,,,,,,,,,,,,,,,,,,,,,,,,,,,,,,,space,00000,,2020-08-21_18h56.51.192,CDT_GNG_IUS12,2020.1.2,Win32,60,,,,,,,,,,,,,,,,,,0,1,,space,1,0.20371,,,,,,,,,,,0,5,5,37,1,,,,,,,,,,,,,,,,,,,,
,,,,,,,,,,,,,,,,,,,,,,,,,,,,,,,,,,,,,,,,,,,space,00000,,2020-08-21_18h56.51.192,CDT_GNG_IUS12,2020.1.2,Win32,60,,,,,,,,,,,,,,,,,,0,1,,space,1,0.219805,,,,,,,,,,,0,6,6,27,1,,,,,,,,,,,,,,,,,,,,
,,,,,,,,,,,,,,,,,,,,,,,,,,,,,,,,,,,,,,,,,,,space,00000,,2020-08-21_18h56.51.192,CDT_GNG_IUS12,2020.1.2,Win32,60,,,,,,,,,,,,,,,,,,0,1,,space,1,0.27598,,,,,,,,,,,0,7,7,43,1,,,,,,,,,,,,,,,,,,,,
,,,,,,,,,,,,,,,,,,,,,,,,,,,,,,,,,,,,,,,,,,,space,00000,,2020-08-21_18h56.51.192,CDT_GNG_IUS12,2020.1.2,Win32,60,,,,,,,,,,,,,,,,,,0,1,,space,1,0.30984,,,,,,,,,,,0,8,8,19,1,,,,,,,,,,,,,,,,,,,,
,,,,,,,,,,,,,,,,,,,,,,,,,,,,,,,,,,,,,,,,,,,space,00000,,2020-08-21_18h56.51.192,CDT_GNG_IUS12,2020.1.2,Win32,60,,,,,,,,,,,,,,,,,,0,1,,space,1,0.31804,,,,,,,,,,,0,9,9,24,1,,,,,,,,,,,,,,,,,,,,
,,,,,,,,,,,,,,,,,,,,,,,,,,,,,,,,,,,,,,,,,,,space,00000,,2020-08-21_18h56.51.192,CDT_GNG_IUS12,2020.1.2,Win32,60,,,,,,,,,,,,,,,,,,0,1,,space,1,0.31902,,,,,,,,,,,0,10,10,15,1,,,,,,,,,,,,,,,,,,,,
,,,,,,,,,,,,,,,,,,,,,,,,,,,,,,,,,,,,,,,,,,,,00000,,2020-08-21_18h56.51.192,CDT_GNG_IUS12,2020.1.2,Win32,60,,,,,,,,,,,,,,,,,,1,0,,,1,,,,,,,,,,,,0,11,11,6,1,,,,,,,,,,,,,,,,,,,,
,,,,,,,,,,,,,,,,,,,,,,,,,,,,,,,,,,,,,,,,,,,space,00000,,2020-08-21_18h56.51.192,CDT_GNG_IUS12,2020.1.2,Win32,60,,,,,,,,,,,,,,,,,,0,1,,space,1,0.237645,,,,,,,,,,,0,12,12,32,1,,,,,,,,,,,,,,,,,,,,
,,,,,,,,,,,,,,,,,,,,,,,,,,,,,,,,,,,,,,,,,,,space,00000,,2020-08-21_18h56.51.192,CDT_GNG_IUS12,2020.1.2,Win32,60,,,,,,,,,,,,,,,,,,0,1,,space,1,0.25881,,,,,,,,,,,0,13,13,29,1,,,,,,,,,,,,,,,,,,,,
,,,,,,,,,,,,,,,,,,,,,,,,,,,,,,,,,,,,,,,,,,,space,00000,,2020-08-21_18h56.51.192,CDT_GNG_IUS12,2020.1.2,Win32,60,,,,,,,,,,,,,,,,,,0,1,,space,1,0.307785,,,,,,,,,,,0,14,14,45,1,,,,,,,,,,,,,,,,,,,,
,,,,,,,,,,,,,,,,,,,,,,,,,,,,,,,,,,,,,,,,,,,space,00000,,2020-08-21_18h56.51.192,CDT_GNG_IUS12,2020.1.2,Win32,60,,,,,,,,,,,,,,,,,,0,1,,space,1,0.291785,,,,,,,,,,,0,15,15,38,1,,,,,,,,,,,,,,,,,,,,
,,,,,,,,,,,,,,,,,,,,,,,,,,,,,,,,,,,,,,,,,,,space,00000,,2020-08-21_18h56.51.192,CDT_GNG_IUS12,2020.1.2,Win32,60,,,,,,,,,,,,,,,,,,0,1,,space,1,0.356205,,,,,,,,,,,0,16,16,25,1,,,,,,,,,,,,,,,,,,,,
,,,,,,,,,,,,,,,,,,,,,,,,,,,,,,,,,,,,,,,,,,,space,00000,,2020-08-21_18h56.51.192,CDT_GNG_IUS12,2020.1.2,Win32,60,,,,,,,,,,,,,,,,,,0,1,,space,1,0.29381,,,,,,,,,,,0,17,17,47,1,,,,,,,,,,,,,,,,,,,,
,,,,,,,,,,,,,,,,,,,,,,,,,,,,,,,,,,,,,,,,,,,space,00000,,2020-08-21_18h56.51.192,CDT_GNG_IUS12,2020.1.2,Win32,60,,,,,,,,,,,,,,,,,,0,1,,space,1,0.34081,,,,,,,,,,,0,18,18,11,1,,,,,,,,,,,,,,,,,,,,
,,,,,,,,,,,,,,,,,,,,,,,,,,,,,,,,,,,,,,,,,,,space,00000,,2020-08-21_18h56.51.192,CDT_GNG_IUS12,2020.1.2,Win32,60,,,,,,,,,,,,,,,,,,0,1,,space,1,0.318325,,,,,,,,,,,0,19,19,12,1,,,,,,,,,,,,,,,,,,,,
,,,,,,,,,,,,,,,,,,,,,,,,,,,,,,,,,,,,,,,,,,,space,00000,,2020-08-21_18h56.51.192,CDT_GNG_IUS12,2020.1.2,Win32,60,,,,,,,,,,,,,,,,,,0,1,,space,1,0.339615,,,,,,,,,,,0,20,20,34,1,,,,,,,,,,,,,,,,,,,,
,,,,,,,,,,,,,,,,,,,,,,,,,,,,,,,,,,,,,,,,,,,space,00000,,2020-08-21_18h56.51.192,CDT_GNG_IUS12,2020.1.2,Win32,60,,,,,,,,,,,,,,,,,,0,1,,space,1,0.30214,,,,,,,,,,,0,21,21,20,1,,,,,,,,,,,,,,,,,,,,
,,,,,,,,,,,,,,,,,,,,,,,,,,,,,,,,,,,,,,,,,,,space,00000,,2020-08-21_18h56.51.192,CDT_GNG_IUS12,2020.1.2,Win32,60,,,,,,,,,,,,,,,,,,0,1,,space,1,0.30806,,,,,,,,,,,0,22,22,49,1,,,,,,,,,,,,,,,,,,,,
,,,,,,,,,,,,,,,,,,,,,,,,,,,,,,,,,,,,,,,,,,,space,00000,,2020-08-21_18h56.51.192,CDT_GNG_IUS12,2020.1.2,Win32,60,,,,,,,,,,,,,,,,,,0,1,,space,1,0.308215,,,,,,,,,,,0,23,23,18,1,,,,,,,,,,,,,,,,,,,,
,,,,,,,,,,,,,,,,,,,,,,,,,,,,,,,,,,,,,,,,,,,space,00000,,2020-08-21_18h56.51.192,CDT_GNG_IUS12,2020.1.2,Win32,60,,,,,,,,,,,,,,,,,,0,1,,space,1,0.33758,,,,,,,,,,,0,24,24,30,1,,,,,,,,,,,,,,,,,,,,
,,,,,,,,,,,,,,,,,,,,,,,,,,,,,,,,,,,,,,,,,,,,00000,,2020-08-21_18h56.51.192,CDT_GNG_IUS12,2020.1.2,Win32,60,,,,,,,,,,,,,,,,,,1,0,,,1,,,,,,,,,,,,0,25,25,3,1,,,,,,,,,,,,,,,,,,,,
,,,,,,,,,,,,,,,,,,,,,,,,,,,,,,,,,,,,,,,,,,,space,00000,,2020-08-21_18h56.51.192,CDT_GNG_IUS12,2020.1.2,Win32,60,,,,,,,,,,,,,,,,,,0,1,,space,1,0.157965,,,,,,,,,,,0,26,26,22,1,,,,,,,,,,,,,,,,,,,,
,,,,,,,,,,,,,,,,,,,,,,,,,,,,,,,,,,,,,,,,,,,space,00000,,2020-08-21_18h56.51.192,CDT_GNG_IUS12,2020.1.2,Win32,60,,,,,,,,,,,,,,,,,,0,1,,space,1,0.27138,,,,,,,,,,,0,27,27,10,1,,,,,,,,,,,,,,,,,,,,
,,,,,,,,,,,,,,,,,,,,,,,,,,,,,,,,,,,,,,,,,,,space,00000,,2020-08-21_18h56.51.192,CDT_GNG_IUS12,2020.1.2,Win32,60,,,,,,,,,,,,,,,,,,0,1,,space,1,0.285605,,,,,,,,,,,0,28,28,31,1,,,,,,,,,,,,,,,,,,,,
,,,,,,,,,,,,,,,,,,,,,,,,,,,,,,,,,,,,,,,,,,,space,00000,,2020-08-21_18h56.51.192,CDT_GNG_IUS12,2020.1.2,Win32,60,,,,,,,,,,,,,,,,,,0,1,,space,1,0.28352,,,,,,,,,,,0,29,29,14,1,,,,,,,,,,,,,,,,,,,,
,,,,,,,,,,,,,,,,,,,,,,,,,,,,,,,,,,,,,,,,,,,space,00000,,2020-08-21_18h56.51.192,CDT_GNG_IUS12,2020.1.2,Win32,60,,,,,,,,,,,,,,,,,,0,1,,space,1,0.28572,,,,,,,,,,,0,30,30,42,1,,,,,,,,,,,,,,,,,,,,
,,,,,,,,,,,,,,,,,,,,,,,,,,,,,,,,,,,,,,,,,,,space,00000,,2020-08-21_18h56.51.192,CDT_GNG_IUS12,2020.1.2,Win32,60,,,,,,,,,,,,,,,,,,0,1,,space,1,0.266445,,,,,,,,,,,0,31,31,48,1,,,,,,,,,,,,,,,,,,,,
,,,,,,,,,,,,,,,,,,,,,,,,,,,,,,,,,,,,,,,,,,,space,00000,,2020-08-21_18h56.51.192,CDT_GNG_IUS12,2020.1.2,Win32,60,,,,,,,,,,,,,,,,,,0,1,,space,1,0.318885,,,,,,,,,,,0,32,32,41,1,,,,,,,,,,,,,,,,,,,,
,,,,,,,,,,,,,,,,,,,,,,,,,,,,,,,,,,,,,,,,,,,space,00000,,2020-08-21_18h56.51.192,CDT_GNG_IUS12,2020.1.2,Win32,60,,,,,,,,,,,,,,,,,,0,1,,space,1,0.32557,,,,,,,,,,,0,33,33,26,1,,,,,,,,,,,,,,,,,,,,
,,,,,,,,,,,,,,,,,,,,,,,,,,,,,,,,,,,,,,,,,,,,00000,,2020-08-21_18h56.51.192,CDT_GNG_IUS12,2020.1.2,Win32,60,,,,,,,,,,,,,,,,,,1,0,,space,0,0.292125,,,,,,,,,,,0,34,34,9,1,,,,,,,,,,,,,,,,,,,,
,,,,,,,,,,,,,,,,,,,,,,,,,,,,,,,,,,,,,,,,,,,space,00000,,2020-08-21_18h56.51.192,CDT_GNG_IUS12,2020.1.2,Win32,60,,,,,,,,,,,,,,,,,,0,1,,space,1,0.320515,,,,,,,,,,,0,35,35,13,1,,,,,,,,,,,,,,,,,,,,
,,,,,,,,,,,,,,,,,,,,,,,,,,,,,,,,,,,,,,,,,,,,00000,,2020-08-21_18h56.51.192,CDT_GNG_IUS12,2020.1.2,Win32,60,,,,,,,,,,,,,,,,,,1,0,,space,0,0.43626,,,,,,,,,,,0,36,36,4,1,,,,,,,,,,,,,,,,,,,,
,,,,,,,,,,,,,,,,,,,,,,,,,,,,,,,,,,,,,,,,,,,,00000,,2020-08-21_18h56.51.192,CDT_GNG_IUS12,2020.1.2,Win32,60,,,,,,,,,,,,,,,,,,1,0,,,1,,,,,,,,,,,,0,37,37,1,1,,,,,,,,,,,,,,,,,,,,
,,,,,,,,,,,,,,,,,,,,,,,,,,,,,,,,,,,,,,,,,,,space,00000,,2020-08-21_18h56.51.192,CDT_GNG_IUS12,2020.1.2,Win32,60,,,,,,,,,,,,,,,,,,0,1,,space,1,0.306645,,,,,,,,,,,0,38,38,35,1,,,,,,,,,,,,,,,,,,,,
,,,,,,,,,,,,,,,,,,,,,,,,,,,,,,,,,,,,,,,,,,,space,00000,,2020-08-21_18h56.51.192,CDT_GNG_IUS12,2020.1.2,Win32,60,,,,,,,,,,,,,,,,,,0,1,,space,1,0.2856,,,,,,,,,,,0,39,39,16,1,,,,,,,,,,,,,,,,,,,,
,,,,,,,,,,,,,,,,,,,,,,,,,,,,,,,,,,,,,,,,,,,space,00000,,2020-08-21_18h56.51.192,CDT_GNG_IUS12,2020.1.2,Win32,60,,,,,,,,,,,,,,,,,,0,1,,space,1,0.300935,,,,,,,,,,,0,40,40,23,1,,,,,,,,,,,,,,,,,,,,
,,,,,,,,,,,,,,,,,,,,,,,,,,,,,,,,,,,,,,,,,,,,00000,,2020-08-21_18h56.51.192,CDT_GNG_IUS12,2020.1.2,Win32,60,,,,,,,,,,,,,,,,,,1,0,,space,0,0.1882,,,,,,,,,,,0,41,41,0,1,,,,,,,,,,,,,,,,,,,,
,,,,,,,,,,,,,,,,,,,,,,,,,,,,,,,,,,,,,,,,,,,space,00000,,2020-08-21_18h56.51.192,CDT_GNG_IUS12,2020.1.2,Win32,60,,,,,,,,,,,,,,,,,,0,1,,space,1,0.403655,,,,,,,,,,,0,42,42,36,1,,,,,,,,,,,,,,,,,,,,
,,,,,,,,,,,,,,,,,,,,,,,,,,,,,,,,,,,,,,,,,,,space,00000,,2020-08-21_18h56.51.192,CDT_GNG_IUS12,2020.1.2,Win32,60,,,,,,,,,,,,,,,,,,0,1,,space,1,0.38754,,,,,,,,,,,0,43,43,46,1,,,,,,,,,,,,,,,,,,,,
,,,,,,,,,,,,,,,,,,,,,,,,,,,,,,,,,,,,,,,,,,,space,00000,,2020-08-21_18h56.51.192,CDT_GNG_IUS12,2020.1.2,Win32,60,,,,,,,,,,,,,,,,,,0,1,,space,1,0.436055,,,,,,,,,,,0,44,44,17,1,,,,,,,,,,,,,,,,,,,,
,,,,,,,,,,,,,,,,,,,,,,,,,,,,,,,,,,,,,,,,,,,space,00000,,2020-08-21_18h56.51.192,CDT_GNG_IUS12,2020.1.2,Win32,60,,,,,,,,,,,,,,,,,,0,1,,space,1,0.501885,,,,,,,,,,,0,45,45,33,1,,,,,,,,,,,,,,,,,,,,
,,,,,,,,,,,,,,,,,,,,,,,,,,,,,,,,,,,,,,,,,,,space,00000,,2020-08-21_18h56.51.192,CDT_GNG_IUS12,2020.1.2,Win32,60,,,,,,,,,,,,,,,,,,0,1,,space,1,0.535625,,,,,,,,,,,0,46,46,44,1,,,,,,,,,,,,,,,,,,,,
,,,,,,,,,,,,,,,,,,,,,,,,,,,,,,,,,,,,,,,,,,,space,00000,,2020-08-21_18h56.51.192,CDT_GNG_IUS12,2020.1.2,Win32,60,,,,,,,,,,,,,,,,,,0,1,,,0,,,,,,,,,,,,0,47,47,40,1,,,,,,,,,,,,,,,,,,,,
,,,,,,,,,,,,,,,,,,,,,,,,,,,,,,,,,,,,,,,,,,,,00000,,2020-08-21_18h56.51.192,CDT_GNG_IUS12,2020.1.2,Win32,60,,,,,,,,,,,,,,,,,,1,0,,space,0,0.019,,,,,,,,,,,0,48,48,8,1,,,,,,,,,,,,,,,,,,,,
,,,,,,,,,,,,,,,,,,,,,,,,,,,,,,,,,,,,,,,,,,,,00000,,2020-08-21_18h56.51.192,CDT_GNG_IUS12,2020.1.2,Win32,60,,,,,,,,,,,,,,,,,,1,0,,space,0,0.338255,,,,,,,,,,,0,49,49,7,1,,,,,,,,,,,,,,,,,,,,
,,,,,,,,,,,,,,,,,,,,,,,,,,,,,,,,,,,,,,,,,,,,00000,,2020-08-21_18h56.51.192,CDT_GNG_IUS12,2020.1.2,Win32,60,,,,,,,,,,,,,,,,,,,,,,,,,,,,,,,,,,,,,,,6.870370653,21.836115,0,0,0,0,1,1,"On a scale from 0 to 10, indicate your personal perception of your proficiency level for English (10 being the highest score)",,,,,,,,,,,
,,,,,,,,,,,,,,,,,,,,,,,,,,,,,,,,,,,,,,,,,,,,00000,,2020-08-21_18h56.51.192,CDT_GNG_IUS12,2020.1.2,Win32,60,,,,,,,,,,,,,,,,,,,,,,,,,,,,,,,,,,,,,,,7.046296861,0.007635,0,1,1,1,1,2,"On a scale from 0 to 10, indicate how frequently you are exposed to English (10 being 'always', 0 being 'never')",,,,,,,,,,,
,,,,,,,,,,,,,,,,,,,,,,,,,,,,,,,,,,,,,,,,,,,,00000,,2020-08-21_18h56.51.192,CDT_GNG_IUS12,2020.1.2,Win32,60,,,,,,,,,,,,,,,,,,,,,,,,,,,,,,,,,,,,,,,,,,,,,,,"On a scale from 0 to 10, indicate your personal perception of your proficiency level for English (10 being the highest score)",3.944444444,9.27101,0,0,0,0,1,1,Unforeseen events upset me greatly.,,
,,,,,,,,,,,,,,,,,,,,,,,,,,,,,,,,,,,,,,,,,,,,00000,,2020-08-21_18h56.51.192,CDT_GNG_IUS12,2020.1.2,Win32,60,,,,,,,,,,,,,,,,,,,,,,,,,,,,,,,,,,,,,,,,,,,,,,,"On a scale from 0 to 10, indicate how frequently you are exposed to English (10 being 'always', 0 being 'never')",4.007407633,8.03565,0,1,1,1,1,2,It frustrates me not having all the information I need.,,
,,,,,,,,,,,,,,,,,,,,,,,,,,,,,,,,,,,,,,,,,,,,00000,,2020-08-21_18h56.51.192,CDT_GNG_IUS12,2020.1.2,Win32,60,,,,,,,,,,,,,,,,,,,,,,,,,,,,,,,,,,,,,,,,,,,,,,,,4.029629856,15.755455,0,2,2,2,1,3,One should always look ahead so as to avoid surprises.,,
,,,,,,,,,,,,,,,,,,,,,,,,,,,,,,,,,,,,,,,,,,,,00000,,2020-08-21_18h56.51.192,CDT_GNG_IUS12,2020.1.2,Win32,60,,,,,,,,,,,,,,,,,,,,,,,,,,,,,,,,,,,,,,,,,,,,,,,,3.988888889,16.527875,0,3,3,3,1,4,"A small, unforeseen event can spoil everything, even with the best of planning. ",,
,,,,,,,,,,,,,,,,,,,,,,,,,,,,,,,,,,,,,,,,,,,,00000,,2020-08-21_18h56.51.192,CDT_GNG_IUS12,2020.1.2,Win32,60,,,,,,,,,,,,,,,,,,,,,,,,,,,,,,,,,,,,,,,,,,,,,,,,1.974074131,5.123085,0,4,4,4,1,5,I always want to know what the future has in store for me.,,
,,,,,,,,,,,,,,,,,,,,,,,,,,,,,,,,,,,,,,,,,,,,00000,,2020-08-21_18h56.51.192,CDT_GNG_IUS12,2020.1.2,Win32,60,,,,,,,,,,,,,,,,,,,,,,,,,,,,,,,,,,,,,,,,,,,,,,,,2.022222222,9.619175,0,5,5,5,1,6,I can't stand being taken by surprise.,,
,,,,,,,,,,,,,,,,,,,,,,,,,,,,,,,,,,,,,,,,,,,,00000,,2020-08-21_18h56.51.192,CDT_GNG_IUS12,2020.1.2,Win32,60,,,,,,,,,,,,,,,,,,,,,,,,,,,,,,,,,,,,,,,,,,,,,,,,3.966666667,8.319445,0,6,6,6,1,7,I should be able to organize everything in advance,,
,,,,,,,,,,,,,,,,,,,,,,,,,,,,,,,,,,,,,,,,,,,,00000,,2020-08-21_18h56.51.192,CDT_GNG_IUS12,2020.1.2,Win32,60,,,,,,,,,,,,,,,,,,,,,,,,,,,,,,,,,,,,,,,,,,,,,,,,2.985185411,6.711905,0,7,7,7,1,8,Uncertainty keeps me from living a full life.,,
,,,,,,,,,,,,,,,,,,,,,,,,,,,,,,,,,,,,,,,,,,,,00000,,2020-08-21_18h56.51.192,CDT_GNG_IUS12,2020.1.2,Win32,60,,,,,,,,,,,,,,,,,,,,,,,,,,,,,,,,,,,,,,,,,,,,,,,,1.03703715,5.24428,0,8,8,8,1,9,"When it's time to act, uncertainty paralyses me. ",,
,,,,,,,,,,,,,,,,,,,,,,,,,,,,,,,,,,,,,,,,,,,,00000,,2020-08-21_18h56.51.192,CDT_GNG_IUS12,2020.1.2,Win32,60,,,,,,,,,,,,,,,,,,,,,,,,,,,,,,,,,,,,,,,,,,,,,,,,2.029629686,8.326515,0,9,9,9,1,10,"When I am uncertain, I can't function very well. ",,
,,,,,,,,,,,,,,,,,,,,,,,,,,,,,,,,,,,,,,,,,,,,00000,,2020-08-21_18h56.51.192,CDT_GNG_IUS12,2020.1.2,Win32,60,,,,,,,,,,,,,,,,,,,,,,,,,,,,,,,,,,,,,,,,,,,,,,,,1.966666667,13.595875,0,10,10,10,1,11,The smallest doubt can stop me from acting. ,,
,,,,,,,,,,,,,,,,,,,,,,,,,,,,,,,,,,,,,,,,,,,,00000,,2020-08-21_18h56.51.192,CDT_GNG_IUS12,2020.1.2,Win32,60,,,,,,,,,,,,,,,,,,,,,,,,,,,,,,,,,,,,,,,,,,,,,,,,2.948148261,9.137005,0,11,11,11,1,12,I must get away from all uncertain situations. ,,
,,,,,,,,,,,,,,,,,,,,,,,,,,,,,,,,,,,,,,,,,,,,00000,,2020-08-21_18h56.51.192,CDT_GNG_IUS12,2020.1.2,Win32,60,,,,,,,,,,,,,,,,,,,,,,,,,,,,,,,,,,,,,,,,,,,,,,,,,,,,,,,,,x,59.041665
