key_resp_6.keys,key_resp_6.rt,key_resp_2.keys,key_resp_2.corr,key_resp_2.rt,CDT_trials_train.thisRepN,CDT_trials_train.thisTrialN,CDT_trials_train.thisN,CDT_trials_train.thisIndex,CDT_trials_train.ran,trialnum,condit,stimamt,stim1posx,stim1posy,stim1col,stim1opa,stim2posx,stim2posy,stim2col,stim2opa,stim3posx,stim3posy,stim3col,stim3opa,stim4posx,stim4posy,stim4col,stim4opa,stim5posx,stim5posy,stim5col,stim5opa,stim6posx,stim6posy,stim6col,stim6opa,stimsizex,stimsizey,stimdur,targetposx,targetposy,targetcol,corrAns,participant,age,date,expName,psychopyVersion,OS,frameRate,key_resp_5.keys,key_resp.keys,key_resp.corr,key_resp.rt,CDT_trials.thisRepN,CDT_trials.thisTrialN,CDT_trials.thisN,CDT_trials.thisIndex,CDT_trials.ran,key_resp_5.rt,trialResp_Train.keys,trialResp_Train.corr,trialResp_Train.rt,GNGtrials_train.thisRepN,GNGtrials_train.thisTrialN,GNGtrials_train.thisN,GNGtrials_train.thisIndex,GNGtrials_train.ran,orangeOpacity,blueOpacity,trialResp.keys,trialResp.corr,trialResp.rt,GNG_trials_1.thisRepN,GNG_trials_1.thisTrialN,GNG_trials_1.thisN,GNG_trials_1.thisIndex,GNG_trials_1.ran,GNG_trials_2.thisRepN,GNG_trials_2.thisTrialN,GNG_trials_2.thisN,GNG_trials_2.thisIndex,GNG_trials_2.ran,GNG_trials_3.thisRepN,GNG_trials_3.thisTrialN,GNG_trials_3.thisN,GNG_trials_3.thisIndex,GNG_trials_3.ran,slider_2.response,slider_2.rt,engprof_trials.thisRepN,engprof_trials.thisTrialN,engprof_trials.thisN,engprof_trials.thisIndex,engprof_trials.ran,qpnumber,qproficiency,slider.response,slider.rt,IUS12_trials.thisRepN,IUS12_trials.thisTrialN,IUS12_trials.thisN,IUS12_trials.thisIndex,IUS12_trials.ran,qnumber,qenglish,key_resp_end.keys,key_resp_end.rt
y,7.929,l,0,1.073,0,0,0,0,1,1,same,4,0.273779233,-0.054755847,black,1,-0.16426754,-0.273779233,magenta,1,-0.16426754,0.16426754,orange,1,0.16426754,0.054755847,yellow,1,0.16426754,-0.054755847,cyan,0,-0.054755847,-0.16426754,blue,0,0.05,0.05,0.15,-0.16426754,0.16426754,orange,k,000106,27,2020-08-13_11h52.52.482,CDT_GNG_IUS12,2020.1.2,MacIntel,60,,,,,,,,,,,,,,,,,,,,,,,,,,,,,,,,,,,,,,,,,,,,,,,,,,,,,,,,,,
,,k,0,1.205,0,1,1,1,1,2,different,4,0.054755847,-0.054755847,orange,1,-0.273779233,0.273779233,magenta,1,0.273779233,0.16426754,yellow,1,-0.273779233,-0.16426754,blue,1,0.273779233,-0.054755847,red,0,-0.273779233,0.054755847,cyan,0,0.05,0.05,0.15,-0.273779233,-0.16426754,black,l,000106,27,2020-08-13_11h52.52.482,CDT_GNG_IUS12,2020.1.2,MacIntel,60,,,,,,,,,,,,,,,,,,,,,,,,,,,,,,,,,,,,,,,,,,,,,,,,,,,,,,,,,,
,,l,0,0.9,0,2,2,2,1,3,same,6,-0.054755847,0.273779233,green,1,0.273779233,-0.273779233,magenta,1,0.273779233,0.16426754,cyan,1,-0.054755847,-0.054755847,black,1,-0.273779233,0.16426754,orange,1,0.16426754,-0.054755847,blue,1,0.05,0.05,0.15,-0.054755847,0.273779233,green,k,000106,27,2020-08-13_11h52.52.482,CDT_GNG_IUS12,2020.1.2,MacIntel,60,,,,,,,,,,,,,,,,,,,,,,,,,,,,,,,,,,,,,,,,,,,,,,,,,,,,,,,,,,
,,l,1,0.856,0,3,3,3,1,4,different,6,0.16426754,-0.054755847,orange,1,-0.054755847,0.273779233,red,1,0.273779233,0.273779233,green,1,-0.054755847,-0.273779233,yellow,1,0.273779233,-0.054755847,blue,1,-0.16426754,0.16426754,black,1,0.05,0.05,0.15,0.273779233,0.273779233,cyan,l,000106,27,2020-08-13_11h52.52.482,CDT_GNG_IUS12,2020.1.2,MacIntel,60,,,,,,,,,,,,,,,,,,,,,,,,,,,,,,,,,,,,,,,,,,,,,,,,,,,,,,,,,,
,,,,,,,,,,22,same,4,-0.054755847,-0.16426754,green,1,-0.16426754,0.054755847,blue,1,0.16426754,0.16426754,yellow,1,0.273779233,-0.054755847,black,1,-0.273779233,-0.054755847,red,0,-0.054755847,0.16426754,cyan,0,0.05,0.05,0.15,0.273779233,-0.054755847,black,k,000106,27,2020-08-13_11h52.52.482,CDT_GNG_IUS12,2020.1.2,MacIntel,60,,l,0,0.667,0,0,0,21,1,,,,,,,,,,,,,,,,,,,,,,,,,,,,,,,,,,,,,,,,,,,,,,,,,
,,,,,,,,,,116,different,6,-0.273779233,0.16426754,green,1,-0.054755847,-0.054755847,orange,1,0.273779233,-0.273779233,cyan,1,0.054755847,0.273779233,red,1,-0.054755847,0.16426754,blue,1,-0.16426754,-0.054755847,yellow,1,0.05,0.05,0.15,-0.054755847,-0.054755847,magenta,l,000106,27,2020-08-13_11h52.52.482,CDT_GNG_IUS12,2020.1.2,MacIntel,60,,l,1,0.894,0,1,1,115,1,,,,,,,,,,,,,,,,,,,,,,,,,,,,,,,,,,,,,,,,,,,,,,,,,
,,,,,,,,,,44,different,4,0.16426754,0.16426754,green,1,0.16426754,-0.16426754,black,1,-0.16426754,-0.054755847,cyan,1,-0.16426754,0.054755847,magenta,1,0.16426754,0.054755847,blue,0,0.054755847,-0.273779233,yellow,0,0.05,0.05,0.15,0.16426754,0.16426754,red,l,000106,27,2020-08-13_11h52.52.482,CDT_GNG_IUS12,2020.1.2,MacIntel,60,,l,1,0.715,0,2,2,43,1,,,,,,,,,,,,,,,,,,,,,,,,,,,,,,,,,,,,,,,,,,,,,,,,,
,,,,,,,,,,115,different,6,-0.16426754,0.273779233,magenta,1,-0.273779233,-0.054755847,blue,1,0.273779233,0.273779233,red,1,0.054755847,-0.273779233,cyan,1,-0.054755847,0.16426754,green,1,-0.273779233,-0.273779233,yellow,1,0.05,0.05,0.15,-0.273779233,-0.054755847,yellow,l,000106,27,2020-08-13_11h52.52.482,CDT_GNG_IUS12,2020.1.2,MacIntel,60,,l,1,1.334,0,3,3,114,1,,,,,,,,,,,,,,,,,,,,,,,,,,,,,,,,,,,,,,,,,,,,,,,,,
,,,,,,,,,,81,same,6,-0.273779233,-0.273779233,green,1,-0.273779233,0.16426754,blue,1,0.054755847,-0.16426754,black,1,0.273779233,0.054755847,cyan,1,-0.16426754,-0.273779233,orange,1,-0.054755847,0.054755847,red,1,0.05,0.05,0.15,0.054755847,-0.16426754,black,k,000106,27,2020-08-13_11h52.52.482,CDT_GNG_IUS12,2020.1.2,MacIntel,60,,k,1,0.875,0,4,4,80,1,,,,,,,,,,,,,,,,,,,,,,,,,,,,,,,,,,,,,,,,,,,,,,,,,
,,,,,,,,,,18,same,4,-0.054755847,0.273779233,black,1,-0.16426754,-0.16426754,cyan,1,0.054755847,0.16426754,red,1,0.273779233,-0.273779233,magenta,1,-0.16426754,0.273779233,orange,0,-0.054755847,-0.273779233,green,0,0.05,0.05,0.15,0.273779233,-0.273779233,magenta,k,000106,27,2020-08-13_11h52.52.482,CDT_GNG_IUS12,2020.1.2,MacIntel,60,,l,0,1.225,0,5,5,17,1,,,,,,,,,,,,,,,,,,,,,,,,,,,,,,,,,,,,,,,,,,,,,,,,,
,,,,,,,,,,75,same,6,0.16426754,0.273779233,magenta,1,-0.273779233,-0.16426754,green,1,-0.273779233,0.16426754,yellow,1,0.054755847,-0.054755847,red,1,0.273779233,0.054755847,blue,1,-0.16426754,-0.054755847,cyan,1,0.05,0.05,0.15,0.054755847,-0.054755847,red,k,000106,27,2020-08-13_11h52.52.482,CDT_GNG_IUS12,2020.1.2,MacIntel,60,,k,1,0.751,0,6,6,74,1,,,,,,,,,,,,,,,,,,,,,,,,,,,,,,,,,,,,,,,,,,,,,,,,,
,,,,,,,,,,76,same,6,0.16426754,0.054755847,cyan,1,0.273779233,-0.273779233,red,1,-0.054755847,-0.273779233,magenta,1,-0.054755847,0.16426754,yellow,1,0.054755847,0.273779233,blue,1,0.054755847,-0.273779233,green,1,0.05,0.05,0.15,0.16426754,0.054755847,cyan,k,000106,27,2020-08-13_11h52.52.482,CDT_GNG_IUS12,2020.1.2,MacIntel,60,,k,1,0.583,0,7,7,75,1,,,,,,,,,,,,,,,,,,,,,,,,,,,,,,,,,,,,,,,,,,,,,,,,,
,,,,,,,,,,19,same,4,-0.054755847,-0.16426754,orange,1,-0.273779233,0.273779233,red,1,0.273779233,0.054755847,yellow,1,0.273779233,-0.16426754,magenta,1,-0.273779233,-0.054755847,black,0,-0.054755847,0.273779233,blue,0,0.05,0.05,0.15,0.273779233,-0.16426754,magenta,k,000106,27,2020-08-13_11h52.52.482,CDT_GNG_IUS12,2020.1.2,MacIntel,60,,k,1,0.867,0,8,8,18,1,,,,,,,,,,,,,,,,,,,,,,,,,,,,,,,,,,,,,,,,,,,,,,,,,
,,,,,,,,,,29,same,4,0.273779233,0.054755847,magenta,1,-0.054755847,0.273779233,cyan,1,0.16426754,-0.054755847,green,1,-0.16426754,-0.054755847,black,1,0.273779233,0.16426754,orange,0,-0.16426754,0.054755847,blue,0,0.05,0.05,0.15,0.16426754,-0.054755847,green,k,000106,27,2020-08-13_11h52.52.482,CDT_GNG_IUS12,2020.1.2,MacIntel,60,,k,1,0.716,0,9,9,28,1,,,,,,,,,,,,,,,,,,,,,,,,,,,,,,,,,,,,,,,,,,,,,,,,,
,,,,,,,,,,34,different,4,0.16426754,0.16426754,yellow,1,0.273779233,-0.16426754,cyan,1,-0.273779233,-0.273779233,magenta,1,-0.273779233,0.16426754,green,1,0.054755847,0.054755847,black,0,0.273779233,-0.273779233,orange,0,0.05,0.05,0.15,0.16426754,0.16426754,cyan,l,000106,27,2020-08-13_11h52.52.482,CDT_GNG_IUS12,2020.1.2,MacIntel,60,,l,1,0.671,0,10,10,33,1,,,,,,,,,,,,,,,,,,,,,,,,,,,,,,,,,,,,,,,,,,,,,,,,,
,,,,,,,,,,77,same,6,0.273779233,0.273779233,black,1,-0.273779233,-0.16426754,red,1,0.16426754,-0.054755847,magenta,1,-0.054755847,0.16426754,cyan,1,0.16426754,0.273779233,orange,1,-0.16426754,-0.273779233,blue,1,0.05,0.05,0.15,-0.273779233,-0.16426754,red,k,000106,27,2020-08-13_11h52.52.482,CDT_GNG_IUS12,2020.1.2,MacIntel,60,,l,0,1.217,0,11,11,76,1,,,,,,,,,,,,,,,,,,,,,,,,,,,,,,,,,,,,,,,,,,,,,,,,,
,,,,,,,,,,69,same,6,-0.054755847,-0.054755847,black,1,0.273779233,-0.054755847,orange,1,-0.273779233,0.16426754,blue,1,0.054755847,0.054755847,yellow,1,-0.16426754,-0.16426754,green,1,0.054755847,-0.16426754,magenta,1,0.05,0.05,0.15,-0.16426754,-0.16426754,green,k,000106,27,2020-08-13_11h52.52.482,CDT_GNG_IUS12,2020.1.2,MacIntel,60,,k,1,1.1,0,12,12,68,1,,,,,,,,,,,,,,,,,,,,,,,,,,,,,,,,,,,,,,,,,,,,,,,,,
,,,,,,,,,,118,different,6,-0.16426754,-0.16426754,red,1,0.273779233,0.16426754,orange,1,-0.16426754,0.273779233,cyan,1,0.16426754,-0.273779233,black,1,-0.054755847,-0.054755847,yellow,1,0.054755847,0.054755847,green,1,0.05,0.05,0.15,-0.054755847,-0.054755847,magenta,l,000106,27,2020-08-13_11h52.52.482,CDT_GNG_IUS12,2020.1.2,MacIntel,60,,l,1,0.675,0,13,13,117,1,,,,,,,,,,,,,,,,,,,,,,,,,,,,,,,,,,,,,,,,,,,,,,,,,
,,,,,,,,,,90,same,6,0.16426754,-0.054755847,black,1,-0.273779233,-0.054755847,orange,1,-0.16426754,0.16426754,cyan,1,0.273779233,0.273779233,blue,1,0.054755847,-0.054755847,magenta,1,-0.273779233,-0.273779233,yellow,1,0.05,0.05,0.15,-0.273779233,-0.054755847,orange,k,000106,27,2020-08-13_11h52.52.482,CDT_GNG_IUS12,2020.1.2,MacIntel,60,,l,0,1.55,0,14,14,89,1,,,,,,,,,,,,,,,,,,,,,,,,,,,,,,,,,,,,,,,,,,,,,,,,,
,,,,,,,,,,91,different,6,-0.054755847,0.054755847,green,1,0.054755847,-0.16426754,cyan,1,-0.054755847,-0.054755847,black,1,0.16426754,0.273779233,yellow,1,-0.273779233,0.273779233,magenta,1,0.16426754,-0.054755847,red,1,0.05,0.05,0.15,0.16426754,-0.054755847,green,l,000106,27,2020-08-13_11h52.52.482,CDT_GNG_IUS12,2020.1.2,MacIntel,60,,l,1,0.816,0,15,15,90,1,,,,,,,,,,,,,,,,,,,,,,,,,,,,,,,,,,,,,,,,,,,,,,,,,
,,,,,,,,,,64,same,6,0.16426754,0.273779233,black,1,-0.16426754,-0.16426754,orange,1,0.16426754,-0.16426754,red,1,-0.273779233,0.054755847,magenta,1,0.054755847,0.16426754,cyan,1,-0.054755847,-0.16426754,yellow,1,0.05,0.05,0.15,0.16426754,0.273779233,black,k,000106,27,2020-08-13_11h52.52.482,CDT_GNG_IUS12,2020.1.2,MacIntel,60,,l,0,1.067,0,16,16,63,1,,,,,,,,,,,,,,,,,,,,,,,,,,,,,,,,,,,,,,,,,,,,,,,,,
,,,,,,,,,,15,same,4,0.054755847,-0.273779233,yellow,1,-0.273779233,-0.054755847,cyan,1,0.273779233,0.16426754,green,1,-0.16426754,0.16426754,blue,1,0.273779233,-0.054755847,magenta,0,-0.16426754,-0.054755847,orange,0,0.05,0.05,0.15,-0.273779233,-0.054755847,cyan,k,000106,27,2020-08-13_11h52.52.482,CDT_GNG_IUS12,2020.1.2,MacIntel,60,,k,1,0.812,0,17,17,14,1,,,,,,,,,,,,,,,,,,,,,,,,,,,,,,,,,,,,,,,,,,,,,,,,,
,,,,,,,,,,94,different,6,0.273779233,-0.273779233,green,1,-0.16426754,-0.054755847,black,1,-0.273779233,0.16426754,blue,1,0.273779233,0.054755847,cyan,1,0.16426754,-0.16426754,magenta,1,-0.054755847,-0.054755847,orange,1,0.05,0.05,0.15,0.273779233,-0.273779233,magenta,l,000106,27,2020-08-13_11h52.52.482,CDT_GNG_IUS12,2020.1.2,MacIntel,60,,k,0,1.091,0,18,18,93,1,,,,,,,,,,,,,,,,,,,,,,,,,,,,,,,,,,,,,,,,,,,,,,,,,
,,,,,,,,,,95,different,6,-0.273779233,-0.16426754,magenta,1,0.16426754,0.273779233,green,1,-0.273779233,0.273779233,black,1,0.16426754,-0.273779233,orange,1,-0.054755847,-0.16426754,blue,1,0.16426754,0.054755847,cyan,1,0.05,0.05,0.15,0.16426754,0.273779233,black,l,000106,27,2020-08-13_11h52.52.482,CDT_GNG_IUS12,2020.1.2,MacIntel,60,,l,1,0.983,0,19,19,94,1,,,,,,,,,,,,,,,,,,,,,,,,,,,,,,,,,,,,,,,,,,,,,,,,,
,,,,,,,,,,114,different,6,-0.16426754,0.16426754,black,1,-0.054755847,-0.273779233,orange,1,0.054755847,0.16426754,magenta,1,0.273779233,-0.16426754,green,1,-0.054755847,0.16426754,cyan,1,-0.273779233,-0.273779233,yellow,1,0.05,0.05,0.15,0.054755847,0.16426754,blue,l,000106,27,2020-08-13_11h52.52.482,CDT_GNG_IUS12,2020.1.2,MacIntel,60,,l,1,1.057,0,20,20,113,1,,,,,,,,,,,,,,,,,,,,,,,,,,,,,,,,,,,,,,,,,,,,,,,,,
,,,,,,,,,,66,same,6,0.273779233,-0.273779233,cyan,1,-0.273779233,-0.054755847,black,1,-0.273779233,0.054755847,yellow,1,0.273779233,0.16426754,green,1,0.054755847,-0.16426754,orange,1,-0.273779233,-0.16426754,magenta,1,0.05,0.05,0.15,0.273779233,0.16426754,green,k,000106,27,2020-08-13_11h52.52.482,CDT_GNG_IUS12,2020.1.2,MacIntel,60,,l,0,1.576,0,21,21,65,1,,,,,,,,,,,,,,,,,,,,,,,,,,,,,,,,,,,,,,,,,,,,,,,,,
,,,,,,,,,,28,same,4,0.16426754,-0.273779233,yellow,1,-0.054755847,0.16426754,black,1,0.16426754,0.054755847,cyan,1,-0.273779233,-0.16426754,blue,1,0.273779233,-0.273779233,orange,0,-0.054755847,0.054755847,magenta,0,0.05,0.05,0.15,-0.054755847,0.16426754,black,k,000106,27,2020-08-13_11h52.52.482,CDT_GNG_IUS12,2020.1.2,MacIntel,60,,l,0,1.116,0,22,22,27,1,,,,,,,,,,,,,,,,,,,,,,,,,,,,,,,,,,,,,,,,,,,,,,,,,
,,,,,,,,,,36,different,4,-0.16426754,-0.054755847,cyan,1,0.16426754,0.054755847,red,1,0.16426754,-0.054755847,black,1,-0.273779233,0.273779233,orange,1,-0.054755847,-0.054755847,yellow,0,0.273779233,0.273779233,green,0,0.05,0.05,0.15,0.16426754,-0.054755847,orange,l,000106,27,2020-08-13_11h52.52.482,CDT_GNG_IUS12,2020.1.2,MacIntel,60,,l,1,0.993,0,23,23,35,1,,,,,,,,,,,,,,,,,,,,,,,,,,,,,,,,,,,,,,,,,,,,,,,,,
,,,,,,,,,,119,different,6,-0.273779233,0.054755847,cyan,1,-0.273779233,-0.273779233,blue,1,0.16426754,0.054755847,orange,1,0.054755847,-0.16426754,yellow,1,-0.273779233,0.273779233,black,1,-0.054755847,-0.054755847,green,1,0.05,0.05,0.15,-0.273779233,-0.273779233,cyan,l,000106,27,2020-08-13_11h52.52.482,CDT_GNG_IUS12,2020.1.2,MacIntel,60,,l,1,1.116,0,24,24,118,1,,,,,,,,,,,,,,,,,,,,,,,,,,,,,,,,,,,,,,,,,,,,,,,,,
,,,,,,,,,,105,different,6,0.054755847,0.273779233,cyan,1,0.273779233,-0.16426754,magenta,1,-0.16426754,-0.054755847,yellow,1,-0.16426754,0.16426754,blue,1,0.273779233,0.16426754,orange,1,0.16426754,-0.273779233,green,1,0.05,0.05,0.15,0.16426754,-0.273779233,blue,l,000106,27,2020-08-13_11h52.52.482,CDT_GNG_IUS12,2020.1.2,MacIntel,60,,l,1,1.486,0,25,25,104,1,,,,,,,,,,,,,,,,,,,,,,,,,,,,,,,,,,,,,,,,,,,,,,,,,
,,,,,,,,,,61,same,6,0.273779233,0.16426754,cyan,1,0.273779233,-0.273779233,blue,1,-0.16426754,-0.16426754,green,1,-0.16426754,0.273779233,black,1,0.16426754,0.054755847,red,1,0.273779233,-0.16426754,yellow,1,0.05,0.05,0.15,0.273779233,-0.16426754,yellow,k,000106,27,2020-08-13_11h52.52.482,CDT_GNG_IUS12,2020.1.2,MacIntel,60,,l,0,0.732,0,26,26,60,1,,,,,,,,,,,,,,,,,,,,,,,,,,,,,,,,,,,,,,,,,,,,,,,,,
,,,,,,,,,,41,different,4,0.054755847,-0.273779233,orange,1,-0.273779233,0.054755847,blue,1,-0.054755847,-0.16426754,yellow,1,0.273779233,0.16426754,red,1,0.273779233,-0.273779233,black,0,-0.273779233,0.273779233,magenta,0,0.05,0.05,0.15,-0.054755847,-0.16426754,black,l,000106,27,2020-08-13_11h52.52.482,CDT_GNG_IUS12,2020.1.2,MacIntel,60,,l,1,0.872,0,27,27,40,1,,,,,,,,,,,,,,,,,,,,,,,,,,,,,,,,,,,,,,,,,,,,,,,,,
,,,,,,,,,,59,different,4,0.16426754,-0.16426754,red,1,-0.054755847,-0.16426754,cyan,1,0.054755847,0.16426754,yellow,1,-0.16426754,0.273779233,green,1,0.16426754,-0.054755847,orange,0,-0.16426754,-0.054755847,black,0,0.05,0.05,0.15,-0.16426754,0.273779233,black,l,000106,27,2020-08-13_11h52.52.482,CDT_GNG_IUS12,2020.1.2,MacIntel,60,,k,0,1.004,0,28,28,58,1,,,,,,,,,,,,,,,,,,,,,,,,,,,,,,,,,,,,,,,,,,,,,,,,,
,,,,,,,,,,3,same,4,-0.054755847,-0.054755847,yellow,1,-0.054755847,0.054755847,cyan,1,0.16426754,-0.273779233,black,1,0.273779233,0.273779233,magenta,1,-0.054755847,-0.273779233,orange,0,-0.273779233,0.054755847,green,0,0.05,0.05,0.15,0.273779233,0.273779233,magenta,k,000106,27,2020-08-13_11h52.52.482,CDT_GNG_IUS12,2020.1.2,MacIntel,60,,k,1,0.851,0,29,29,2,1,,,,,,,,,,,,,,,,,,,,,,,,,,,,,,,,,,,,,,,,,,,,,,,,,
,,,,,,,,,,40,different,4,-0.273779233,-0.273779233,magenta,1,0.054755847,-0.16426754,yellow,1,-0.16426754,0.054755847,red,1,0.273779233,0.273779233,orange,1,-0.054755847,-0.054755847,cyan,0,0.16426754,-0.16426754,green,0,0.05,0.05,0.15,0.273779233,0.273779233,black,l,000106,27,2020-08-13_11h52.52.482,CDT_GNG_IUS12,2020.1.2,MacIntel,60,,l,1,0.949,0,30,30,39,1,,,,,,,,,,,,,,,,,,,,,,,,,,,,,,,,,,,,,,,,,,,,,,,,,
,,,,,,,,,,56,different,4,0.16426754,0.054755847,red,1,-0.054755847,0.16426754,orange,1,0.16426754,-0.16426754,black,1,-0.273779233,-0.054755847,yellow,1,0.16426754,0.273779233,blue,0,-0.054755847,0.273779233,magenta,0,0.05,0.05,0.15,-0.273779233,-0.054755847,green,l,000106,27,2020-08-13_11h52.52.482,CDT_GNG_IUS12,2020.1.2,MacIntel,60,,l,1,0.972,0,31,31,55,1,,,,,,,,,,,,,,,,,,,,,,,,,,,,,,,,,,,,,,,,,,,,,,,,,
,,,,,,,,,,79,same,6,0.054755847,-0.16426754,black,1,-0.054755847,-0.273779233,yellow,1,-0.273779233,0.273779233,red,1,0.054755847,0.054755847,magenta,1,0.16426754,-0.054755847,cyan,1,-0.16426754,-0.054755847,orange,1,0.05,0.05,0.15,0.054755847,0.054755847,magenta,k,000106,27,2020-08-13_11h52.52.482,CDT_GNG_IUS12,2020.1.2,MacIntel,60,,l,0,0.939,0,32,32,78,1,,,,,,,,,,,,,,,,,,,,,,,,,,,,,,,,,,,,,,,,,,,,,,,,,
,,,,,,,,,,68,same,6,0.16426754,-0.054755847,blue,1,-0.054755847,-0.16426754,orange,1,-0.16426754,0.054755847,red,1,0.16426754,0.273779233,magenta,1,0.054755847,-0.054755847,black,1,-0.273779233,-0.273779233,yellow,1,0.05,0.05,0.15,-0.054755847,-0.16426754,orange,k,000106,27,2020-08-13_11h52.52.482,CDT_GNG_IUS12,2020.1.2,MacIntel,60,,l,0,1.492,0,33,33,67,1,,,,,,,,,,,,,,,,,,,,,,,,,,,,,,,,,,,,,,,,,,,,,,,,,
,,,,,,,,,,49,different,4,-0.16426754,-0.273779233,black,1,0.16426754,0.16426754,red,1,-0.273779233,0.16426754,yellow,1,0.054755847,-0.273779233,green,1,-0.273779233,-0.273779233,magenta,0,0.054755847,0.273779233,blue,0,0.05,0.05,0.15,0.054755847,-0.273779233,orange,l,000106,27,2020-08-13_11h52.52.482,CDT_GNG_IUS12,2020.1.2,MacIntel,60,,l,1,0.801,0,34,34,48,1,,,,,,,,,,,,,,,,,,,,,,,,,,,,,,,,,,,,,,,,,,,,,,,,,
,,,,,,,,,,23,same,4,0.273779233,-0.16426754,yellow,1,0.054755847,0.273779233,red,1,-0.054755847,0.054755847,black,1,-0.273779233,-0.054755847,orange,1,0.273779233,-0.054755847,green,0,0.273779233,0.054755847,magenta,0,0.05,0.05,0.15,-0.054755847,0.054755847,black,k,000106,27,2020-08-13_11h52.52.482,CDT_GNG_IUS12,2020.1.2,MacIntel,60,,k,1,0.703,0,35,35,22,1,,,,,,,,,,,,,,,,,,,,,,,,,,,,,,,,,,,,,,,,,,,,,,,,,
,,,,,,,,,,70,same,6,0.16426754,0.16426754,cyan,1,0.273779233,-0.273779233,red,1,-0.16426754,0.16426754,yellow,1,-0.273779233,-0.273779233,green,1,0.16426754,0.054755847,magenta,1,0.16426754,-0.054755847,blue,1,0.05,0.05,0.15,0.273779233,-0.273779233,red,k,000106,27,2020-08-13_11h52.52.482,CDT_GNG_IUS12,2020.1.2,MacIntel,60,,k,1,1.162,0,36,36,69,1,,,,,,,,,,,,,,,,,,,,,,,,,,,,,,,,,,,,,,,,,,,,,,,,,
,,,,,,,,,,37,different,4,0.273779233,-0.273779233,cyan,1,-0.054755847,0.054755847,orange,1,-0.054755847,-0.16426754,yellow,1,0.16426754,0.054755847,blue,1,0.054755847,-0.273779233,red,0,-0.273779233,0.16426754,green,0,0.05,0.05,0.15,-0.054755847,0.054755847,green,l,000106,27,2020-08-13_11h52.52.482,CDT_GNG_IUS12,2020.1.2,MacIntel,60,,l,1,0.551,0,37,37,36,1,,,,,,,,,,,,,,,,,,,,,,,,,,,,,,,,,,,,,,,,,,,,,,,,,
,,,,,,,,,,1,same,4,-0.16426754,-0.273779233,orange,1,0.054755847,0.16426754,yellow,1,-0.16426754,0.16426754,green,1,0.054755847,-0.054755847,red,1,-0.273779233,-0.16426754,cyan,0,0.16426754,0.16426754,blue,0,0.05,0.05,0.15,0.054755847,0.16426754,yellow,k,000106,27,2020-08-13_11h52.52.482,CDT_GNG_IUS12,2020.1.2,MacIntel,60,,l,0,0.669,0,38,38,0,1,,,,,,,,,,,,,,,,,,,,,,,,,,,,,,,,,,,,,,,,,,,,,,,,,
,,,,,,,,,,67,same,6,0.273779233,-0.054755847,magenta,1,0.16426754,0.273779233,orange,1,-0.273779233,0.273779233,cyan,1,-0.16426754,-0.054755847,yellow,1,0.16426754,-0.16426754,blue,1,0.16426754,0.16426754,red,1,0.05,0.05,0.15,-0.273779233,0.273779233,cyan,k,000106,27,2020-08-13_11h52.52.482,CDT_GNG_IUS12,2020.1.2,MacIntel,60,,l,0,0.774,0,39,39,66,1,,,,,,,,,,,,,,,,,,,,,,,,,,,,,,,,,,,,,,,,,,,,,,,,,
,,,,,,,,,,110,different,6,-0.273779233,0.273779233,black,1,0.273779233,-0.16426754,red,1,0.054755847,0.273779233,cyan,1,-0.273779233,-0.16426754,orange,1,-0.054755847,0.054755847,magenta,1,0.16426754,-0.054755847,yellow,1,0.05,0.05,0.15,0.273779233,-0.16426754,yellow,l,000106,27,2020-08-13_11h52.52.482,CDT_GNG_IUS12,2020.1.2,MacIntel,60,,k,0,1.095,0,40,40,109,1,,,,,,,,,,,,,,,,,,,,,,,,,,,,,,,,,,,,,,,,,,,,,,,,,
,,,,,,,,,,33,different,4,-0.273779233,0.273779233,yellow,1,0.16426754,-0.16426754,cyan,1,-0.273779233,-0.273779233,black,1,0.054755847,0.273779233,blue,1,-0.16426754,0.273779233,green,0,0.054755847,-0.273779233,orange,0,0.05,0.05,0.15,-0.273779233,-0.273779233,cyan,l,000106,27,2020-08-13_11h52.52.482,CDT_GNG_IUS12,2020.1.2,MacIntel,60,,l,1,0.992,0,41,41,32,1,,,,,,,,,,,,,,,,,,,,,,,,,,,,,,,,,,,,,,,,,,,,,,,,,
,,,,,,,,,,51,different,4,-0.16426754,-0.273779233,yellow,1,0.16426754,-0.273779233,cyan,1,0.273779233,0.054755847,blue,1,-0.054755847,0.273779233,green,1,-0.16426754,-0.054755847,black,0,0.273779233,-0.273779233,red,0,0.05,0.05,0.15,0.16426754,-0.273779233,red,l,000106,27,2020-08-13_11h52.52.482,CDT_GNG_IUS12,2020.1.2,MacIntel,60,,l,1,0.884,0,42,42,50,1,,,,,,,,,,,,,,,,,,,,,,,,,,,,,,,,,,,,,,,,,,,,,,,,,
,,,,,,,,,,24,same,4,0.054755847,-0.16426754,red,1,0.054755847,0.054755847,yellow,1,-0.273779233,0.16426754,orange,1,-0.273779233,-0.16426754,magenta,1,0.273779233,-0.16426754,black,0,0.273779233,0.273779233,green,0,0.05,0.05,0.15,0.054755847,-0.16426754,red,k,000106,27,2020-08-13_11h52.52.482,CDT_GNG_IUS12,2020.1.2,MacIntel,60,,k,1,0.699,0,43,43,23,1,,,,,,,,,,,,,,,,,,,,,,,,,,,,,,,,,,,,,,,,,,,,,,,,,
,,,,,,,,,,38,different,4,0.273779233,-0.16426754,red,1,-0.054755847,0.16426754,blue,1,-0.273779233,-0.054755847,green,1,0.273779233,0.054755847,cyan,1,0.16426754,-0.054755847,orange,0,-0.054755847,0.054755847,yellow,0,0.05,0.05,0.15,0.273779233,0.054755847,black,l,000106,27,2020-08-13_11h52.52.482,CDT_GNG_IUS12,2020.1.2,MacIntel,60,,l,1,0.819,0,44,44,37,1,,,,,,,,,,,,,,,,,,,,,,,,,,,,,,,,,,,,,,,,,,,,,,,,,
,,,,,,,,,,21,same,4,0.273779233,0.273779233,black,1,-0.273779233,-0.273779233,blue,1,0.054755847,-0.16426754,yellow,1,-0.273779233,0.054755847,cyan,1,0.16426754,0.273779233,magenta,0,-0.054755847,-0.054755847,green,0,0.05,0.05,0.15,0.273779233,0.273779233,black,k,000106,27,2020-08-13_11h52.52.482,CDT_GNG_IUS12,2020.1.2,MacIntel,60,,k,1,0.801,0,45,45,20,1,,,,,,,,,,,,,,,,,,,,,,,,,,,,,,,,,,,,,,,,,,,,,,,,,
,,,,,,,,,,111,different,6,0.273779233,0.273779233,green,1,0.054755847,-0.16426754,red,1,-0.16426754,-0.16426754,black,1,-0.16426754,0.16426754,magenta,1,0.054755847,0.054755847,blue,1,0.273779233,-0.16426754,yellow,1,0.05,0.05,0.15,0.273779233,-0.16426754,green,l,000106,27,2020-08-13_11h52.52.482,CDT_GNG_IUS12,2020.1.2,MacIntel,60,,l,1,0.956,0,46,46,110,1,,,,,,,,,,,,,,,,,,,,,,,,,,,,,,,,,,,,,,,,,,,,,,,,,
,,,,,,,,,,53,different,4,-0.16426754,0.054755847,green,1,0.273779233,0.054755847,cyan,1,-0.273779233,-0.273779233,magenta,1,0.054755847,-0.16426754,black,1,-0.054755847,0.16426754,red,0,0.273779233,0.273779233,blue,0,0.05,0.05,0.15,-0.273779233,-0.273779233,black,l,000106,27,2020-08-13_11h52.52.482,CDT_GNG_IUS12,2020.1.2,MacIntel,60,,k,0,1.084,0,47,47,52,1,,,,,,,,,,,,,,,,,,,,,,,,,,,,,,,,,,,,,,,,,,,,,,,,,
,,,,,,,,,,72,same,6,0.273779233,-0.16426754,blue,1,0.16426754,0.273779233,yellow,1,-0.16426754,0.273779233,magenta,1,-0.273779233,-0.054755847,orange,1,0.054755847,-0.16426754,cyan,1,0.273779233,0.054755847,black,1,0.05,0.05,0.15,-0.16426754,0.273779233,magenta,k,000106,27,2020-08-13_11h52.52.482,CDT_GNG_IUS12,2020.1.2,MacIntel,60,,l,0,1.275,0,48,48,71,1,,,,,,,,,,,,,,,,,,,,,,,,,,,,,,,,,,,,,,,,,,,,,,,,,
,,,,,,,,,,2,same,4,0.273779233,0.054755847,magenta,1,-0.273779233,0.273779233,red,1,-0.054755847,-0.054755847,yellow,1,0.273779233,-0.273779233,blue,1,0.054755847,0.16426754,green,0,-0.16426754,0.054755847,cyan,0,0.05,0.05,0.15,0.273779233,-0.273779233,blue,k,000106,27,2020-08-13_11h52.52.482,CDT_GNG_IUS12,2020.1.2,MacIntel,60,,l,0,0.867,0,49,49,1,1,,,,,,,,,,,,,,,,,,,,,,,,,,,,,,,,,,,,,,,,,,,,,,,,,
,,,,,,,,,,104,different,6,0.054755847,-0.16426754,magenta,1,0.273779233,0.273779233,yellow,1,-0.273779233,0.273779233,blue,1,-0.16426754,-0.054755847,cyan,1,0.16426754,-0.054755847,orange,1,0.273779233,0.16426754,green,1,0.05,0.05,0.15,0.054755847,-0.16426754,cyan,l,000106,27,2020-08-13_11h52.52.482,CDT_GNG_IUS12,2020.1.2,MacIntel,60,,l,1,0.924,0,50,50,103,1,,,,,,,,,,,,,,,,,,,,,,,,,,,,,,,,,,,,,,,,,,,,,,,,,
,,,,,,,,,,87,same,6,0.273779233,0.16426754,green,1,-0.16426754,-0.054755847,black,1,-0.054755847,0.054755847,cyan,1,0.273779233,-0.054755847,blue,1,0.054755847,0.054755847,yellow,1,-0.273779233,-0.273779233,red,1,0.05,0.05,0.15,-0.273779233,-0.273779233,red,k,000106,27,2020-08-13_11h52.52.482,CDT_GNG_IUS12,2020.1.2,MacIntel,60,,l,0,1.407,0,51,51,86,1,,,,,,,,,,,,,,,,,,,,,,,,,,,,,,,,,,,,,,,,,,,,,,,,,
,,,,,,,,,,71,same,6,-0.054755847,-0.16426754,orange,1,0.273779233,0.054755847,green,1,0.16426754,-0.16426754,yellow,1,-0.054755847,0.054755847,blue,1,-0.054755847,-0.273779233,black,1,0.054755847,0.16426754,cyan,1,0.05,0.05,0.15,-0.054755847,0.054755847,blue,k,000106,27,2020-08-13_11h52.52.482,CDT_GNG_IUS12,2020.1.2,MacIntel,60,,l,0,1.909,0,52,52,70,1,,,,,,,,,,,,,,,,,,,,,,,,,,,,,,,,,,,,,,,,,,,,,,,,,
,,,,,,,,,,35,different,4,-0.054755847,-0.054755847,black,1,0.054755847,0.273779233,magenta,1,-0.273779233,0.054755847,blue,1,0.273779233,-0.054755847,red,1,-0.054755847,-0.16426754,cyan,0,0.054755847,0.054755847,yellow,0,0.05,0.05,0.15,0.054755847,0.273779233,cyan,l,000106,27,2020-08-13_11h52.52.482,CDT_GNG_IUS12,2020.1.2,MacIntel,60,,k,0,1.024,0,53,53,34,1,,,,,,,,,,,,,,,,,,,,,,,,,,,,,,,,,,,,,,,,,,,,,,,,,
,,,,,,,,,,102,different,6,-0.273779233,-0.273779233,magenta,1,0.054755847,0.16426754,green,1,0.16426754,-0.273779233,yellow,1,-0.16426754,0.054755847,orange,1,-0.16426754,-0.273779233,red,1,0.273779233,0.054755847,cyan,1,0.05,0.05,0.15,-0.273779233,-0.273779233,yellow,l,000106,27,2020-08-13_11h52.52.482,CDT_GNG_IUS12,2020.1.2,MacIntel,60,,l,1,0.689,0,54,54,101,1,,,,,,,,,,,,,,,,,,,,,,,,,,,,,,,,,,,,,,,,,,,,,,,,,
,,,,,,,,,,11,same,4,0.273779233,0.16426754,black,1,-0.054755847,0.273779233,cyan,1,0.16426754,-0.054755847,blue,1,-0.273779233,-0.16426754,orange,1,0.054755847,0.273779233,magenta,0,-0.273779233,0.054755847,green,0,0.05,0.05,0.15,0.273779233,0.16426754,black,k,000106,27,2020-08-13_11h52.52.482,CDT_GNG_IUS12,2020.1.2,MacIntel,60,,k,1,0.741,0,55,55,10,1,,,,,,,,,,,,,,,,,,,,,,,,,,,,,,,,,,,,,,,,,,,,,,,,,
,,,,,,,,,,113,different,6,-0.273779233,0.054755847,black,1,-0.16426754,-0.16426754,blue,1,0.054755847,-0.16426754,orange,1,0.16426754,0.16426754,red,1,-0.273779233,0.273779233,green,1,-0.273779233,-0.16426754,magenta,1,0.05,0.05,0.15,-0.273779233,-0.16426754,black,l,000106,27,2020-08-13_11h52.52.482,CDT_GNG_IUS12,2020.1.2,MacIntel,60,,l,1,1.009,0,56,56,112,1,,,,,,,,,,,,,,,,,,,,,,,,,,,,,,,,,,,,,,,,,,,,,,,,,
,,,,,,,,,,106,different,6,0.054755847,-0.16426754,blue,1,-0.273779233,-0.273779233,magenta,1,0.273779233,0.273779233,yellow,1,-0.273779233,0.054755847,orange,1,0.054755847,-0.054755847,green,1,-0.054755847,-0.16426754,black,1,0.05,0.05,0.15,0.054755847,-0.054755847,cyan,l,000106,27,2020-08-13_11h52.52.482,CDT_GNG_IUS12,2020.1.2,MacIntel,60,,l,1,1.052,0,57,57,105,1,,,,,,,,,,,,,,,,,,,,,,,,,,,,,,,,,,,,,,,,,,,,,,,,,
,,,,,,,,,,54,different,4,-0.054755847,-0.054755847,black,1,0.054755847,0.054755847,cyan,1,0.273779233,-0.16426754,green,1,-0.273779233,0.16426754,magenta,1,-0.054755847,-0.16426754,orange,0,0.054755847,0.16426754,blue,0,0.05,0.05,0.15,-0.273779233,0.16426754,orange,l,000106,27,2020-08-13_11h52.52.482,CDT_GNG_IUS12,2020.1.2,MacIntel,60,,l,1,0.852,0,58,58,53,1,,,,,,,,,,,,,,,,,,,,,,,,,,,,,,,,,,,,,,,,,,,,,,,,,
,,,,,,,,,,99,different,6,0.054755847,0.16426754,orange,1,0.16426754,-0.16426754,yellow,1,-0.16426754,0.273779233,red,1,-0.273779233,-0.054755847,magenta,1,0.16426754,0.054755847,black,1,0.054755847,-0.054755847,green,1,0.05,0.05,0.15,-0.16426754,0.273779233,blue,l,000106,27,2020-08-13_11h52.52.482,CDT_GNG_IUS12,2020.1.2,MacIntel,60,s,l,1,1.072,0,59,59,98,1,20.911,,,,,,,,,,,,,,,,,,,,,,,,,,,,,,,,,,,,,,,,,,,,,,,,
,,,,,,,,,,5,same,4,0.273779233,-0.054755847,green,1,0.273779233,0.054755847,orange,1,-0.054755847,0.054755847,black,1,-0.054755847,-0.16426754,blue,1,0.054755847,-0.054755847,cyan,0,0.054755847,0.273779233,red,0,0.05,0.05,0.15,-0.054755847,-0.16426754,blue,k,000106,27,2020-08-13_11h52.52.482,CDT_GNG_IUS12,2020.1.2,MacIntel,60,,k,1,1.276,0,60,60,4,1,,,,,,,,,,,,,,,,,,,,,,,,,,,,,,,,,,,,,,,,,,,,,,,,,
,,,,,,,,,,52,different,4,-0.273779233,-0.16426754,magenta,1,-0.273779233,0.054755847,green,1,0.273779233,-0.054755847,cyan,1,0.273779233,0.054755847,black,1,-0.16426754,-0.16426754,orange,0,-0.054755847,0.054755847,red,0,0.05,0.05,0.15,-0.273779233,-0.16426754,black,l,000106,27,2020-08-13_11h52.52.482,CDT_GNG_IUS12,2020.1.2,MacIntel,60,,l,1,0.665,0,61,61,51,1,,,,,,,,,,,,,,,,,,,,,,,,,,,,,,,,,,,,,,,,,,,,,,,,,
,,,,,,,,,,50,different,4,-0.16426754,0.054755847,black,1,-0.273779233,-0.16426754,magenta,1,0.054755847,0.054755847,cyan,1,0.273779233,-0.16426754,green,1,-0.273779233,0.273779233,yellow,0,-0.16426754,-0.054755847,orange,0,0.05,0.05,0.15,-0.273779233,-0.16426754,yellow,l,000106,27,2020-08-13_11h52.52.482,CDT_GNG_IUS12,2020.1.2,MacIntel,60,,l,1,0.834,0,62,62,49,1,,,,,,,,,,,,,,,,,,,,,,,,,,,,,,,,,,,,,,,,,,,,,,,,,
,,,,,,,,,,14,same,4,0.16426754,0.16426754,magenta,1,-0.16426754,0.16426754,blue,1,0.16426754,-0.16426754,green,1,-0.16426754,-0.16426754,red,1,0.16426754,0.273779233,cyan,0,-0.16426754,0.273779233,orange,0,0.05,0.05,0.15,-0.16426754,0.16426754,blue,k,000106,27,2020-08-13_11h52.52.482,CDT_GNG_IUS12,2020.1.2,MacIntel,60,,l,0,1.502,0,63,63,13,1,,,,,,,,,,,,,,,,,,,,,,,,,,,,,,,,,,,,,,,,,,,,,,,,,
,,,,,,,,,,117,different,6,-0.054755847,0.054755847,black,1,0.054755847,0.273779233,magenta,1,-0.273779233,-0.273779233,yellow,1,0.054755847,-0.16426754,blue,1,-0.16426754,0.054755847,cyan,1,0.054755847,0.054755847,red,1,0.05,0.05,0.15,-0.16426754,0.054755847,black,l,000106,27,2020-08-13_11h52.52.482,CDT_GNG_IUS12,2020.1.2,MacIntel,60,,l,1,0.723,0,64,64,116,1,,,,,,,,,,,,,,,,,,,,,,,,,,,,,,,,,,,,,,,,,,,,,,,,,
,,,,,,,,,,39,different,4,0.054755847,0.054755847,green,1,0.273779233,-0.16426754,yellow,1,-0.16426754,0.054755847,orange,1,-0.273779233,-0.054755847,red,1,0.273779233,0.054755847,blue,0,0.054755847,-0.16426754,cyan,0,0.05,0.05,0.15,-0.273779233,-0.054755847,cyan,l,000106,27,2020-08-13_11h52.52.482,CDT_GNG_IUS12,2020.1.2,MacIntel,60,,l,1,0.701,0,65,65,38,1,,,,,,,,,,,,,,,,,,,,,,,,,,,,,,,,,,,,,,,,,,,,,,,,,
,,,,,,,,,,82,same,6,-0.054755847,-0.16426754,red,1,0.273779233,-0.054755847,cyan,1,0.16426754,0.273779233,blue,1,-0.054755847,0.054755847,black,1,-0.16426754,-0.16426754,yellow,1,0.273779233,-0.16426754,green,1,0.05,0.05,0.15,-0.16426754,-0.16426754,yellow,k,000106,27,2020-08-13_11h52.52.482,CDT_GNG_IUS12,2020.1.2,MacIntel,60,,k,1,1.106,0,66,66,81,1,,,,,,,,,,,,,,,,,,,,,,,,,,,,,,,,,,,,,,,,,,,,,,,,,
,,,,,,,,,,108,different,6,-0.273779233,-0.054755847,magenta,1,0.054755847,0.16426754,red,1,-0.16426754,0.054755847,cyan,1,0.054755847,-0.273779233,green,1,-0.273779233,-0.16426754,orange,1,0.273779233,0.273779233,black,1,0.05,0.05,0.15,-0.273779233,-0.054755847,blue,l,000106,27,2020-08-13_11h52.52.482,CDT_GNG_IUS12,2020.1.2,MacIntel,60,,k,0,0.956,0,67,67,107,1,,,,,,,,,,,,,,,,,,,,,,,,,,,,,,,,,,,,,,,,,,,,,,,,,
,,,,,,,,,,46,different,4,-0.16426754,0.273779233,yellow,1,-0.16426754,-0.16426754,green,1,0.16426754,0.054755847,black,1,0.273779233,-0.054755847,red,1,-0.16426754,0.16426754,blue,0,-0.273779233,-0.054755847,cyan,0,0.05,0.05,0.15,0.16426754,0.054755847,cyan,l,000106,27,2020-08-13_11h52.52.482,CDT_GNG_IUS12,2020.1.2,MacIntel,60,,l,1,0.556,0,68,68,45,1,,,,,,,,,,,,,,,,,,,,,,,,,,,,,,,,,,,,,,,,,,,,,,,,,
,,,,,,,,,,120,different,6,0.16426754,-0.054755847,blue,1,-0.16426754,-0.273779233,cyan,1,0.16426754,0.16426754,magenta,1,-0.273779233,0.273779233,black,1,0.273779233,-0.16426754,green,1,-0.273779233,-0.16426754,orange,1,0.05,0.05,0.15,0.16426754,0.16426754,yellow,l,000106,27,2020-08-13_11h52.52.482,CDT_GNG_IUS12,2020.1.2,MacIntel,60,,l,1,0.944,0,69,69,119,1,,,,,,,,,,,,,,,,,,,,,,,,,,,,,,,,,,,,,,,,,,,,,,,,,
,,,,,,,,,,86,same,6,0.054755847,0.273779233,green,1,-0.054755847,0.273779233,red,1,0.16426754,-0.16426754,yellow,1,-0.054755847,-0.273779233,black,1,0.273779233,0.273779233,cyan,1,-0.273779233,0.054755847,orange,1,0.05,0.05,0.15,-0.273779233,0.054755847,orange,k,000106,27,2020-08-13_11h52.52.482,CDT_GNG_IUS12,2020.1.2,MacIntel,60,,l,0,1.849,0,70,70,85,1,,,,,,,,,,,,,,,,,,,,,,,,,,,,,,,,,,,,,,,,,,,,,,,,,
,,,,,,,,,,97,different,6,-0.273779233,-0.273779233,orange,1,0.054755847,-0.273779233,blue,1,0.16426754,0.16426754,green,1,-0.16426754,0.054755847,cyan,1,-0.16426754,-0.16426754,black,1,0.273779233,-0.16426754,yellow,1,0.05,0.05,0.15,-0.16426754,0.054755847,yellow,l,000106,27,2020-08-13_11h52.52.482,CDT_GNG_IUS12,2020.1.2,MacIntel,60,,l,1,0.626,0,71,71,96,1,,,,,,,,,,,,,,,,,,,,,,,,,,,,,,,,,,,,,,,,,,,,,,,,,
,,,,,,,,,,101,different,6,0.273779233,0.273779233,yellow,1,0.054755847,-0.16426754,black,1,-0.054755847,0.054755847,cyan,1,-0.054755847,-0.16426754,magenta,1,0.273779233,0.054755847,green,1,0.16426754,-0.16426754,blue,1,0.05,0.05,0.15,0.273779233,0.273779233,green,l,000106,27,2020-08-13_11h52.52.482,CDT_GNG_IUS12,2020.1.2,MacIntel,60,,k,0,1.301,0,72,72,100,1,,,,,,,,,,,,,,,,,,,,,,,,,,,,,,,,,,,,,,,,,,,,,,,,,
,,,,,,,,,,48,different,4,0.16426754,0.273779233,cyan,1,-0.054755847,-0.273779233,magenta,1,0.16426754,-0.054755847,orange,1,-0.273779233,0.273779233,blue,1,0.273779233,0.16426754,red,0,-0.054755847,-0.16426754,green,0,0.05,0.05,0.15,0.16426754,-0.054755847,red,l,000106,27,2020-08-13_11h52.52.482,CDT_GNG_IUS12,2020.1.2,MacIntel,60,,l,1,0.534,0,73,73,47,1,,,,,,,,,,,,,,,,,,,,,,,,,,,,,,,,,,,,,,,,,,,,,,,,,
,,,,,,,,,,103,different,6,-0.273779233,-0.16426754,black,1,0.273779233,-0.054755847,cyan,1,0.054755847,0.273779233,magenta,1,-0.054755847,0.16426754,orange,1,-0.16426754,-0.16426754,green,1,0.273779233,-0.16426754,red,1,0.05,0.05,0.15,-0.273779233,-0.16426754,blue,l,000106,27,2020-08-13_11h52.52.482,CDT_GNG_IUS12,2020.1.2,MacIntel,60,,k,0,0.935,0,74,74,102,1,,,,,,,,,,,,,,,,,,,,,,,,,,,,,,,,,,,,,,,,,,,,,,,,,
,,,,,,,,,,78,same,6,0.054755847,0.054755847,black,1,-0.054755847,0.16426754,red,1,0.273779233,-0.273779233,blue,1,-0.054755847,-0.054755847,magenta,1,0.16426754,0.054755847,yellow,1,-0.273779233,0.16426754,cyan,1,0.05,0.05,0.15,-0.054755847,0.16426754,red,k,000106,27,2020-08-13_11h52.52.482,CDT_GNG_IUS12,2020.1.2,MacIntel,60,,l,0,0.957,0,75,75,77,1,,,,,,,,,,,,,,,,,,,,,,,,,,,,,,,,,,,,,,,,,,,,,,,,,
,,,,,,,,,,6,same,4,0.273779233,0.273779233,blue,1,-0.273779233,-0.16426754,magenta,1,-0.054755847,0.054755847,green,1,0.054755847,-0.054755847,black,1,0.054755847,0.054755847,orange,0,-0.054755847,-0.054755847,red,0,0.05,0.05,0.15,-0.054755847,0.054755847,green,k,000106,27,2020-08-13_11h52.52.482,CDT_GNG_IUS12,2020.1.2,MacIntel,60,,k,1,0.908,0,76,76,5,1,,,,,,,,,,,,,,,,,,,,,,,,,,,,,,,,,,,,,,,,,,,,,,,,,
,,,,,,,,,,84,same,6,-0.273779233,-0.16426754,black,1,0.273779233,0.273779233,blue,1,-0.054755847,0.054755847,red,1,0.16426754,-0.054755847,orange,1,-0.16426754,-0.16426754,cyan,1,0.16426754,0.16426754,magenta,1,0.05,0.05,0.15,-0.16426754,-0.16426754,cyan,k,000106,27,2020-08-13_11h52.52.482,CDT_GNG_IUS12,2020.1.2,MacIntel,60,,l,0,0.903,0,77,77,83,1,,,,,,,,,,,,,,,,,,,,,,,,,,,,,,,,,,,,,,,,,,,,,,,,,
,,,,,,,,,,43,different,4,-0.16426754,-0.054755847,red,1,0.273779233,0.054755847,cyan,1,-0.16426754,0.054755847,orange,1,0.054755847,-0.054755847,blue,1,-0.054755847,-0.273779233,magenta,0,0.273779233,0.273779233,yellow,0,0.05,0.05,0.15,-0.16426754,-0.054755847,yellow,l,000106,27,2020-08-13_11h52.52.482,CDT_GNG_IUS12,2020.1.2,MacIntel,60,,l,1,0.716,0,78,78,42,1,,,,,,,,,,,,,,,,,,,,,,,,,,,,,,,,,,,,,,,,,,,,,,,,,
,,,,,,,,,,98,different,6,-0.054755847,-0.16426754,magenta,1,0.273779233,0.273779233,green,1,0.273779233,-0.273779233,red,1,-0.16426754,0.273779233,blue,1,-0.273779233,-0.16426754,cyan,1,0.273779233,0.054755847,black,1,0.05,0.05,0.15,-0.16426754,0.273779233,cyan,l,000106,27,2020-08-13_11h52.52.482,CDT_GNG_IUS12,2020.1.2,MacIntel,60,,l,1,1.177,0,79,79,97,1,,,,,,,,,,,,,,,,,,,,,,,,,,,,,,,,,,,,,,,,,,,,,,,,,
,,,,,,,,,,100,different,6,0.273779233,0.16426754,blue,1,-0.054755847,0.054755847,magenta,1,-0.273779233,-0.054755847,orange,1,0.273779233,-0.273779233,red,1,0.16426754,0.054755847,green,1,-0.273779233,0.054755847,yellow,1,0.05,0.05,0.15,0.273779233,0.16426754,orange,l,000106,27,2020-08-13_11h52.52.482,CDT_GNG_IUS12,2020.1.2,MacIntel,60,,l,1,0.877,0,80,80,99,1,,,,,,,,,,,,,,,,,,,,,,,,,,,,,,,,,,,,,,,,,,,,,,,,,
,,,,,,,,,,7,same,4,-0.16426754,-0.054755847,yellow,1,0.273779233,0.16426754,magenta,1,-0.16426754,0.054755847,cyan,1,0.054755847,-0.054755847,black,1,-0.054755847,-0.054755847,orange,0,0.273779233,0.273779233,blue,0,0.05,0.05,0.15,0.054755847,-0.054755847,black,k,000106,27,2020-08-13_11h52.52.482,CDT_GNG_IUS12,2020.1.2,MacIntel,60,,k,1,0.633,0,81,81,6,1,,,,,,,,,,,,,,,,,,,,,,,,,,,,,,,,,,,,,,,,,,,,,,,,,
,,,,,,,,,,31,different,4,-0.16426754,0.16426754,blue,1,0.16426754,-0.054755847,magenta,1,-0.16426754,-0.054755847,yellow,1,0.054755847,0.273779233,black,1,-0.273779233,0.054755847,red,0,0.273779233,-0.273779233,cyan,0,0.05,0.05,0.15,-0.16426754,-0.054755847,black,l,000106,27,2020-08-13_11h52.52.482,CDT_GNG_IUS12,2020.1.2,MacIntel,60,,l,1,0.692,0,82,82,30,1,,,,,,,,,,,,,,,,,,,,,,,,,,,,,,,,,,,,,,,,,,,,,,,,,
,,,,,,,,,,96,different,6,-0.16426754,-0.16426754,green,1,-0.16426754,0.054755847,black,1,0.054755847,0.16426754,cyan,1,0.16426754,-0.273779233,yellow,1,-0.273779233,-0.273779233,blue,1,-0.054755847,0.054755847,red,1,0.05,0.05,0.15,-0.16426754,0.054755847,magenta,l,000106,27,2020-08-13_11h52.52.482,CDT_GNG_IUS12,2020.1.2,MacIntel,60,,l,1,0.873,0,83,83,95,1,,,,,,,,,,,,,,,,,,,,,,,,,,,,,,,,,,,,,,,,,,,,,,,,,
,,,,,,,,,,92,different,6,0.16426754,0.16426754,green,1,-0.054755847,-0.054755847,cyan,1,-0.054755847,0.054755847,red,1,0.16426754,-0.054755847,magenta,1,0.054755847,0.16426754,orange,1,-0.273779233,-0.16426754,yellow,1,0.05,0.05,0.15,0.16426754,0.16426754,cyan,l,000106,27,2020-08-13_11h52.52.482,CDT_GNG_IUS12,2020.1.2,MacIntel,60,,l,1,1.325,0,84,84,91,1,,,,,,,,,,,,,,,,,,,,,,,,,,,,,,,,,,,,,,,,,,,,,,,,,
,,,,,,,,,,107,different,6,0.273779233,0.16426754,cyan,1,-0.16426754,-0.273779233,magenta,1,-0.054755847,0.054755847,black,1,0.16426754,-0.054755847,blue,1,0.16426754,0.054755847,green,1,-0.273779233,-0.16426754,yellow,1,0.05,0.05,0.15,0.16426754,0.054755847,blue,l,000106,27,2020-08-13_11h52.52.482,CDT_GNG_IUS12,2020.1.2,MacIntel,60,,k,0,1.409,0,85,85,106,1,,,,,,,,,,,,,,,,,,,,,,,,,,,,,,,,,,,,,,,,,,,,,,,,,
,,,,,,,,,,55,different,4,0.273779233,0.054755847,yellow,1,0.054755847,-0.16426754,green,1,-0.273779233,-0.16426754,orange,1,-0.273779233,0.273779233,blue,1,0.273779233,0.273779233,red,0,0.273779233,-0.16426754,cyan,0,0.05,0.05,0.15,0.054755847,-0.16426754,red,l,000106,27,2020-08-13_11h52.52.482,CDT_GNG_IUS12,2020.1.2,MacIntel,60,,l,1,1.067,0,86,86,54,1,,,,,,,,,,,,,,,,,,,,,,,,,,,,,,,,,,,,,,,,,,,,,,,,,
,,,,,,,,,,26,same,4,0.16426754,-0.16426754,green,1,-0.054755847,0.16426754,yellow,1,-0.273779233,-0.16426754,black,1,0.054755847,0.054755847,red,1,0.16426754,-0.054755847,cyan,0,-0.273779233,0.273779233,magenta,0,0.05,0.05,0.15,-0.054755847,0.16426754,yellow,k,000106,27,2020-08-13_11h52.52.482,CDT_GNG_IUS12,2020.1.2,MacIntel,60,,l,0,0.942,0,87,87,25,1,,,,,,,,,,,,,,,,,,,,,,,,,,,,,,,,,,,,,,,,,,,,,,,,,
,,,,,,,,,,8,same,4,0.16426754,-0.16426754,blue,1,-0.16426754,-0.054755847,red,1,-0.273779233,0.16426754,green,1,0.054755847,0.054755847,cyan,1,0.16426754,-0.273779233,magenta,0,-0.054755847,-0.054755847,orange,0,0.05,0.05,0.15,-0.273779233,0.16426754,green,k,000106,27,2020-08-13_11h52.52.482,CDT_GNG_IUS12,2020.1.2,MacIntel,60,,l,0,1.354,0,88,88,7,1,,,,,,,,,,,,,,,,,,,,,,,,,,,,,,,,,,,,,,,,,,,,,,,,,
,,,,,,,,,,4,same,4,0.16426754,-0.16426754,black,1,-0.054755847,0.16426754,yellow,1,0.16426754,0.16426754,blue,1,-0.16426754,-0.16426754,green,1,0.054755847,-0.16426754,magenta,0,-0.054755847,0.273779233,orange,0,0.05,0.05,0.15,0.16426754,-0.16426754,black,k,000106,27,2020-08-13_11h52.52.482,CDT_GNG_IUS12,2020.1.2,MacIntel,60,,k,1,1.705,0,89,89,3,1,,,,,,,,,,,,,,,,,,,,,,,,,,,,,,,,,,,,,,,,,,,,,,,,,
,,,,,,,,,,80,same,6,-0.273779233,0.16426754,orange,1,0.054755847,-0.273779233,yellow,1,0.054755847,0.273779233,green,1,-0.16426754,-0.273779233,red,1,-0.16426754,0.273779233,blue,1,0.273779233,-0.16426754,black,1,0.05,0.05,0.15,0.054755847,-0.273779233,yellow,k,000106,27,2020-08-13_11h52.52.482,CDT_GNG_IUS12,2020.1.2,MacIntel,60,,l,0,1.249,0,90,90,79,1,,,,,,,,,,,,,,,,,,,,,,,,,,,,,,,,,,,,,,,,,,,,,,,,,
,,,,,,,,,,58,different,4,-0.16426754,0.273779233,blue,1,0.16426754,0.273779233,yellow,1,0.273779233,-0.16426754,black,1,-0.16426754,-0.054755847,cyan,1,-0.16426754,0.16426754,green,0,0.16426754,0.054755847,orange,0,0.05,0.05,0.15,0.273779233,-0.16426754,magenta,l,000106,27,2020-08-13_11h52.52.482,CDT_GNG_IUS12,2020.1.2,MacIntel,60,,l,1,0.649,0,91,91,57,1,,,,,,,,,,,,,,,,,,,,,,,,,,,,,,,,,,,,,,,,,,,,,,,,,
,,,,,,,,,,60,different,4,0.273779233,0.273779233,red,1,-0.273779233,-0.054755847,blue,1,-0.273779233,0.054755847,magenta,1,0.054755847,-0.273779233,black,1,0.273779233,0.054755847,orange,0,-0.054755847,-0.16426754,yellow,0,0.05,0.05,0.15,-0.273779233,0.054755847,yellow,l,000106,27,2020-08-13_11h52.52.482,CDT_GNG_IUS12,2020.1.2,MacIntel,60,,l,1,0.757,0,92,92,59,1,,,,,,,,,,,,,,,,,,,,,,,,,,,,,,,,,,,,,,,,,,,,,,,,,
,,,,,,,,,,13,same,4,0.16426754,0.273779233,orange,1,0.054755847,-0.273779233,blue,1,-0.054755847,0.054755847,magenta,1,-0.054755847,-0.16426754,black,1,0.054755847,0.16426754,yellow,0,0.16426754,-0.054755847,cyan,0,0.05,0.05,0.15,0.054755847,-0.273779233,blue,k,000106,27,2020-08-13_11h52.52.482,CDT_GNG_IUS12,2020.1.2,MacIntel,60,,k,1,1.089,0,93,93,12,1,,,,,,,,,,,,,,,,,,,,,,,,,,,,,,,,,,,,,,,,,,,,,,,,,
,,,,,,,,,,93,different,6,-0.16426754,0.16426754,red,1,0.054755847,-0.054755847,black,1,-0.054755847,-0.16426754,blue,1,0.054755847,0.273779233,magenta,1,-0.054755847,0.054755847,orange,1,0.16426754,-0.054755847,cyan,1,0.05,0.05,0.15,-0.054755847,-0.16426754,black,l,000106,27,2020-08-13_11h52.52.482,CDT_GNG_IUS12,2020.1.2,MacIntel,60,,l,1,0.767,0,94,94,92,1,,,,,,,,,,,,,,,,,,,,,,,,,,,,,,,,,,,,,,,,,,,,,,,,,
,,,,,,,,,,83,same,6,0.054755847,-0.16426754,cyan,1,-0.16426754,-0.16426754,blue,1,0.273779233,0.054755847,magenta,1,-0.273779233,0.273779233,green,1,0.273779233,-0.16426754,orange,1,-0.054755847,-0.054755847,yellow,1,0.05,0.05,0.15,-0.054755847,-0.054755847,yellow,k,000106,27,2020-08-13_11h52.52.482,CDT_GNG_IUS12,2020.1.2,MacIntel,60,,k,1,0.875,0,95,95,82,1,,,,,,,,,,,,,,,,,,,,,,,,,,,,,,,,,,,,,,,,,,,,,,,,,
,,,,,,,,,,89,same,6,-0.054755847,-0.273779233,cyan,1,-0.16426754,0.16426754,green,1,0.273779233,0.273779233,black,1,0.273779233,-0.273779233,orange,1,-0.273779233,-0.16426754,magenta,1,-0.16426754,0.273779233,yellow,1,0.05,0.05,0.15,-0.16426754,0.273779233,yellow,k,000106,27,2020-08-13_11h52.52.482,CDT_GNG_IUS12,2020.1.2,MacIntel,60,,k,1,1.07,0,96,96,88,1,,,,,,,,,,,,,,,,,,,,,,,,,,,,,,,,,,,,,,,,,,,,,,,,,
,,,,,,,,,,9,same,4,-0.16426754,0.054755847,cyan,1,0.16426754,-0.16426754,magenta,1,-0.273779233,-0.054755847,black,1,0.054755847,0.054755847,green,1,-0.273779233,0.16426754,orange,0,0.273779233,-0.273779233,red,0,0.05,0.05,0.15,-0.273779233,-0.054755847,black,k,000106,27,2020-08-13_11h52.52.482,CDT_GNG_IUS12,2020.1.2,MacIntel,60,,k,1,0.958,0,97,97,8,1,,,,,,,,,,,,,,,,,,,,,,,,,,,,,,,,,,,,,,,,,,,,,,,,,
,,,,,,,,,,27,same,4,-0.273779233,0.054755847,blue,1,-0.16426754,-0.16426754,black,1,0.16426754,-0.273779233,cyan,1,0.273779233,0.054755847,red,1,-0.054755847,0.273779233,magenta,0,-0.054755847,-0.273779233,yellow,0,0.05,0.05,0.15,0.273779233,0.054755847,red,k,000106,27,2020-08-13_11h52.52.482,CDT_GNG_IUS12,2020.1.2,MacIntel,60,,k,1,0.739,0,98,98,26,1,,,,,,,,,,,,,,,,,,,,,,,,,,,,,,,,,,,,,,,,,,,,,,,,,
,,,,,,,,,,16,same,4,0.16426754,0.16426754,cyan,1,-0.16426754,-0.273779233,red,1,-0.16426754,0.16426754,black,1,0.273779233,-0.054755847,yellow,1,0.273779233,0.273779233,orange,0,-0.054755847,-0.273779233,blue,0,0.05,0.05,0.15,-0.16426754,-0.273779233,red,k,000106,27,2020-08-13_11h52.52.482,CDT_GNG_IUS12,2020.1.2,MacIntel,60,,k,1,0.961,0,99,99,15,1,,,,,,,,,,,,,,,,,,,,,,,,,,,,,,,,,,,,,,,,,,,,,,,,,
,,,,,,,,,,30,same,4,0.16426754,0.16426754,blue,1,0.054755847,-0.054755847,green,1,-0.273779233,-0.16426754,black,1,-0.054755847,0.273779233,yellow,1,0.16426754,0.273779233,red,0,0.16426754,-0.16426754,magenta,0,0.05,0.05,0.15,0.054755847,-0.054755847,green,k,000106,27,2020-08-13_11h52.52.482,CDT_GNG_IUS12,2020.1.2,MacIntel,60,,k,1,0.445,0,100,100,29,1,,,,,,,,,,,,,,,,,,,,,,,,,,,,,,,,,,,,,,,,,,,,,,,,,
,,,,,,,,,,112,different,6,-0.273779233,-0.16426754,magenta,1,-0.054755847,0.054755847,orange,1,0.054755847,0.273779233,cyan,1,0.16426754,-0.273779233,yellow,1,-0.273779233,-0.273779233,black,1,-0.16426754,0.054755847,red,1,0.05,0.05,0.15,-0.16426754,0.054755847,orange,l,000106,27,2020-08-13_11h52.52.482,CDT_GNG_IUS12,2020.1.2,MacIntel,60,,l,1,0.687,0,101,101,111,1,,,,,,,,,,,,,,,,,,,,,,,,,,,,,,,,,,,,,,,,,,,,,,,,,
,,,,,,,,,,109,different,6,-0.273779233,-0.16426754,blue,1,0.054755847,-0.16426754,black,1,-0.054755847,0.054755847,cyan,1,0.054755847,0.16426754,green,1,-0.054755847,-0.054755847,yellow,1,0.16426754,-0.273779233,orange,1,0.05,0.05,0.15,-0.273779233,-0.16426754,green,l,000106,27,2020-08-13_11h52.52.482,CDT_GNG_IUS12,2020.1.2,MacIntel,60,,l,1,0.95,0,102,102,108,1,,,,,,,,,,,,,,,,,,,,,,,,,,,,,,,,,,,,,,,,,,,,,,,,,
,,,,,,,,,,10,same,4,0.273779233,0.273779233,green,1,-0.16426754,-0.054755847,yellow,1,-0.16426754,0.16426754,cyan,1,0.273779233,-0.16426754,blue,1,0.273779233,0.054755847,orange,0,-0.273779233,-0.16426754,red,0,0.05,0.05,0.15,0.273779233,0.273779233,green,k,000106,27,2020-08-13_11h52.52.482,CDT_GNG_IUS12,2020.1.2,MacIntel,60,,k,1,1.039,0,103,103,9,1,,,,,,,,,,,,,,,,,,,,,,,,,,,,,,,,,,,,,,,,,,,,,,,,,
,,,,,,,,,,17,same,4,0.16426754,0.273779233,yellow,1,-0.054755847,0.16426754,orange,1,0.273779233,-0.054755847,cyan,1,-0.273779233,-0.054755847,green,1,0.16426754,0.16426754,blue,0,-0.054755847,0.273779233,magenta,0,0.05,0.05,0.15,0.16426754,0.273779233,yellow,k,000106,27,2020-08-13_11h52.52.482,CDT_GNG_IUS12,2020.1.2,MacIntel,60,,k,1,0.716,0,104,104,16,1,,,,,,,,,,,,,,,,,,,,,,,,,,,,,,,,,,,,,,,,,,,,,,,,,
,,,,,,,,,,65,same,6,-0.273779233,-0.16426754,cyan,1,-0.054755847,0.054755847,blue,1,0.054755847,-0.054755847,red,1,0.273779233,0.054755847,green,1,-0.16426754,-0.054755847,orange,1,-0.273779233,0.273779233,yellow,1,0.05,0.05,0.15,-0.273779233,-0.16426754,cyan,k,000106,27,2020-08-13_11h52.52.482,CDT_GNG_IUS12,2020.1.2,MacIntel,60,,l,0,0.836,0,105,105,64,1,,,,,,,,,,,,,,,,,,,,,,,,,,,,,,,,,,,,,,,,,,,,,,,,,
,,,,,,,,,,88,same,6,0.054755847,0.054755847,orange,1,0.054755847,-0.273779233,red,1,-0.16426754,-0.16426754,magenta,1,-0.16426754,0.273779233,yellow,1,0.16426754,0.16426754,blue,1,0.273779233,-0.16426754,cyan,1,0.05,0.05,0.15,-0.16426754,0.273779233,yellow,k,000106,27,2020-08-13_11h52.52.482,CDT_GNG_IUS12,2020.1.2,MacIntel,60,,k,1,1.072,0,106,106,87,1,,,,,,,,,,,,,,,,,,,,,,,,,,,,,,,,,,,,,,,,,,,,,,,,,
,,,,,,,,,,62,same,6,0.054755847,-0.054755847,yellow,1,-0.273779233,-0.16426754,green,1,0.273779233,0.054755847,orange,1,-0.16426754,0.054755847,cyan,1,0.054755847,-0.273779233,red,1,-0.054755847,-0.054755847,blue,1,0.05,0.05,0.15,0.054755847,-0.054755847,yellow,k,000106,27,2020-08-13_11h52.52.482,CDT_GNG_IUS12,2020.1.2,MacIntel,60,,k,1,0.568,0,107,107,61,1,,,,,,,,,,,,,,,,,,,,,,,,,,,,,,,,,,,,,,,,,,,,,,,,,
,,,,,,,,,,42,different,4,0.273779233,0.16426754,cyan,1,-0.054755847,0.16426754,magenta,1,0.16426754,-0.054755847,green,1,-0.16426754,-0.16426754,red,1,0.16426754,0.273779233,black,0,-0.054755847,0.273779233,yellow,0,0.05,0.05,0.15,0.273779233,0.16426754,blue,l,000106,27,2020-08-13_11h52.52.482,CDT_GNG_IUS12,2020.1.2,MacIntel,60,,k,0,0.987,0,108,108,41,1,,,,,,,,,,,,,,,,,,,,,,,,,,,,,,,,,,,,,,,,,,,,,,,,,
,,,,,,,,,,25,same,4,0.16426754,-0.273779233,green,1,-0.16426754,-0.273779233,black,1,0.16426754,0.054755847,cyan,1,-0.273779233,0.273779233,blue,1,0.054755847,-0.273779233,yellow,0,-0.273779233,-0.273779233,red,0,0.05,0.05,0.15,-0.273779233,0.273779233,blue,k,000106,27,2020-08-13_11h52.52.482,CDT_GNG_IUS12,2020.1.2,MacIntel,60,,k,1,0.786,0,109,109,24,1,,,,,,,,,,,,,,,,,,,,,,,,,,,,,,,,,,,,,,,,,,,,,,,,,
,,,,,,,,,,63,same,6,-0.273779233,0.273779233,red,1,-0.273779233,-0.16426754,orange,1,0.054755847,-0.273779233,black,1,0.16426754,0.16426754,cyan,1,-0.054755847,0.054755847,blue,1,-0.273779233,-0.054755847,magenta,1,0.05,0.05,0.15,-0.273779233,-0.054755847,magenta,k,000106,27,2020-08-13_11h52.52.482,CDT_GNG_IUS12,2020.1.2,MacIntel,60,,k,1,0.866,0,110,110,62,1,,,,,,,,,,,,,,,,,,,,,,,,,,,,,,,,,,,,,,,,,,,,,,,,,
,,,,,,,,,,47,different,4,-0.16426754,-0.054755847,orange,1,0.273779233,0.054755847,black,1,-0.16426754,0.16426754,red,1,0.273779233,-0.16426754,blue,1,-0.054755847,-0.273779233,green,0,0.16426754,0.16426754,yellow,0,0.05,0.05,0.15,0.273779233,0.054755847,red,l,000106,27,2020-08-13_11h52.52.482,CDT_GNG_IUS12,2020.1.2,MacIntel,60,,l,1,0.723,0,111,111,46,1,,,,,,,,,,,,,,,,,,,,,,,,,,,,,,,,,,,,,,,,,,,,,,,,,
,,,,,,,,,,32,different,4,-0.054755847,-0.273779233,green,1,-0.273779233,0.16426754,black,1,0.16426754,0.16426754,cyan,1,0.273779233,-0.16426754,yellow,1,-0.054755847,-0.054755847,blue,0,-0.054755847,0.273779233,orange,0,0.05,0.05,0.15,-0.054755847,-0.273779233,red,l,000106,27,2020-08-13_11h52.52.482,CDT_GNG_IUS12,2020.1.2,MacIntel,60,,l,1,0.927,0,112,112,31,1,,,,,,,,,,,,,,,,,,,,,,,,,,,,,,,,,,,,,,,,,,,,,,,,,
,,,,,,,,,,57,different,4,-0.273779233,-0.054755847,yellow,1,0.16426754,-0.054755847,green,1,-0.273779233,0.16426754,red,1,0.273779233,0.054755847,black,1,-0.16426754,-0.054755847,orange,0,0.054755847,-0.16426754,magenta,0,0.05,0.05,0.15,0.16426754,-0.054755847,orange,l,000106,27,2020-08-13_11h52.52.482,CDT_GNG_IUS12,2020.1.2,MacIntel,60,,l,1,1.058,0,113,113,56,1,,,,,,,,,,,,,,,,,,,,,,,,,,,,,,,,,,,,,,,,,,,,,,,,,
,,,,,,,,,,85,same,6,-0.16426754,-0.273779233,black,1,-0.16426754,0.16426754,green,1,0.16426754,-0.054755847,blue,1,0.054755847,0.054755847,magenta,1,-0.16426754,-0.054755847,red,1,-0.054755847,0.054755847,yellow,1,0.05,0.05,0.15,-0.16426754,-0.273779233,black,k,000106,27,2020-08-13_11h52.52.482,CDT_GNG_IUS12,2020.1.2,MacIntel,60,,l,0,1.2,0,114,114,84,1,,,,,,,,,,,,,,,,,,,,,,,,,,,,,,,,,,,,,,,,,,,,,,,,,
,,,,,,,,,,20,same,4,0.273779233,0.054755847,magenta,1,0.054755847,-0.273779233,black,1,-0.054755847,0.16426754,blue,1,-0.273779233,-0.054755847,orange,1,0.054755847,0.054755847,red,0,0.054755847,-0.054755847,cyan,0,0.05,0.05,0.15,-0.054755847,0.16426754,blue,k,000106,27,2020-08-13_11h52.52.482,CDT_GNG_IUS12,2020.1.2,MacIntel,60,,k,1,0.69,0,115,115,19,1,,,,,,,,,,,,,,,,,,,,,,,,,,,,,,,,,,,,,,,,,,,,,,,,,
,,,,,,,,,,73,same,6,0.054755847,0.16426754,blue,1,-0.273779233,0.273779233,red,1,-0.273779233,-0.16426754,green,1,0.054755847,-0.054755847,orange,1,0.16426754,0.16426754,black,1,-0.054755847,0.16426754,magenta,1,0.05,0.05,0.15,-0.273779233,0.273779233,red,k,000106,27,2020-08-13_11h52.52.482,CDT_GNG_IUS12,2020.1.2,MacIntel,60,,k,1,1.026,0,116,116,72,1,,,,,,,,,,,,,,,,,,,,,,,,,,,,,,,,,,,,,,,,,,,,,,,,,
,,,,,,,,,,45,different,4,0.054755847,0.16426754,blue,1,-0.054755847,-0.273779233,magenta,1,-0.16426754,0.16426754,black,1,0.054755847,-0.16426754,orange,1,0.273779233,0.273779233,green,0,-0.273779233,-0.16426754,cyan,0,0.05,0.05,0.15,-0.16426754,0.16426754,magenta,l,000106,27,2020-08-13_11h52.52.482,CDT_GNG_IUS12,2020.1.2,MacIntel,60,,l,1,0.657,0,117,117,44,1,,,,,,,,,,,,,,,,,,,,,,,,,,,,,,,,,,,,,,,,,,,,,,,,,
,,,,,,,,,,12,same,4,0.054755847,0.054755847,blue,1,-0.273779233,-0.054755847,magenta,1,-0.054755847,0.273779233,black,1,0.16426754,-0.16426754,green,1,0.16426754,0.16426754,yellow,0,-0.16426754,-0.054755847,orange,0,0.05,0.05,0.15,0.054755847,0.054755847,blue,k,000106,27,2020-08-13_11h52.52.482,CDT_GNG_IUS12,2020.1.2,MacIntel,60,,k,1,0.476,0,118,118,11,1,,,,,,,,,,,,,,,,,,,,,,,,,,,,,,,,,,,,,,,,,,,,,,,,,
,,,,,,,,,,74,same,6,-0.273779233,-0.273779233,magenta,1,0.16426754,0.054755847,cyan,1,-0.16426754,0.273779233,black,1,0.273779233,-0.054755847,yellow,1,-0.16426754,-0.16426754,red,1,0.054755847,0.273779233,green,1,0.05,0.05,0.15,-0.16426754,-0.16426754,red,k,000106,27,2020-08-13_11h52.52.482,CDT_GNG_IUS12,2020.1.2,MacIntel,60,,l,0,0.699,0,119,119,73,1,,,,,,,,,,,,,,,,,,,,,,,,,,,,,,,,,,,,,,,,,,,,,,,,,
,,,,,,,,,,,,,,,,,,,,,,,,,,,,,,,,,,,,,,,,,,,space,000106,27,2020-08-13_11h52.52.482,CDT_GNG_IUS12,2020.1.2,MacIntel,60,,,,,,,,,,,space,1,0.293,0,0,0,7,1,0,1,,,,,,,,,,,,,,,,,,,,,,,,,,,,,,,,,,,,,,
,,,,,,,,,,,,,,,,,,,,,,,,,,,,,,,,,,,,,,,,,,,space,000106,27,2020-08-13_11h52.52.482,CDT_GNG_IUS12,2020.1.2,MacIntel,60,,,,,,,,,,,space,1,0.33,0,1,1,6,1,0,1,,,,,,,,,,,,,,,,,,,,,,,,,,,,,,,,,,,,,,
,,,,,,,,,,,,,,,,,,,,,,,,,,,,,,,,,,,,,,,,,,,,000106,27,2020-08-13_11h52.52.482,CDT_GNG_IUS12,2020.1.2,MacIntel,60,,,,,,,,,,,,1,,0,2,2,2,1,1,0,,,,,,,,,,,,,,,,,,,,,,,,,,,,,,,,,,,,,,
,,,,,,,,,,,,,,,,,,,,,,,,,,,,,,,,,,,,,,,,,,,,000106,27,2020-08-13_11h52.52.482,CDT_GNG_IUS12,2020.1.2,MacIntel,60,,,,,,,,,,,,1,,0,3,3,3,1,1,0,,,,,,,,,,,,,,,,,,,,,,,,,,,,,,,,,,,,,,
,,,,,,,,,,,,,,,,,,,,,,,,,,,,,,,,,,,,,,,,,,,,000106,27,2020-08-13_11h52.52.482,CDT_GNG_IUS12,2020.1.2,MacIntel,60,,,,,,,,,,,,1,,0,4,4,1,1,1,0,,,,,,,,,,,,,,,,,,,,,,,,,,,,,,,,,,,,,,
,,,,,,,,,,,,,,,,,,,,,,,,,,,,,,,,,,,,,,,,,,,space,000106,27,2020-08-13_11h52.52.482,CDT_GNG_IUS12,2020.1.2,MacIntel,60,,,,,,,,,,,space,1,0.484,0,5,5,4,1,0,1,,,,,,,,,,,,,,,,,,,,,,,,,,,,,,,,,,,,,,
,,,,,,,,,,,,,,,,,,,,,,,,,,,,,,,,,,,,,,,,,,,space,000106,27,2020-08-13_11h52.52.482,CDT_GNG_IUS12,2020.1.2,MacIntel,60,,,,,,,,,,,space,1,0.414,0,6,6,5,1,0,1,,,,,,,,,,,,,,,,,,,,,,,,,,,,,,,,,,,,,,
,,,,,,,,,,,,,,,,,,,,,,,,,,,,,,,,,,,,,,,,,,,,000106,27,2020-08-13_11h52.52.482,CDT_GNG_IUS12,2020.1.2,MacIntel,60,,,,,,,,,,,,1,,0,7,7,0,1,1,0,,,,,,,,,,,,,,,,,,,,,,,,,,,,,,,,,,,,,,
,,,,,,,,,,,,,,,,,,,,,,,,,,,,,,,,,,,,,,,,,,,space,000106,27,2020-08-13_11h52.52.482,CDT_GNG_IUS12,2020.1.2,MacIntel,60,,,,,,,,,,,,,,,,,,,0,1,space,1,0.269,0,0,0,14,1,,,,,,,,,,,,,,,,,,,,,,,,,,,,,,
,,,,,,,,,,,,,,,,,,,,,,,,,,,,,,,,,,,,,,,,,,,,000106,27,2020-08-13_11h52.52.482,CDT_GNG_IUS12,2020.1.2,MacIntel,60,,,,,,,,,,,,,,,,,,,1,0,space,0,0.262,0,1,1,5,1,,,,,,,,,,,,,,,,,,,,,,,,,,,,,,
,,,,,,,,,,,,,,,,,,,,,,,,,,,,,,,,,,,,,,,,,,,space,000106,27,2020-08-13_11h52.52.482,CDT_GNG_IUS12,2020.1.2,MacIntel,60,,,,,,,,,,,,,,,,,,,0,1,space,1,0.157,0,2,2,18,1,,,,,,,,,,,,,,,,,,,,,,,,,,,,,,
,,,,,,,,,,,,,,,,,,,,,,,,,,,,,,,,,,,,,,,,,,,space,000106,27,2020-08-13_11h52.52.482,CDT_GNG_IUS12,2020.1.2,MacIntel,60,,,,,,,,,,,,,,,,,,,0,1,space,1,0.287,0,3,3,13,1,,,,,,,,,,,,,,,,,,,,,,,,,,,,,,
,,,,,,,,,,,,,,,,,,,,,,,,,,,,,,,,,,,,,,,,,,,space,000106,27,2020-08-13_11h52.52.482,CDT_GNG_IUS12,2020.1.2,MacIntel,60,,,,,,,,,,,,,,,,,,,0,1,space,1,0.232,0,4,4,31,1,,,,,,,,,,,,,,,,,,,,,,,,,,,,,,
,,,,,,,,,,,,,,,,,,,,,,,,,,,,,,,,,,,,,,,,,,,space,000106,27,2020-08-13_11h52.52.482,CDT_GNG_IUS12,2020.1.2,MacIntel,60,,,,,,,,,,,,,,,,,,,0,1,space,1,0.267,0,5,5,44,1,,,,,,,,,,,,,,,,,,,,,,,,,,,,,,
,,,,,,,,,,,,,,,,,,,,,,,,,,,,,,,,,,,,,,,,,,,space,000106,27,2020-08-13_11h52.52.482,CDT_GNG_IUS12,2020.1.2,MacIntel,60,,,,,,,,,,,,,,,,,,,0,1,space,1,0.347,0,6,6,30,1,,,,,,,,,,,,,,,,,,,,,,,,,,,,,,
,,,,,,,,,,,,,,,,,,,,,,,,,,,,,,,,,,,,,,,,,,,space,000106,27,2020-08-13_11h52.52.482,CDT_GNG_IUS12,2020.1.2,MacIntel,60,,,,,,,,,,,,,,,,,,,0,1,space,1,0.247,0,7,7,43,1,,,,,,,,,,,,,,,,,,,,,,,,,,,,,,
,,,,,,,,,,,,,,,,,,,,,,,,,,,,,,,,,,,,,,,,,,,space,000106,27,2020-08-13_11h52.52.482,CDT_GNG_IUS12,2020.1.2,MacIntel,60,,,,,,,,,,,,,,,,,,,0,1,space,1,0.265,0,8,8,20,1,,,,,,,,,,,,,,,,,,,,,,,,,,,,,,
,,,,,,,,,,,,,,,,,,,,,,,,,,,,,,,,,,,,,,,,,,,space,000106,27,2020-08-13_11h52.52.482,CDT_GNG_IUS12,2020.1.2,MacIntel,60,,,,,,,,,,,,,,,,,,,0,1,space,1,0.314,0,9,9,19,1,,,,,,,,,,,,,,,,,,,,,,,,,,,,,,
,,,,,,,,,,,,,,,,,,,,,,,,,,,,,,,,,,,,,,,,,,,space,000106,27,2020-08-13_11h52.52.482,CDT_GNG_IUS12,2020.1.2,MacIntel,60,,,,,,,,,,,,,,,,,,,0,1,space,1,0.304,0,10,10,16,1,,,,,,,,,,,,,,,,,,,,,,,,,,,,,,
,,,,,,,,,,,,,,,,,,,,,,,,,,,,,,,,,,,,,,,,,,,space,000106,27,2020-08-13_11h52.52.482,CDT_GNG_IUS12,2020.1.2,MacIntel,60,,,,,,,,,,,,,,,,,,,0,1,space,1,0.274,0,11,11,40,1,,,,,,,,,,,,,,,,,,,,,,,,,,,,,,
,,,,,,,,,,,,,,,,,,,,,,,,,,,,,,,,,,,,,,,,,,,,000106,27,2020-08-13_11h52.52.482,CDT_GNG_IUS12,2020.1.2,MacIntel,60,,,,,,,,,,,,,,,,,,,1,0,,1,,0,12,12,6,1,,,,,,,,,,,,,,,,,,,,,,,,,,,,,,
,,,,,,,,,,,,,,,,,,,,,,,,,,,,,,,,,,,,,,,,,,,,000106,27,2020-08-13_11h52.52.482,CDT_GNG_IUS12,2020.1.2,MacIntel,60,,,,,,,,,,,,,,,,,,,1,0,space,0,0.257,0,13,13,8,1,,,,,,,,,,,,,,,,,,,,,,,,,,,,,,
,,,,,,,,,,,,,,,,,,,,,,,,,,,,,,,,,,,,,,,,,,,space,000106,27,2020-08-13_11h52.52.482,CDT_GNG_IUS12,2020.1.2,MacIntel,60,,,,,,,,,,,,,,,,,,,0,1,space,1,0.134,0,14,14,26,1,,,,,,,,,,,,,,,,,,,,,,,,,,,,,,
,,,,,,,,,,,,,,,,,,,,,,,,,,,,,,,,,,,,,,,,,,,space,000106,27,2020-08-13_11h52.52.482,CDT_GNG_IUS12,2020.1.2,MacIntel,60,,,,,,,,,,,,,,,,,,,0,1,space,1,0.382,0,15,15,35,1,,,,,,,,,,,,,,,,,,,,,,,,,,,,,,
,,,,,,,,,,,,,,,,,,,,,,,,,,,,,,,,,,,,,,,,,,,space,000106,27,2020-08-13_11h52.52.482,CDT_GNG_IUS12,2020.1.2,MacIntel,60,,,,,,,,,,,,,,,,,,,0,1,space,1,0.275,0,16,16,49,1,,,,,,,,,,,,,,,,,,,,,,,,,,,,,,
,,,,,,,,,,,,,,,,,,,,,,,,,,,,,,,,,,,,,,,,,,,space,000106,27,2020-08-13_11h52.52.482,CDT_GNG_IUS12,2020.1.2,MacIntel,60,,,,,,,,,,,,,,,,,,,0,1,space,1,0.151,0,17,17,33,1,,,,,,,,,,,,,,,,,,,,,,,,,,,,,,
,,,,,,,,,,,,,,,,,,,,,,,,,,,,,,,,,,,,,,,,,,,space,000106,27,2020-08-13_11h52.52.482,CDT_GNG_IUS12,2020.1.2,MacIntel,60,,,,,,,,,,,,,,,,,,,0,1,space,1,0.164,0,18,18,47,1,,,,,,,,,,,,,,,,,,,,,,,,,,,,,,
,,,,,,,,,,,,,,,,,,,,,,,,,,,,,,,,,,,,,,,,,,,space,000106,27,2020-08-13_11h52.52.482,CDT_GNG_IUS12,2020.1.2,MacIntel,60,,,,,,,,,,,,,,,,,,,0,1,space,1,0.148,0,19,19,12,1,,,,,,,,,,,,,,,,,,,,,,,,,,,,,,
,,,,,,,,,,,,,,,,,,,,,,,,,,,,,,,,,,,,,,,,,,,space,000106,27,2020-08-13_11h52.52.482,CDT_GNG_IUS12,2020.1.2,MacIntel,60,,,,,,,,,,,,,,,,,,,0,1,space,1,0.099,0,20,20,45,1,,,,,,,,,,,,,,,,,,,,,,,,,,,,,,
,,,,,,,,,,,,,,,,,,,,,,,,,,,,,,,,,,,,,,,,,,,,000106,27,2020-08-13_11h52.52.482,CDT_GNG_IUS12,2020.1.2,MacIntel,60,,,,,,,,,,,,,,,,,,,1,0,space,0,0.085,0,21,21,7,1,,,,,,,,,,,,,,,,,,,,,,,,,,,,,,
,,,,,,,,,,,,,,,,,,,,,,,,,,,,,,,,,,,,,,,,,,,,000106,27,2020-08-13_11h52.52.482,CDT_GNG_IUS12,2020.1.2,MacIntel,60,,,,,,,,,,,,,,,,,,,1,0,,1,,0,22,22,4,1,,,,,,,,,,,,,,,,,,,,,,,,,,,,,,
,,,,,,,,,,,,,,,,,,,,,,,,,,,,,,,,,,,,,,,,,,,space,000106,27,2020-08-13_11h52.52.482,CDT_GNG_IUS12,2020.1.2,MacIntel,60,,,,,,,,,,,,,,,,,,,0,1,space,1,0.388,0,23,23,10,1,,,,,,,,,,,,,,,,,,,,,,,,,,,,,,
,,,,,,,,,,,,,,,,,,,,,,,,,,,,,,,,,,,,,,,,,,,space,000106,27,2020-08-13_11h52.52.482,CDT_GNG_IUS12,2020.1.2,MacIntel,60,,,,,,,,,,,,,,,,,,,0,1,space,1,0.319,0,24,24,46,1,,,,,,,,,,,,,,,,,,,,,,,,,,,,,,
,,,,,,,,,,,,,,,,,,,,,,,,,,,,,,,,,,,,,,,,,,,space,000106,27,2020-08-13_11h52.52.482,CDT_GNG_IUS12,2020.1.2,MacIntel,60,,,,,,,,,,,,,,,,,,,0,1,space,1,0.252,0,25,25,23,1,,,,,,,,,,,,,,,,,,,,,,,,,,,,,,
,,,,,,,,,,,,,,,,,,,,,,,,,,,,,,,,,,,,,,,,,,,,000106,27,2020-08-13_11h52.52.482,CDT_GNG_IUS12,2020.1.2,MacIntel,60,,,,,,,,,,,,,,,,,,,1,0,space,0,0.16,0,26,26,1,1,,,,,,,,,,,,,,,,,,,,,,,,,,,,,,
,,,,,,,,,,,,,,,,,,,,,,,,,,,,,,,,,,,,,,,,,,,space,000106,27,2020-08-13_11h52.52.482,CDT_GNG_IUS12,2020.1.2,MacIntel,60,,,,,,,,,,,,,,,,,,,0,1,space,1,0.256,0,27,27,38,1,,,,,,,,,,,,,,,,,,,,,,,,,,,,,,
,,,,,,,,,,,,,,,,,,,,,,,,,,,,,,,,,,,,,,,,,,,,000106,27,2020-08-13_11h52.52.482,CDT_GNG_IUS12,2020.1.2,MacIntel,60,,,,,,,,,,,,,,,,,,,1,0,space,0,0.141,0,28,28,9,1,,,,,,,,,,,,,,,,,,,,,,,,,,,,,,
,,,,,,,,,,,,,,,,,,,,,,,,,,,,,,,,,,,,,,,,,,,space,000106,27,2020-08-13_11h52.52.482,CDT_GNG_IUS12,2020.1.2,MacIntel,60,,,,,,,,,,,,,,,,,,,0,1,space,1,0.053,0,29,29,17,1,,,,,,,,,,,,,,,,,,,,,,,,,,,,,,
,,,,,,,,,,,,,,,,,,,,,,,,,,,,,,,,,,,,,,,,,,,space,000106,27,2020-08-13_11h52.52.482,CDT_GNG_IUS12,2020.1.2,MacIntel,60,,,,,,,,,,,,,,,,,,,0,1,space,1,0.136,0,30,30,36,1,,,,,,,,,,,,,,,,,,,,,,,,,,,,,,
,,,,,,,,,,,,,,,,,,,,,,,,,,,,,,,,,,,,,,,,,,,space,000106,27,2020-08-13_11h52.52.482,CDT_GNG_IUS12,2020.1.2,MacIntel,60,,,,,,,,,,,,,,,,,,,0,1,space,1,0.115,0,31,31,15,1,,,,,,,,,,,,,,,,,,,,,,,,,,,,,,
,,,,,,,,,,,,,,,,,,,,,,,,,,,,,,,,,,,,,,,,,,,space,000106,27,2020-08-13_11h52.52.482,CDT_GNG_IUS12,2020.1.2,MacIntel,60,,,,,,,,,,,,,,,,,,,0,1,space,1,0.205,0,32,32,48,1,,,,,,,,,,,,,,,,,,,,,,,,,,,,,,
,,,,,,,,,,,,,,,,,,,,,,,,,,,,,,,,,,,,,,,,,,,,000106,27,2020-08-13_11h52.52.482,CDT_GNG_IUS12,2020.1.2,MacIntel,60,,,,,,,,,,,,,,,,,,,1,0,space,0,0.227,0,33,33,3,1,,,,,,,,,,,,,,,,,,,,,,,,,,,,,,
,,,,,,,,,,,,,,,,,,,,,,,,,,,,,,,,,,,,,,,,,,,,000106,27,2020-08-13_11h52.52.482,CDT_GNG_IUS12,2020.1.2,MacIntel,60,,,,,,,,,,,,,,,,,,,1,0,space,0,0.199,0,34,34,0,1,,,,,,,,,,,,,,,,,,,,,,,,,,,,,,
,,,,,,,,,,,,,,,,,,,,,,,,,,,,,,,,,,,,,,,,,,,space,000106,27,2020-08-13_11h52.52.482,CDT_GNG_IUS12,2020.1.2,MacIntel,60,,,,,,,,,,,,,,,,,,,0,1,space,1,0.304,0,35,35,28,1,,,,,,,,,,,,,,,,,,,,,,,,,,,,,,
,,,,,,,,,,,,,,,,,,,,,,,,,,,,,,,,,,,,,,,,,,,space,000106,27,2020-08-13_11h52.52.482,CDT_GNG_IUS12,2020.1.2,MacIntel,60,,,,,,,,,,,,,,,,,,,0,1,space,1,0.214,0,36,36,32,1,,,,,,,,,,,,,,,,,,,,,,,,,,,,,,
,,,,,,,,,,,,,,,,,,,,,,,,,,,,,,,,,,,,,,,,,,,space,000106,27,2020-08-13_11h52.52.482,CDT_GNG_IUS12,2020.1.2,MacIntel,60,,,,,,,,,,,,,,,,,,,0,1,space,1,0.256,0,37,37,34,1,,,,,,,,,,,,,,,,,,,,,,,,,,,,,,
,,,,,,,,,,,,,,,,,,,,,,,,,,,,,,,,,,,,,,,,,,,space,000106,27,2020-08-13_11h52.52.482,CDT_GNG_IUS12,2020.1.2,MacIntel,60,,,,,,,,,,,,,,,,,,,0,1,space,1,0.196,0,38,38,21,1,,,,,,,,,,,,,,,,,,,,,,,,,,,,,,
,,,,,,,,,,,,,,,,,,,,,,,,,,,,,,,,,,,,,,,,,,,,000106,27,2020-08-13_11h52.52.482,CDT_GNG_IUS12,2020.1.2,MacIntel,60,,,,,,,,,,,,,,,,,,,1,0,space,0,0.191,0,39,39,2,1,,,,,,,,,,,,,,,,,,,,,,,,,,,,,,
,,,,,,,,,,,,,,,,,,,,,,,,,,,,,,,,,,,,,,,,,,,space,000106,27,2020-08-13_11h52.52.482,CDT_GNG_IUS12,2020.1.2,MacIntel,60,,,,,,,,,,,,,,,,,,,0,1,space,1,0.14,0,40,40,41,1,,,,,,,,,,,,,,,,,,,,,,,,,,,,,,
,,,,,,,,,,,,,,,,,,,,,,,,,,,,,,,,,,,,,,,,,,,space,000106,27,2020-08-13_11h52.52.482,CDT_GNG_IUS12,2020.1.2,MacIntel,60,,,,,,,,,,,,,,,,,,,0,1,space,1,0.274,0,41,41,22,1,,,,,,,,,,,,,,,,,,,,,,,,,,,,,,
,,,,,,,,,,,,,,,,,,,,,,,,,,,,,,,,,,,,,,,,,,,space,000106,27,2020-08-13_11h52.52.482,CDT_GNG_IUS12,2020.1.2,MacIntel,60,,,,,,,,,,,,,,,,,,,0,1,space,1,0.284,0,42,42,27,1,,,,,,,,,,,,,,,,,,,,,,,,,,,,,,
,,,,,,,,,,,,,,,,,,,,,,,,,,,,,,,,,,,,,,,,,,,space,000106,27,2020-08-13_11h52.52.482,CDT_GNG_IUS12,2020.1.2,MacIntel,60,,,,,,,,,,,,,,,,,,,0,1,space,1,0.22,0,43,43,24,1,,,,,,,,,,,,,,,,,,,,,,,,,,,,,,
,,,,,,,,,,,,,,,,,,,,,,,,,,,,,,,,,,,,,,,,,,,space,000106,27,2020-08-13_11h52.52.482,CDT_GNG_IUS12,2020.1.2,MacIntel,60,,,,,,,,,,,,,,,,,,,0,1,space,1,0.147,0,44,44,29,1,,,,,,,,,,,,,,,,,,,,,,,,,,,,,,
,,,,,,,,,,,,,,,,,,,,,,,,,,,,,,,,,,,,,,,,,,,space,000106,27,2020-08-13_11h52.52.482,CDT_GNG_IUS12,2020.1.2,MacIntel,60,,,,,,,,,,,,,,,,,,,0,1,space,1,0.23,0,45,45,25,1,,,,,,,,,,,,,,,,,,,,,,,,,,,,,,
,,,,,,,,,,,,,,,,,,,,,,,,,,,,,,,,,,,,,,,,,,,space,000106,27,2020-08-13_11h52.52.482,CDT_GNG_IUS12,2020.1.2,MacIntel,60,,,,,,,,,,,,,,,,,,,0,1,space,1,0.282,0,46,46,39,1,,,,,,,,,,,,,,,,,,,,,,,,,,,,,,
,,,,,,,,,,,,,,,,,,,,,,,,,,,,,,,,,,,,,,,,,,,space,000106,27,2020-08-13_11h52.52.482,CDT_GNG_IUS12,2020.1.2,MacIntel,60,,,,,,,,,,,,,,,,,,,0,1,space,1,0.315,0,47,47,37,1,,,,,,,,,,,,,,,,,,,,,,,,,,,,,,
,,,,,,,,,,,,,,,,,,,,,,,,,,,,,,,,,,,,,,,,,,,space,000106,27,2020-08-13_11h52.52.482,CDT_GNG_IUS12,2020.1.2,MacIntel,60,,,,,,,,,,,,,,,,,,,0,1,space,1,0.268,0,48,48,42,1,,,,,,,,,,,,,,,,,,,,,,,,,,,,,,
,,,,,,,,,,,,,,,,,,,,,,,,,,,,,,,,,,,,,,,,,,,space,000106,27,2020-08-13_11h52.52.482,CDT_GNG_IUS12,2020.1.2,MacIntel,60,,,,,,,,,,,,,,,,,,,0,1,space,1,0.244,0,49,49,11,1,,,,,,,,,,,,,,,,,,,,,,,,,,,,,,
,,,,,,,,,,,,,,,,,,,,,,,,,,,,,,,,,,,,,,,,,,,space,000106,27,2020-08-13_11h52.52.482,CDT_GNG_IUS12,2020.1.2,MacIntel,60,,,,,,,,,,,,,,,,,,,0,1,space,1,0.292,,,,,,0,0,0,21,1,,,,,,,,,,,,,,,,,,,,,,,,,
,,,,,,,,,,,,,,,,,,,,,,,,,,,,,,,,,,,,,,,,,,,,000106,27,2020-08-13_11h52.52.482,CDT_GNG_IUS12,2020.1.2,MacIntel,60,,,,,,,,,,,,,,,,,,,1,0,,1,,,,,,,0,1,1,2,1,,,,,,,,,,,,,,,,,,,,,,,,,
,,,,,,,,,,,,,,,,,,,,,,,,,,,,,,,,,,,,,,,,,,,space,000106,27,2020-08-13_11h52.52.482,CDT_GNG_IUS12,2020.1.2,MacIntel,60,,,,,,,,,,,,,,,,,,,0,1,space,1,0.319,,,,,,0,2,2,24,1,,,,,,,,,,,,,,,,,,,,,,,,,
,,,,,,,,,,,,,,,,,,,,,,,,,,,,,,,,,,,,,,,,,,,space,000106,27,2020-08-13_11h52.52.482,CDT_GNG_IUS12,2020.1.2,MacIntel,60,,,,,,,,,,,,,,,,,,,0,1,space,1,0.349,,,,,,0,3,3,16,1,,,,,,,,,,,,,,,,,,,,,,,,,
,,,,,,,,,,,,,,,,,,,,,,,,,,,,,,,,,,,,,,,,,,,space,000106,27,2020-08-13_11h52.52.482,CDT_GNG_IUS12,2020.1.2,MacIntel,60,,,,,,,,,,,,,,,,,,,0,1,space,1,0.269,,,,,,0,4,4,45,1,,,,,,,,,,,,,,,,,,,,,,,,,
,,,,,,,,,,,,,,,,,,,,,,,,,,,,,,,,,,,,,,,,,,,space,000106,27,2020-08-13_11h52.52.482,CDT_GNG_IUS12,2020.1.2,MacIntel,60,,,,,,,,,,,,,,,,,,,0,1,space,1,0.251,,,,,,0,5,5,33,1,,,,,,,,,,,,,,,,,,,,,,,,,
,,,,,,,,,,,,,,,,,,,,,,,,,,,,,,,,,,,,,,,,,,,,000106,27,2020-08-13_11h52.52.482,CDT_GNG_IUS12,2020.1.2,MacIntel,60,,,,,,,,,,,,,,,,,,,1,0,space,0,0.199,,,,,,0,6,6,5,1,,,,,,,,,,,,,,,,,,,,,,,,,
,,,,,,,,,,,,,,,,,,,,,,,,,,,,,,,,,,,,,,,,,,,space,000106,27,2020-08-13_11h52.52.482,CDT_GNG_IUS12,2020.1.2,MacIntel,60,,,,,,,,,,,,,,,,,,,0,1,space,1,0.302,,,,,,0,7,7,14,1,,,,,,,,,,,,,,,,,,,,,,,,,
,,,,,,,,,,,,,,,,,,,,,,,,,,,,,,,,,,,,,,,,,,,space,000106,27,2020-08-13_11h52.52.482,CDT_GNG_IUS12,2020.1.2,MacIntel,60,,,,,,,,,,,,,,,,,,,0,1,space,1,0.2,,,,,,0,8,8,23,1,,,,,,,,,,,,,,,,,,,,,,,,,
,,,,,,,,,,,,,,,,,,,,,,,,,,,,,,,,,,,,,,,,,,,space,000106,27,2020-08-13_11h52.52.482,CDT_GNG_IUS12,2020.1.2,MacIntel,60,,,,,,,,,,,,,,,,,,,0,1,space,1,0.081,,,,,,0,9,9,11,1,,,,,,,,,,,,,,,,,,,,,,,,,
,,,,,,,,,,,,,,,,,,,,,,,,,,,,,,,,,,,,,,,,,,,space,000106,27,2020-08-13_11h52.52.482,CDT_GNG_IUS12,2020.1.2,MacIntel,60,,,,,,,,,,,,,,,,,,,0,1,space,1,0.085,,,,,,0,10,10,26,1,,,,,,,,,,,,,,,,,,,,,,,,,
,,,,,,,,,,,,,,,,,,,,,,,,,,,,,,,,,,,,,,,,,,,space,000106,27,2020-08-13_11h52.52.482,CDT_GNG_IUS12,2020.1.2,MacIntel,60,,,,,,,,,,,,,,,,,,,0,1,space,1,0.141,,,,,,0,11,11,27,1,,,,,,,,,,,,,,,,,,,,,,,,,
,,,,,,,,,,,,,,,,,,,,,,,,,,,,,,,,,,,,,,,,,,,,000106,27,2020-08-13_11h52.52.482,CDT_GNG_IUS12,2020.1.2,MacIntel,60,,,,,,,,,,,,,,,,,,,1,0,space,0,0.203,,,,,,0,12,12,1,1,,,,,,,,,,,,,,,,,,,,,,,,,
,,,,,,,,,,,,,,,,,,,,,,,,,,,,,,,,,,,,,,,,,,,space,000106,27,2020-08-13_11h52.52.482,CDT_GNG_IUS12,2020.1.2,MacIntel,60,,,,,,,,,,,,,,,,,,,0,1,space,1,0.209,,,,,,0,13,13,18,1,,,,,,,,,,,,,,,,,,,,,,,,,
,,,,,,,,,,,,,,,,,,,,,,,,,,,,,,,,,,,,,,,,,,,,000106,27,2020-08-13_11h52.52.482,CDT_GNG_IUS12,2020.1.2,MacIntel,60,,,,,,,,,,,,,,,,,,,1,0,,1,,,,,,,0,14,14,3,1,,,,,,,,,,,,,,,,,,,,,,,,,
,,,,,,,,,,,,,,,,,,,,,,,,,,,,,,,,,,,,,,,,,,,space,000106,27,2020-08-13_11h52.52.482,CDT_GNG_IUS12,2020.1.2,MacIntel,60,,,,,,,,,,,,,,,,,,,0,1,space,1,0.351,,,,,,0,15,15,13,1,,,,,,,,,,,,,,,,,,,,,,,,,
,,,,,,,,,,,,,,,,,,,,,,,,,,,,,,,,,,,,,,,,,,,space,000106,27,2020-08-13_11h52.52.482,CDT_GNG_IUS12,2020.1.2,MacIntel,60,,,,,,,,,,,,,,,,,,,0,1,space,1,0.437,,,,,,0,16,16,31,1,,,,,,,,,,,,,,,,,,,,,,,,,
,,,,,,,,,,,,,,,,,,,,,,,,,,,,,,,,,,,,,,,,,,,space,000106,27,2020-08-13_11h52.52.482,CDT_GNG_IUS12,2020.1.2,MacIntel,60,,,,,,,,,,,,,,,,,,,0,1,space,1,0.305,,,,,,0,17,17,36,1,,,,,,,,,,,,,,,,,,,,,,,,,
,,,,,,,,,,,,,,,,,,,,,,,,,,,,,,,,,,,,,,,,,,,,000106,27,2020-08-13_11h52.52.482,CDT_GNG_IUS12,2020.1.2,MacIntel,60,,,,,,,,,,,,,,,,,,,1,0,,1,,,,,,,0,18,18,0,1,,,,,,,,,,,,,,,,,,,,,,,,,
,,,,,,,,,,,,,,,,,,,,,,,,,,,,,,,,,,,,,,,,,,,,000106,27,2020-08-13_11h52.52.482,CDT_GNG_IUS12,2020.1.2,MacIntel,60,,,,,,,,,,,,,,,,,,,1,0,space,0,0.117,,,,,,0,19,19,8,1,,,,,,,,,,,,,,,,,,,,,,,,,
,,,,,,,,,,,,,,,,,,,,,,,,,,,,,,,,,,,,,,,,,,,,000106,27,2020-08-13_11h52.52.482,CDT_GNG_IUS12,2020.1.2,MacIntel,60,,,,,,,,,,,,,,,,,,,1,0,space,0,0.066,,,,,,0,20,20,4,1,,,,,,,,,,,,,,,,,,,,,,,,,
,,,,,,,,,,,,,,,,,,,,,,,,,,,,,,,,,,,,,,,,,,,space,000106,27,2020-08-13_11h52.52.482,CDT_GNG_IUS12,2020.1.2,MacIntel,60,,,,,,,,,,,,,,,,,,,0,1,space,1,0.333,,,,,,0,21,21,49,1,,,,,,,,,,,,,,,,,,,,,,,,,
,,,,,,,,,,,,,,,,,,,,,,,,,,,,,,,,,,,,,,,,,,,,000106,27,2020-08-13_11h52.52.482,CDT_GNG_IUS12,2020.1.2,MacIntel,60,,,,,,,,,,,,,,,,,,,1,0,space,0,0.253,,,,,,0,22,22,6,1,,,,,,,,,,,,,,,,,,,,,,,,,
,,,,,,,,,,,,,,,,,,,,,,,,,,,,,,,,,,,,,,,,,,,space,000106,27,2020-08-13_11h52.52.482,CDT_GNG_IUS12,2020.1.2,MacIntel,60,,,,,,,,,,,,,,,,,,,0,1,space,1,0.227,,,,,,0,23,23,29,1,,,,,,,,,,,,,,,,,,,,,,,,,
,,,,,,,,,,,,,,,,,,,,,,,,,,,,,,,,,,,,,,,,,,,,000106,27,2020-08-13_11h52.52.482,CDT_GNG_IUS12,2020.1.2,MacIntel,60,,,,,,,,,,,,,,,,,,,1,0,space,0,0.183,,,,,,0,24,24,7,1,,,,,,,,,,,,,,,,,,,,,,,,,
,,,,,,,,,,,,,,,,,,,,,,,,,,,,,,,,,,,,,,,,,,,space,000106,27,2020-08-13_11h52.52.482,CDT_GNG_IUS12,2020.1.2,MacIntel,60,,,,,,,,,,,,,,,,,,,0,1,space,1,0.224,,,,,,0,25,25,32,1,,,,,,,,,,,,,,,,,,,,,,,,,
,,,,,,,,,,,,,,,,,,,,,,,,,,,,,,,,,,,,,,,,,,,space,000106,27,2020-08-13_11h52.52.482,CDT_GNG_IUS12,2020.1.2,MacIntel,60,,,,,,,,,,,,,,,,,,,0,1,space,1,0.241,,,,,,0,26,26,35,1,,,,,,,,,,,,,,,,,,,,,,,,,
,,,,,,,,,,,,,,,,,,,,,,,,,,,,,,,,,,,,,,,,,,,space,000106,27,2020-08-13_11h52.52.482,CDT_GNG_IUS12,2020.1.2,MacIntel,60,,,,,,,,,,,,,,,,,,,0,1,space,1,0.142,,,,,,0,27,27,19,1,,,,,,,,,,,,,,,,,,,,,,,,,
,,,,,,,,,,,,,,,,,,,,,,,,,,,,,,,,,,,,,,,,,,,space,000106,27,2020-08-13_11h52.52.482,CDT_GNG_IUS12,2020.1.2,MacIntel,60,,,,,,,,,,,,,,,,,,,0,1,space,1,0.168,,,,,,0,28,28,42,1,,,,,,,,,,,,,,,,,,,,,,,,,
,,,,,,,,,,,,,,,,,,,,,,,,,,,,,,,,,,,,,,,,,,,space,000106,27,2020-08-13_11h52.52.482,CDT_GNG_IUS12,2020.1.2,MacIntel,60,,,,,,,,,,,,,,,,,,,0,1,space,1,0.159,,,,,,0,29,29,20,1,,,,,,,,,,,,,,,,,,,,,,,,,
,,,,,,,,,,,,,,,,,,,,,,,,,,,,,,,,,,,,,,,,,,,space,000106,27,2020-08-13_11h52.52.482,CDT_GNG_IUS12,2020.1.2,MacIntel,60,,,,,,,,,,,,,,,,,,,0,1,space,1,0.201,,,,,,0,30,30,17,1,,,,,,,,,,,,,,,,,,,,,,,,,
,,,,,,,,,,,,,,,,,,,,,,,,,,,,,,,,,,,,,,,,,,,space,000106,27,2020-08-13_11h52.52.482,CDT_GNG_IUS12,2020.1.2,MacIntel,60,,,,,,,,,,,,,,,,,,,0,1,space,1,0.374,,,,,,0,31,31,12,1,,,,,,,,,,,,,,,,,,,,,,,,,
,,,,,,,,,,,,,,,,,,,,,,,,,,,,,,,,,,,,,,,,,,,space,000106,27,2020-08-13_11h52.52.482,CDT_GNG_IUS12,2020.1.2,MacIntel,60,,,,,,,,,,,,,,,,,,,0,1,space,1,0.299,,,,,,0,32,32,39,1,,,,,,,,,,,,,,,,,,,,,,,,,
,,,,,,,,,,,,,,,,,,,,,,,,,,,,,,,,,,,,,,,,,,,space,000106,27,2020-08-13_11h52.52.482,CDT_GNG_IUS12,2020.1.2,MacIntel,60,,,,,,,,,,,,,,,,,,,0,1,space,1,0.192,,,,,,0,33,33,46,1,,,,,,,,,,,,,,,,,,,,,,,,,
,,,,,,,,,,,,,,,,,,,,,,,,,,,,,,,,,,,,,,,,,,,space,000106,27,2020-08-13_11h52.52.482,CDT_GNG_IUS12,2020.1.2,MacIntel,60,,,,,,,,,,,,,,,,,,,0,1,space,1,0.138,,,,,,0,34,34,44,1,,,,,,,,,,,,,,,,,,,,,,,,,
,,,,,,,,,,,,,,,,,,,,,,,,,,,,,,,,,,,,,,,,,,,space,000106,27,2020-08-13_11h52.52.482,CDT_GNG_IUS12,2020.1.2,MacIntel,60,,,,,,,,,,,,,,,,,,,0,1,space,1,0.291,,,,,,0,35,35,25,1,,,,,,,,,,,,,,,,,,,,,,,,,
,,,,,,,,,,,,,,,,,,,,,,,,,,,,,,,,,,,,,,,,,,,space,000106,27,2020-08-13_11h52.52.482,CDT_GNG_IUS12,2020.1.2,MacIntel,60,,,,,,,,,,,,,,,,,,,0,1,space,1,0.266,,,,,,0,36,36,38,1,,,,,,,,,,,,,,,,,,,,,,,,,
,,,,,,,,,,,,,,,,,,,,,,,,,,,,,,,,,,,,,,,,,,,space,000106,27,2020-08-13_11h52.52.482,CDT_GNG_IUS12,2020.1.2,MacIntel,60,,,,,,,,,,,,,,,,,,,0,1,space,1,0.176,,,,,,0,37,37,41,1,,,,,,,,,,,,,,,,,,,,,,,,,
,,,,,,,,,,,,,,,,,,,,,,,,,,,,,,,,,,,,,,,,,,,space,000106,27,2020-08-13_11h52.52.482,CDT_GNG_IUS12,2020.1.2,MacIntel,60,,,,,,,,,,,,,,,,,,,0,1,space,1,0.223,,,,,,0,38,38,40,1,,,,,,,,,,,,,,,,,,,,,,,,,
,,,,,,,,,,,,,,,,,,,,,,,,,,,,,,,,,,,,,,,,,,,space,000106,27,2020-08-13_11h52.52.482,CDT_GNG_IUS12,2020.1.2,MacIntel,60,,,,,,,,,,,,,,,,,,,0,1,space,1,0.269,,,,,,0,39,39,48,1,,,,,,,,,,,,,,,,,,,,,,,,,
,,,,,,,,,,,,,,,,,,,,,,,,,,,,,,,,,,,,,,,,,,,,000106,27,2020-08-13_11h52.52.482,CDT_GNG_IUS12,2020.1.2,MacIntel,60,,,,,,,,,,,,,,,,,,,1,0,,1,,,,,,,0,40,40,9,1,,,,,,,,,,,,,,,,,,,,,,,,,
,,,,,,,,,,,,,,,,,,,,,,,,,,,,,,,,,,,,,,,,,,,space,000106,27,2020-08-13_11h52.52.482,CDT_GNG_IUS12,2020.1.2,MacIntel,60,,,,,,,,,,,,,,,,,,,0,1,space,1,0.331,,,,,,0,41,41,10,1,,,,,,,,,,,,,,,,,,,,,,,,,
,,,,,,,,,,,,,,,,,,,,,,,,,,,,,,,,,,,,,,,,,,,space,000106,27,2020-08-13_11h52.52.482,CDT_GNG_IUS12,2020.1.2,MacIntel,60,,,,,,,,,,,,,,,,,,,0,1,space,1,0.338,,,,,,0,42,42,47,1,,,,,,,,,,,,,,,,,,,,,,,,,
,,,,,,,,,,,,,,,,,,,,,,,,,,,,,,,,,,,,,,,,,,,space,000106,27,2020-08-13_11h52.52.482,CDT_GNG_IUS12,2020.1.2,MacIntel,60,,,,,,,,,,,,,,,,,,,0,1,space,1,0.125,,,,,,0,43,43,28,1,,,,,,,,,,,,,,,,,,,,,,,,,
,,,,,,,,,,,,,,,,,,,,,,,,,,,,,,,,,,,,,,,,,,,space,000106,27,2020-08-13_11h52.52.482,CDT_GNG_IUS12,2020.1.2,MacIntel,60,,,,,,,,,,,,,,,,,,,0,1,space,1,0.115,,,,,,0,44,44,37,1,,,,,,,,,,,,,,,,,,,,,,,,,
,,,,,,,,,,,,,,,,,,,,,,,,,,,,,,,,,,,,,,,,,,,space,000106,27,2020-08-13_11h52.52.482,CDT_GNG_IUS12,2020.1.2,MacIntel,60,,,,,,,,,,,,,,,,,,,0,1,space,1,0.172,,,,,,0,45,45,22,1,,,,,,,,,,,,,,,,,,,,,,,,,
,,,,,,,,,,,,,,,,,,,,,,,,,,,,,,,,,,,,,,,,,,,space,000106,27,2020-08-13_11h52.52.482,CDT_GNG_IUS12,2020.1.2,MacIntel,60,,,,,,,,,,,,,,,,,,,0,1,space,1,0.29,,,,,,0,46,46,30,1,,,,,,,,,,,,,,,,,,,,,,,,,
,,,,,,,,,,,,,,,,,,,,,,,,,,,,,,,,,,,,,,,,,,,space,000106,27,2020-08-13_11h52.52.482,CDT_GNG_IUS12,2020.1.2,MacIntel,60,,,,,,,,,,,,,,,,,,,0,1,space,1,0.265,,,,,,0,47,47,43,1,,,,,,,,,,,,,,,,,,,,,,,,,
,,,,,,,,,,,,,,,,,,,,,,,,,,,,,,,,,,,,,,,,,,,space,000106,27,2020-08-13_11h52.52.482,CDT_GNG_IUS12,2020.1.2,MacIntel,60,,,,,,,,,,,,,,,,,,,0,1,space,1,0.222,,,,,,0,48,48,15,1,,,,,,,,,,,,,,,,,,,,,,,,,
,,,,,,,,,,,,,,,,,,,,,,,,,,,,,,,,,,,,,,,,,,,space,000106,27,2020-08-13_11h52.52.482,CDT_GNG_IUS12,2020.1.2,MacIntel,60,,,,,,,,,,,,,,,,,,,0,1,space,1,0.168,,,,,,0,49,49,34,1,,,,,,,,,,,,,,,,,,,,,,,,,
,,,,,,,,,,,,,,,,,,,,,,,,,,,,,,,,,,,,,,,,,,,space,000106,27,2020-08-13_11h52.52.482,CDT_GNG_IUS12,2020.1.2,MacIntel,60,,,,,,,,,,,,,,,,,,,0,1,space,1,0.347,,,,,,,,,,,0,0,0,33,1,,,,,,,,,,,,,,,,,,,,
,,,,,,,,,,,,,,,,,,,,,,,,,,,,,,,,,,,,,,,,,,,space,000106,27,2020-08-13_11h52.52.482,CDT_GNG_IUS12,2020.1.2,MacIntel,60,,,,,,,,,,,,,,,,,,,0,1,space,1,0.299,,,,,,,,,,,0,1,1,47,1,,,,,,,,,,,,,,,,,,,,
,,,,,,,,,,,,,,,,,,,,,,,,,,,,,,,,,,,,,,,,,,,,000106,27,2020-08-13_11h52.52.482,CDT_GNG_IUS12,2020.1.2,MacIntel,60,,,,,,,,,,,,,,,,,,,1,0,space,0,0.236,,,,,,,,,,,0,2,2,9,1,,,,,,,,,,,,,,,,,,,,
,,,,,,,,,,,,,,,,,,,,,,,,,,,,,,,,,,,,,,,,,,,space,000106,27,2020-08-13_11h52.52.482,CDT_GNG_IUS12,2020.1.2,MacIntel,60,,,,,,,,,,,,,,,,,,,0,1,space,1,0.099,,,,,,,,,,,0,3,3,23,1,,,,,,,,,,,,,,,,,,,,
,,,,,,,,,,,,,,,,,,,,,,,,,,,,,,,,,,,,,,,,,,,space,000106,27,2020-08-13_11h52.52.482,CDT_GNG_IUS12,2020.1.2,MacIntel,60,,,,,,,,,,,,,,,,,,,0,1,space,1,0.159,,,,,,,,,,,0,4,4,48,1,,,,,,,,,,,,,,,,,,,,
,,,,,,,,,,,,,,,,,,,,,,,,,,,,,,,,,,,,,,,,,,,space,000106,27,2020-08-13_11h52.52.482,CDT_GNG_IUS12,2020.1.2,MacIntel,60,,,,,,,,,,,,,,,,,,,0,1,space,1,0.133,,,,,,,,,,,0,5,5,34,1,,,,,,,,,,,,,,,,,,,,
,,,,,,,,,,,,,,,,,,,,,,,,,,,,,,,,,,,,,,,,,,,space,000106,27,2020-08-13_11h52.52.482,CDT_GNG_IUS12,2020.1.2,MacIntel,60,,,,,,,,,,,,,,,,,,,0,1,space,1,0.214,,,,,,,,,,,0,6,6,22,1,,,,,,,,,,,,,,,,,,,,
,,,,,,,,,,,,,,,,,,,,,,,,,,,,,,,,,,,,,,,,,,,space,000106,27,2020-08-13_11h52.52.482,CDT_GNG_IUS12,2020.1.2,MacIntel,60,,,,,,,,,,,,,,,,,,,0,1,space,1,0.305,,,,,,,,,,,0,7,7,37,1,,,,,,,,,,,,,,,,,,,,
,,,,,,,,,,,,,,,,,,,,,,,,,,,,,,,,,,,,,,,,,,,,000106,27,2020-08-13_11h52.52.482,CDT_GNG_IUS12,2020.1.2,MacIntel,60,,,,,,,,,,,,,,,,,,,1,0,,1,,,,,,,,,,,,0,8,8,8,1,,,,,,,,,,,,,,,,,,,,
,,,,,,,,,,,,,,,,,,,,,,,,,,,,,,,,,,,,,,,,,,,space,000106,27,2020-08-13_11h52.52.482,CDT_GNG_IUS12,2020.1.2,MacIntel,60,,,,,,,,,,,,,,,,,,,0,1,space,1,0.274,,,,,,,,,,,0,9,9,20,1,,,,,,,,,,,,,,,,,,,,
,,,,,,,,,,,,,,,,,,,,,,,,,,,,,,,,,,,,,,,,,,,space,000106,27,2020-08-13_11h52.52.482,CDT_GNG_IUS12,2020.1.2,MacIntel,60,,,,,,,,,,,,,,,,,,,0,1,space,1,0.221,,,,,,,,,,,0,10,10,19,1,,,,,,,,,,,,,,,,,,,,
,,,,,,,,,,,,,,,,,,,,,,,,,,,,,,,,,,,,,,,,,,,space,000106,27,2020-08-13_11h52.52.482,CDT_GNG_IUS12,2020.1.2,MacIntel,60,,,,,,,,,,,,,,,,,,,0,1,space,1,0.221,,,,,,,,,,,0,11,11,31,1,,,,,,,,,,,,,,,,,,,,
,,,,,,,,,,,,,,,,,,,,,,,,,,,,,,,,,,,,,,,,,,,space,000106,27,2020-08-13_11h52.52.482,CDT_GNG_IUS12,2020.1.2,MacIntel,60,,,,,,,,,,,,,,,,,,,0,1,space,1,0.202,,,,,,,,,,,0,12,12,40,1,,,,,,,,,,,,,,,,,,,,
,,,,,,,,,,,,,,,,,,,,,,,,,,,,,,,,,,,,,,,,,,,space,000106,27,2020-08-13_11h52.52.482,CDT_GNG_IUS12,2020.1.2,MacIntel,60,,,,,,,,,,,,,,,,,,,0,1,space,1,0.273,,,,,,,,,,,0,13,13,24,1,,,,,,,,,,,,,,,,,,,,
,,,,,,,,,,,,,,,,,,,,,,,,,,,,,,,,,,,,,,,,,,,space,000106,27,2020-08-13_11h52.52.482,CDT_GNG_IUS12,2020.1.2,MacIntel,60,,,,,,,,,,,,,,,,,,,0,1,space,1,0.232,,,,,,,,,,,0,14,14,21,1,,,,,,,,,,,,,,,,,,,,
,,,,,,,,,,,,,,,,,,,,,,,,,,,,,,,,,,,,,,,,,,,,000106,27,2020-08-13_11h52.52.482,CDT_GNG_IUS12,2020.1.2,MacIntel,60,,,,,,,,,,,,,,,,,,,1,0,,1,,,,,,,,,,,,0,15,15,1,1,,,,,,,,,,,,,,,,,,,,
,,,,,,,,,,,,,,,,,,,,,,,,,,,,,,,,,,,,,,,,,,,space,000106,27,2020-08-13_11h52.52.482,CDT_GNG_IUS12,2020.1.2,MacIntel,60,,,,,,,,,,,,,,,,,,,0,1,space,1,0.148,,,,,,,,,,,0,16,16,29,1,,,,,,,,,,,,,,,,,,,,
,,,,,,,,,,,,,,,,,,,,,,,,,,,,,,,,,,,,,,,,,,,space,000106,27,2020-08-13_11h52.52.482,CDT_GNG_IUS12,2020.1.2,MacIntel,60,,,,,,,,,,,,,,,,,,,0,1,space,1,0.2,,,,,,,,,,,0,17,17,43,1,,,,,,,,,,,,,,,,,,,,
,,,,,,,,,,,,,,,,,,,,,,,,,,,,,,,,,,,,,,,,,,,space,000106,27,2020-08-13_11h52.52.482,CDT_GNG_IUS12,2020.1.2,MacIntel,60,,,,,,,,,,,,,,,,,,,0,1,space,1,0.267,,,,,,,,,,,0,18,18,36,1,,,,,,,,,,,,,,,,,,,,
,,,,,,,,,,,,,,,,,,,,,,,,,,,,,,,,,,,,,,,,,,,,000106,27,2020-08-13_11h52.52.482,CDT_GNG_IUS12,2020.1.2,MacIntel,60,,,,,,,,,,,,,,,,,,,1,0,space,0,0.282,,,,,,,,,,,0,19,19,4,1,,,,,,,,,,,,,,,,,,,,
,,,,,,,,,,,,,,,,,,,,,,,,,,,,,,,,,,,,,,,,,,,space,000106,27,2020-08-13_11h52.52.482,CDT_GNG_IUS12,2020.1.2,MacIntel,60,,,,,,,,,,,,,,,,,,,0,1,space,1,0.122,,,,,,,,,,,0,20,20,13,1,,,,,,,,,,,,,,,,,,,,
,,,,,,,,,,,,,,,,,,,,,,,,,,,,,,,,,,,,,,,,,,,space,000106,27,2020-08-13_11h52.52.482,CDT_GNG_IUS12,2020.1.2,MacIntel,60,,,,,,,,,,,,,,,,,,,0,1,,0,,,,,,,,,,,,0,21,21,39,1,,,,,,,,,,,,,,,,,,,,
,,,,,,,,,,,,,,,,,,,,,,,,,,,,,,,,,,,,,,,,,,,space,000106,27,2020-08-13_11h52.52.482,CDT_GNG_IUS12,2020.1.2,MacIntel,60,,,,,,,,,,,,,,,,,,,0,1,space,1,0.422,,,,,,,,,,,0,22,22,27,1,,,,,,,,,,,,,,,,,,,,
,,,,,,,,,,,,,,,,,,,,,,,,,,,,,,,,,,,,,,,,,,,space,000106,27,2020-08-13_11h52.52.482,CDT_GNG_IUS12,2020.1.2,MacIntel,60,,,,,,,,,,,,,,,,,,,0,1,space,1,0.304,,,,,,,,,,,0,23,23,18,1,,,,,,,,,,,,,,,,,,,,
,,,,,,,,,,,,,,,,,,,,,,,,,,,,,,,,,,,,,,,,,,,space,000106,27,2020-08-13_11h52.52.482,CDT_GNG_IUS12,2020.1.2,MacIntel,60,,,,,,,,,,,,,,,,,,,0,1,space,1,0.249,,,,,,,,,,,0,24,24,32,1,,,,,,,,,,,,,,,,,,,,
,,,,,,,,,,,,,,,,,,,,,,,,,,,,,,,,,,,,,,,,,,,space,000106,27,2020-08-13_11h52.52.482,CDT_GNG_IUS12,2020.1.2,MacIntel,60,,,,,,,,,,,,,,,,,,,0,1,space,1,0.298,,,,,,,,,,,0,25,25,41,1,,,,,,,,,,,,,,,,,,,,
,,,,,,,,,,,,,,,,,,,,,,,,,,,,,,,,,,,,,,,,,,,space,000106,27,2020-08-13_11h52.52.482,CDT_GNG_IUS12,2020.1.2,MacIntel,60,,,,,,,,,,,,,,,,,,,0,1,space,1,0.402,,,,,,,,,,,0,26,26,26,1,,,,,,,,,,,,,,,,,,,,
,,,,,,,,,,,,,,,,,,,,,,,,,,,,,,,,,,,,,,,,,,,,000106,27,2020-08-13_11h52.52.482,CDT_GNG_IUS12,2020.1.2,MacIntel,60,,,,,,,,,,,,,,,,,,,1,0,,1,,,,,,,,,,,,0,27,27,5,1,,,,,,,,,,,,,,,,,,,,
,,,,,,,,,,,,,,,,,,,,,,,,,,,,,,,,,,,,,,,,,,,space,000106,27,2020-08-13_11h52.52.482,CDT_GNG_IUS12,2020.1.2,MacIntel,60,,,,,,,,,,,,,,,,,,,0,1,space,1,0.283,,,,,,,,,,,0,28,28,16,1,,,,,,,,,,,,,,,,,,,,
,,,,,,,,,,,,,,,,,,,,,,,,,,,,,,,,,,,,,,,,,,,,000106,27,2020-08-13_11h52.52.482,CDT_GNG_IUS12,2020.1.2,MacIntel,60,,,,,,,,,,,,,,,,,,,1,0,,1,,,,,,,,,,,,0,29,29,7,1,,,,,,,,,,,,,,,,,,,,
,,,,,,,,,,,,,,,,,,,,,,,,,,,,,,,,,,,,,,,,,,,space,000106,27,2020-08-13_11h52.52.482,CDT_GNG_IUS12,2020.1.2,MacIntel,60,,,,,,,,,,,,,,,,,,,0,1,space,1,0.271,,,,,,,,,,,0,30,30,11,1,,,,,,,,,,,,,,,,,,,,
,,,,,,,,,,,,,,,,,,,,,,,,,,,,,,,,,,,,,,,,,,,,000106,27,2020-08-13_11h52.52.482,CDT_GNG_IUS12,2020.1.2,MacIntel,60,,,,,,,,,,,,,,,,,,,1,0,,1,,,,,,,,,,,,0,31,31,6,1,,,,,,,,,,,,,,,,,,,,
,,,,,,,,,,,,,,,,,,,,,,,,,,,,,,,,,,,,,,,,,,,space,000106,27,2020-08-13_11h52.52.482,CDT_GNG_IUS12,2020.1.2,MacIntel,60,,,,,,,,,,,,,,,,,,,0,1,space,1,0.282,,,,,,,,,,,0,32,32,10,1,,,,,,,,,,,,,,,,,,,,
,,,,,,,,,,,,,,,,,,,,,,,,,,,,,,,,,,,,,,,,,,,,000106,27,2020-08-13_11h52.52.482,CDT_GNG_IUS12,2020.1.2,MacIntel,60,,,,,,,,,,,,,,,,,,,1,0,,1,,,,,,,,,,,,0,33,33,3,1,,,,,,,,,,,,,,,,,,,,
,,,,,,,,,,,,,,,,,,,,,,,,,,,,,,,,,,,,,,,,,,,space,000106,27,2020-08-13_11h52.52.482,CDT_GNG_IUS12,2020.1.2,MacIntel,60,,,,,,,,,,,,,,,,,,,0,1,space,1,0.135,,,,,,,,,,,0,34,34,28,1,,,,,,,,,,,,,,,,,,,,
,,,,,,,,,,,,,,,,,,,,,,,,,,,,,,,,,,,,,,,,,,,space,000106,27,2020-08-13_11h52.52.482,CDT_GNG_IUS12,2020.1.2,MacIntel,60,,,,,,,,,,,,,,,,,,,0,1,space,1,0.406,,,,,,,,,,,0,35,35,15,1,,,,,,,,,,,,,,,,,,,,
,,,,,,,,,,,,,,,,,,,,,,,,,,,,,,,,,,,,,,,,,,,,000106,27,2020-08-13_11h52.52.482,CDT_GNG_IUS12,2020.1.2,MacIntel,60,,,,,,,,,,,,,,,,,,,1,0,,1,,,,,,,,,,,,0,36,36,0,1,,,,,,,,,,,,,,,,,,,,
,,,,,,,,,,,,,,,,,,,,,,,,,,,,,,,,,,,,,,,,,,,space,000106,27,2020-08-13_11h52.52.482,CDT_GNG_IUS12,2020.1.2,MacIntel,60,,,,,,,,,,,,,,,,,,,0,1,space,1,0.124,,,,,,,,,,,0,37,37,49,1,,,,,,,,,,,,,,,,,,,,
,,,,,,,,,,,,,,,,,,,,,,,,,,,,,,,,,,,,,,,,,,,space,000106,27,2020-08-13_11h52.52.482,CDT_GNG_IUS12,2020.1.2,MacIntel,60,,,,,,,,,,,,,,,,,,,0,1,space,1,0.247,,,,,,,,,,,0,38,38,25,1,,,,,,,,,,,,,,,,,,,,
,,,,,,,,,,,,,,,,,,,,,,,,,,,,,,,,,,,,,,,,,,,space,000106,27,2020-08-13_11h52.52.482,CDT_GNG_IUS12,2020.1.2,MacIntel,60,,,,,,,,,,,,,,,,,,,0,1,space,1,0.149,,,,,,,,,,,0,39,39,42,1,,,,,,,,,,,,,,,,,,,,
,,,,,,,,,,,,,,,,,,,,,,,,,,,,,,,,,,,,,,,,,,,,000106,27,2020-08-13_11h52.52.482,CDT_GNG_IUS12,2020.1.2,MacIntel,60,,,,,,,,,,,,,,,,,,,1,0,space,0,0.171,,,,,,,,,,,0,40,40,2,1,,,,,,,,,,,,,,,,,,,,
,,,,,,,,,,,,,,,,,,,,,,,,,,,,,,,,,,,,,,,,,,,space,000106,27,2020-08-13_11h52.52.482,CDT_GNG_IUS12,2020.1.2,MacIntel,60,,,,,,,,,,,,,,,,,,,0,1,space,1,0.01,,,,,,,,,,,0,41,41,44,1,,,,,,,,,,,,,,,,,,,,
,,,,,,,,,,,,,,,,,,,,,,,,,,,,,,,,,,,,,,,,,,,space,000106,27,2020-08-13_11h52.52.482,CDT_GNG_IUS12,2020.1.2,MacIntel,60,,,,,,,,,,,,,,,,,,,0,1,space,1,0.04,,,,,,,,,,,0,42,42,12,1,,,,,,,,,,,,,,,,,,,,
,,,,,,,,,,,,,,,,,,,,,,,,,,,,,,,,,,,,,,,,,,,space,000106,27,2020-08-13_11h52.52.482,CDT_GNG_IUS12,2020.1.2,MacIntel,60,,,,,,,,,,,,,,,,,,,0,1,space,1,0.265,,,,,,,,,,,0,43,43,14,1,,,,,,,,,,,,,,,,,,,,
,,,,,,,,,,,,,,,,,,,,,,,,,,,,,,,,,,,,,,,,,,,space,000106,27,2020-08-13_11h52.52.482,CDT_GNG_IUS12,2020.1.2,MacIntel,60,,,,,,,,,,,,,,,,,,,0,1,space,1,0.249,,,,,,,,,,,0,44,44,45,1,,,,,,,,,,,,,,,,,,,,
,,,,,,,,,,,,,,,,,,,,,,,,,,,,,,,,,,,,,,,,,,,space,000106,27,2020-08-13_11h52.52.482,CDT_GNG_IUS12,2020.1.2,MacIntel,60,,,,,,,,,,,,,,,,,,,0,1,space,1,0.295,,,,,,,,,,,0,45,45,38,1,,,,,,,,,,,,,,,,,,,,
,,,,,,,,,,,,,,,,,,,,,,,,,,,,,,,,,,,,,,,,,,,space,000106,27,2020-08-13_11h52.52.482,CDT_GNG_IUS12,2020.1.2,MacIntel,60,,,,,,,,,,,,,,,,,,,0,1,space,1,0.288,,,,,,,,,,,0,46,46,17,1,,,,,,,,,,,,,,,,,,,,
,,,,,,,,,,,,,,,,,,,,,,,,,,,,,,,,,,,,,,,,,,,space,000106,27,2020-08-13_11h52.52.482,CDT_GNG_IUS12,2020.1.2,MacIntel,60,,,,,,,,,,,,,,,,,,,0,1,space,1,0.349,,,,,,,,,,,0,47,47,46,1,,,,,,,,,,,,,,,,,,,,
,,,,,,,,,,,,,,,,,,,,,,,,,,,,,,,,,,,,,,,,,,,space,000106,27,2020-08-13_11h52.52.482,CDT_GNG_IUS12,2020.1.2,MacIntel,60,,,,,,,,,,,,,,,,,,,0,1,space,1,0.276,,,,,,,,,,,0,48,48,30,1,,,,,,,,,,,,,,,,,,,,
,,,,,,,,,,,,,,,,,,,,,,,,,,,,,,,,,,,,,,,,,,,space,000106,27,2020-08-13_11h52.52.482,CDT_GNG_IUS12,2020.1.2,MacIntel,60,,,,,,,,,,,,,,,,,,,0,1,space,1,0.266,,,,,,,,,,,0,49,49,35,1,,,,,,,,,,,,,,,,,,,,
,,,,,,,,,,,,,,,,,,,,,,,,,,,,,,,,,,,,,,,,,,,,000106,27,2020-08-13_11h52.52.482,CDT_GNG_IUS12,2020.1.2,MacIntel,60,,,,,,,,,,,,,,,,,,,,,,,,,,,,,,,,,,,,,,,9.066666667,2.51,0,0,0,0,1,1,"On a scale from 0 to 10, indicate your personal perception of your proficiency level for English (10 being the highest score)",,,,,,,,,,,
,,,,,,,,,,,,,,,,,,,,,,,,,,,,,,,,,,,,,,,,,,,,000106,27,2020-08-13_11h52.52.482,CDT_GNG_IUS12,2020.1.2,MacIntel,60,,,,,,,,,,,,,,,,,,,,,,,,,,,,,,,,,,,,,,,9.033333333,1.06,0,1,1,1,1,2,"On a scale from 0 to 10, indicate how frequently you are exposed to English (10 being 'always', 0 being 'never')",,,,,,,,,,,
,,,,,,,,,,,,,,,,,,,,,,,,,,,,,,,,,,,,,,,,,,,,000106,27,2020-08-13_11h52.52.482,CDT_GNG_IUS12,2020.1.2,MacIntel,60,,,,,,,,,,,,,,,,,,,,,,,,,,,,,,,,,,,,,,,,,,,,,,,"On a scale from 0 to 10, indicate your personal perception of your proficiency level for English (10 being the highest score)",2.035555556,1.582,0,0,0,0,1,1,Unforeseen events upset me greatly.,,
,,,,,,,,,,,,,,,,,,,,,,,,,,,,,,,,,,,,,,,,,,,,000106,27,2020-08-13_11h52.52.482,CDT_GNG_IUS12,2020.1.2,MacIntel,60,,,,,,,,,,,,,,,,,,,,,,,,,,,,,,,,,,,,,,,,,,,,,,,"On a scale from 0 to 10, indicate how frequently you are exposed to English (10 being 'always', 0 being 'never')",2.013333333,2.081,0,1,1,1,1,2,It frustrates me not having all the information I need.,,
,,,,,,,,,,,,,,,,,,,,,,,,,,,,,,,,,,,,,,,,,,,,000106,27,2020-08-13_11h52.52.482,CDT_GNG_IUS12,2020.1.2,MacIntel,60,,,,,,,,,,,,,,,,,,,,,,,,,,,,,,,,,,,,,,,,,,,,,,,,1.982222222,1.605,0,2,2,2,1,3,One should always look ahead so as to avoid surprises.,,
,,,,,,,,,,,,,,,,,,,,,,,,,,,,,,,,,,,,,,,,,,,,000106,27,2020-08-13_11h52.52.482,CDT_GNG_IUS12,2020.1.2,MacIntel,60,,,,,,,,,,,,,,,,,,,,,,,,,,,,,,,,,,,,,,,,,,,,,,,,2.097777778,3.695,0,3,3,3,1,4,"A small, unforeseen event can spoil everything, even with the best of planning. ",,
,,,,,,,,,,,,,,,,,,,,,,,,,,,,,,,,,,,,,,,,,,,,000106,27,2020-08-13_11h52.52.482,CDT_GNG_IUS12,2020.1.2,MacIntel,60,,,,,,,,,,,,,,,,,,,,,,,,,,,,,,,,,,,,,,,,,,,,,,,,1.964444444,2.054,0,4,4,4,1,5,I always want to know what the future has in store for me.,,
,,,,,,,,,,,,,,,,,,,,,,,,,,,,,,,,,,,,,,,,,,,,000106,27,2020-08-13_11h52.52.482,CDT_GNG_IUS12,2020.1.2,MacIntel,60,,,,,,,,,,,,,,,,,,,,,,,,,,,,,,,,,,,,,,,,,,,,,,,,1.048888889,2.023,0,5,5,5,1,6,I can't stand being taken by surprise.,,
,,,,,,,,,,,,,,,,,,,,,,,,,,,,,,,,,,,,,,,,,,,,000106,27,2020-08-13_11h52.52.482,CDT_GNG_IUS12,2020.1.2,MacIntel,60,,,,,,,,,,,,,,,,,,,,,,,,,,,,,,,,,,,,,,,,,,,,,,,,2.035555556,1.838,0,6,6,6,1,7,I should be able to organize everything in advance,,
,,,,,,,,,,,,,,,,,,,,,,,,,,,,,,,,,,,,,,,,,,,,000106,27,2020-08-13_11h52.52.482,CDT_GNG_IUS12,2020.1.2,MacIntel,60,,,,,,,,,,,,,,,,,,,,,,,,,,,,,,,,,,,,,,,,,,,,,,,,1.977777778,2.571,0,7,7,7,1,8,Uncertainty keeps me from living a full life.,,
,,,,,,,,,,,,,,,,,,,,,,,,,,,,,,,,,,,,,,,,,,,,000106,27,2020-08-13_11h52.52.482,CDT_GNG_IUS12,2020.1.2,MacIntel,60,,,,,,,,,,,,,,,,,,,,,,,,,,,,,,,,,,,,,,,,,,,,,,,,1,1.589,0,8,8,8,1,9,"When it's time to act, uncertainty paralyses me. ",,
,,,,,,,,,,,,,,,,,,,,,,,,,,,,,,,,,,,,,,,,,,,,000106,27,2020-08-13_11h52.52.482,CDT_GNG_IUS12,2020.1.2,MacIntel,60,,,,,,,,,,,,,,,,,,,,,,,,,,,,,,,,,,,,,,,,,,,,,,,,1.075555556,1.756,0,9,9,9,1,10,"When I am uncertain, I can't function very well. ",,
,,,,,,,,,,,,,,,,,,,,,,,,,,,,,,,,,,,,,,,,,,,,000106,27,2020-08-13_11h52.52.482,CDT_GNG_IUS12,2020.1.2,MacIntel,60,,,,,,,,,,,,,,,,,,,,,,,,,,,,,,,,,,,,,,,,,,,,,,,,2.031111111,2.259,0,10,10,10,1,11,The smallest doubt can stop me from acting. ,,
,,,,,,,,,,,,,,,,,,,,,,,,,,,,,,,,,,,,,,,,,,,,000106,27,2020-08-13_11h52.52.482,CDT_GNG_IUS12,2020.1.2,MacIntel,60,,,,,,,,,,,,,,,,,,,,,,,,,,,,,,,,,,,,,,,,,,,,,,,,1.062222222,2.896,0,11,11,11,1,12,I must get away from all uncertain situations. ,,
,,,,,,,,,,,,,,,,,,,,,,,,,,,,,,,,,,,,,,,,,,,,000106,27,2020-08-13_11h52.52.482,CDT_GNG_IUS12,2020.1.2,MacIntel,60,,,,,,,,,,,,,,,,,,,,,,,,,,,,,,,,,,,,,,,,,,,,,,,,,,,,,,,,,x,5.137
