key_resp_6.keys,key_resp_6.rt,Gender.keys,Gender.rt,key_resp_2.keys,key_resp_2.corr,key_resp_2.rt,CDT_trials_train.thisRepN,CDT_trials_train.thisTrialN,CDT_trials_train.thisN,CDT_trials_train.thisIndex,CDT_trials_train.ran,trialnum,condit,stimamt,stim1posx,stim1posy,stim1col,stim1opa,stim2posx,stim2posy,stim2col,stim2opa,stim3posx,stim3posy,stim3col,stim3opa,stim4posx,stim4posy,stim4col,stim4opa,stim5posx,stim5posy,stim5col,stim5opa,stim6posx,stim6posy,stim6col,stim6opa,stim7posx,stim7posy,stim7col,stim7opa,stim8posx,stim8posy,stim8col,stim8opa,stimsizex,stimsizey,stimdur,targetposx,targetposy,targetcol,corrAns,participant,age,date,expName,psychopyVersion,OS,frameRate,key_resp.keys,key_resp.corr,key_resp.rt,CDT_trials.thisRepN,CDT_trials.thisTrialN,CDT_trials.thisN,CDT_trials.thisIndex,CDT_trials.ran,trialResp_Train.keys,trialResp_Train.corr,trialResp_Train.rt,GNGtrials_train.thisRepN,GNGtrials_train.thisTrialN,GNGtrials_train.thisN,GNGtrials_train.thisIndex,GNGtrials_train.ran,orangeOpacity,blueOpacity,trialResp.keys,trialResp.corr,trialResp.rt,GNG_trials_1.thisRepN,GNG_trials_1.thisTrialN,GNG_trials_1.thisN,GNG_trials_1.thisIndex,GNG_trials_1.ran,GNG_trials_2.thisRepN,GNG_trials_2.thisTrialN,GNG_trials_2.thisN,GNG_trials_2.thisIndex,GNG_trials_2.ran,GNG_trials_3.thisRepN,GNG_trials_3.thisTrialN,GNG_trials_3.thisN,GNG_trials_3.thisIndex,GNG_trials_3.ran,slider_2.response,slider_2.rt,engprof_trials.thisRepN,engprof_trials.thisTrialN,engprof_trials.thisN,engprof_trials.thisIndex,engprof_trials.ran,qpnumber,qproficiency,slider.response,slider.rt,IUS12_trials.thisRepN,IUS12_trials.thisTrialN,IUS12_trials.thisN,IUS12_trials.thisIndex,IUS12_trials.ran,qnumber,qenglish,key_resp_end.keys,key_resp_end.rt
y,1.21677,m,2.55794,k,1,1.378175,0,0,0,0,1,1,same,4,0.14,0.14,orange,1,0.14,-0.41,blue,1,-0.14,-0.27,cyan,1,-0.41,0.14,red,1,0.14,0.41,black,0,0.27,-0.27,green,0,-0.41,-0.27,magenta,0,-0.41,0.41,yellow,0,0.05,0.05,0.15,0.14,-0.41,blue,k,00105,23,2020-08-04_23h56.25.065,CDT_GNG_IUS12,2020.1.2,Win32,60,,,,,,,,,,,,,,,,,,,,,,,,,,,,,,,,,,,,,,,,,,,,,,,,,,,,,,,,
,,,,l,1,0.69023,0,1,1,1,1,2,different,4,0.14,0.41,black,1,0.14,-0.41,green,1,-0.41,-0.27,orange,1,-0.27,0.41,magenta,1,0.14,0.27,red,0,0.41,-0.27,cyan,0,-0.27,-0.41,yellow,0,-0.27,0.27,blue,0,0.05,0.05,0.15,-0.27,0.41,red,l,00105,23,2020-08-04_23h56.25.065,CDT_GNG_IUS12,2020.1.2,Win32,60,,,,,,,,,,,,,,,,,,,,,,,,,,,,,,,,,,,,,,,,,,,,,,,,,,,,,,,,
,,,,k,1,0.549915,0,2,2,2,1,3,same,8,0.27,0.41,yellow,1,0.14,-0.41,cyan,1,-0.14,-0.27,blue,1,-0.14,0.27,green,1,0.14,0.14,red,1,0.27,-0.27,black,1,-0.27,-0.27,magenta,1,-0.27,0.14,orange,1,0.05,0.05,0.15,-0.14,0.27,green,k,00105,23,2020-08-04_23h56.25.065,CDT_GNG_IUS12,2020.1.2,Win32,60,,,,,,,,,,,,,,,,,,,,,,,,,,,,,,,,,,,,,,,,,,,,,,,,,,,,,,,,
,,,,l,1,0.79106,0,3,3,3,1,4,different,8,0.14,0.41,green,1,0.27,-0.14,red,1,-0.27,-0.14,black,1,-0.14,0.41,orange,1,0.41,0.27,blue,1,0.41,-0.27,magenta,1,-0.14,-0.14,cyan,1,-0.27,0.14,yellow,1,0.05,0.05,0.15,0.27,-0.14,cyan,l,00105,23,2020-08-04_23h56.25.065,CDT_GNG_IUS12,2020.1.2,Win32,60,,,,,,,,,,,,,,,,,,,,,,,,,,,,,,,,,,,,,,,,,,,,,,,,,,,,,,,,
,,,,,,,,,,,,99,different,8,0.14,0.27,blue,1,0.41,-0.41,yellow,1,-0.14,-0.14,green,1,-0.41,0.14,black,1,0.41,0.27,red,1,0.27,-0.27,magenta,1,-0.27,-0.27,orange,1,-0.27,0.27,cyan,1,0.05,0.05,0.15,0.14,0.27,black,l,00105,23,2020-08-04_23h56.25.065,CDT_GNG_IUS12,2020.1.2,Win32,60,l,1,0.808765,0,0,0,98,1,,,,,,,,,,,,,,,,,,,,,,,,,,,,,,,,,,,,,,,,,,,,,,,,
,,,,,,,,,,,,55,different,4,0.14,0.14,black,1,0.41,-0.14,cyan,1,-0.27,-0.27,magenta,1,-0.14,0.41,blue,1,0.27,0.14,yellow,0,0.14,-0.27,red,0,-0.27,-0.41,orange,0,-0.27,0.41,green,0,0.05,0.05,0.15,0.14,0.14,yellow,l,00105,23,2020-08-04_23h56.25.065,CDT_GNG_IUS12,2020.1.2,Win32,60,l,1,0.61253,0,1,1,54,1,,,,,,,,,,,,,,,,,,,,,,,,,,,,,,,,,,,,,,,,,,,,,,,,
,,,,,,,,,,,,53,different,4,0.14,0.27,cyan,1,0.41,-0.14,yellow,1,-0.41,-0.41,green,1,-0.14,0.41,black,1,0.41,0.27,red,0,0.14,-0.14,magenta,0,-0.27,-0.27,blue,0,-0.27,0.27,orange,0,0.05,0.05,0.15,0.14,0.27,blue,l,00105,23,2020-08-04_23h56.25.065,CDT_GNG_IUS12,2020.1.2,Win32,60,l,1,1.049365,0,2,2,52,1,,,,,,,,,,,,,,,,,,,,,,,,,,,,,,,,,,,,,,,,,,,,,,,,
,,,,,,,,,,,,50,different,4,0.41,0.14,black,1,0.14,-0.14,blue,1,-0.41,-0.41,red,1,-0.27,0.14,green,1,0.14,0.41,cyan,0,0.41,-0.14,magenta,0,-0.14,-0.27,yellow,0,-0.27,0.41,orange,0,0.05,0.05,0.15,-0.41,-0.41,orange,l,00105,23,2020-08-04_23h56.25.065,CDT_GNG_IUS12,2020.1.2,Win32,60,l,1,0.78866,0,3,3,49,1,,,,,,,,,,,,,,,,,,,,,,,,,,,,,,,,,,,,,,,,,,,,,,,,
,,,,,,,,,,,,69,same,8,0.27,0.14,magenta,1,0.27,-0.41,yellow,1,-0.14,-0.41,green,1,-0.14,0.41,orange,1,0.14,0.41,red,1,0.14,-0.27,black,1,-0.14,-0.27,blue,1,-0.27,0.14,cyan,1,0.05,0.05,0.15,0.14,-0.27,black,k,00105,23,2020-08-04_23h56.25.065,CDT_GNG_IUS12,2020.1.2,Win32,60,l,0,0.67278,0,4,4,68,1,,,,,,,,,,,,,,,,,,,,,,,,,,,,,,,,,,,,,,,,,,,,,,,,
,,,,,,,,,,,,59,different,4,0.27,0.41,black,1,0.41,-0.14,blue,1,-0.27,-0.27,cyan,1,-0.14,0.41,green,1,0.14,0.27,red,0,0.41,-0.41,magenta,0,-0.14,-0.27,orange,0,-0.41,0.27,yellow,0,0.05,0.05,0.15,0.27,0.41,yellow,l,00105,23,2020-08-04_23h56.25.065,CDT_GNG_IUS12,2020.1.2,Win32,60,l,1,0.587155,0,5,5,58,1,,,,,,,,,,,,,,,,,,,,,,,,,,,,,,,,,,,,,,,,,,,,,,,,
,,,,,,,,,,,,23,same,4,0.41,0.14,cyan,1,0.14,-0.27,magenta,1,-0.14,-0.27,red,1,-0.14,0.27,green,1,0.41,0.27,blue,0,0.14,-0.41,yellow,0,-0.41,-0.27,orange,0,-0.27,0.41,black,0,0.05,0.05,0.15,-0.14,0.27,green,k,00105,23,2020-08-04_23h56.25.065,CDT_GNG_IUS12,2020.1.2,Win32,60,k,1,1.16784,0,6,6,22,1,,,,,,,,,,,,,,,,,,,,,,,,,,,,,,,,,,,,,,,,,,,,,,,,
,,,,,,,,,,,,46,different,4,0.14,0.14,red,1,0.14,-0.14,green,1,-0.14,-0.41,orange,1,-0.27,0.41,blue,1,0.41,0.27,cyan,0,0.14,-0.27,magenta,0,-0.14,-0.14,black,0,-0.41,0.27,yellow,0,0.05,0.05,0.15,-0.14,-0.41,blue,l,00105,23,2020-08-04_23h56.25.065,CDT_GNG_IUS12,2020.1.2,Win32,60,l,1,0.671055,0,7,7,45,1,,,,,,,,,,,,,,,,,,,,,,,,,,,,,,,,,,,,,,,,,,,,,,,,
,,,,,,,,,,,,64,same,8,0.41,0.14,green,1,0.14,-0.41,cyan,1,-0.14,-0.14,yellow,1,-0.14,0.27,red,1,0.27,0.14,blue,1,0.27,-0.27,magenta,1,-0.14,-0.27,orange,1,-0.14,0.41,black,1,0.05,0.05,0.15,-0.14,0.27,red,k,00105,23,2020-08-04_23h56.25.065,CDT_GNG_IUS12,2020.1.2,Win32,60,k,1,0.527245,0,8,8,63,1,,,,,,,,,,,,,,,,,,,,,,,,,,,,,,,,,,,,,,,,,,,,,,,,
,,,,,,,,,,,,56,different,4,0.27,0.14,yellow,1,0.41,-0.14,blue,1,-0.14,-0.27,green,1,-0.41,0.14,cyan,1,0.14,0.14,magenta,0,0.41,-0.41,red,0,-0.41,-0.14,orange,0,-0.41,0.27,black,0,0.05,0.05,0.15,-0.14,-0.27,magenta,l,00105,23,2020-08-04_23h56.25.065,CDT_GNG_IUS12,2020.1.2,Win32,60,l,1,0.80942,0,9,9,55,1,,,,,,,,,,,,,,,,,,,,,,,,,,,,,,,,,,,,,,,,,,,,,,,,
,,,,,,,,,,,,81,same,8,0.27,0.14,yellow,1,0.41,-0.14,blue,1,-0.41,-0.14,green,1,-0.41,0.14,orange,1,0.14,0.41,red,1,0.14,-0.27,magenta,1,-0.14,-0.27,cyan,1,-0.14,0.14,black,1,0.05,0.05,0.15,-0.41,0.14,orange,k,00105,23,2020-08-04_23h56.25.065,CDT_GNG_IUS12,2020.1.2,Win32,60,k,1,0.80401,0,10,10,80,1,,,,,,,,,,,,,,,,,,,,,,,,,,,,,,,,,,,,,,,,,,,,,,,,
,,,,,,,,,,,,96,different,8,0.14,0.14,yellow,1,0.14,-0.41,black,1,-0.27,-0.27,orange,1,-0.14,0.41,blue,1,0.14,0.27,magenta,1,0.41,-0.27,cyan,1,-0.41,-0.41,red,1,-0.41,0.41,green,1,0.05,0.05,0.15,0.41,-0.27,magenta,l,00105,23,2020-08-04_23h56.25.065,CDT_GNG_IUS12,2020.1.2,Win32,60,l,1,1.05959,0,11,11,95,1,,,,,,,,,,,,,,,,,,,,,,,,,,,,,,,,,,,,,,,,,,,,,,,,
,,,,,,,,,,,,103,different,8,0.14,0.14,black,1,0.14,-0.27,cyan,1,-0.41,-0.41,green,1,-0.41,0.27,red,1,0.27,0.41,orange,1,0.27,-0.27,blue,1,-0.41,-0.14,magenta,1,-0.41,0.41,yellow,1,0.05,0.05,0.15,0.27,-0.27,magenta,l,00105,23,2020-08-04_23h56.25.065,CDT_GNG_IUS12,2020.1.2,Win32,60,l,1,1.202215,0,12,12,102,1,,,,,,,,,,,,,,,,,,,,,,,,,,,,,,,,,,,,,,,,,,,,,,,,
,,,,,,,,,,,,109,different,8,0.41,0.14,yellow,1,0.27,-0.27,cyan,1,-0.14,-0.27,magenta,1,-0.27,0.14,orange,1,0.41,0.41,green,1,0.27,-0.41,red,1,-0.27,-0.41,black,1,-0.27,0.41,blue,1,0.05,0.05,0.15,0.27,-0.27,green,l,00105,23,2020-08-04_23h56.25.065,CDT_GNG_IUS12,2020.1.2,Win32,60,l,1,0.94212,0,13,13,108,1,,,,,,,,,,,,,,,,,,,,,,,,,,,,,,,,,,,,,,,,,,,,,,,,
,,,,,,,,,,,,92,different,8,0.27,0.27,yellow,1,0.14,-0.27,green,1,-0.41,-0.14,blue,1,-0.41,0.41,red,1,0.14,0.27,magenta,1,0.27,-0.14,cyan,1,-0.14,-0.14,orange,1,-0.27,0.27,black,1,0.05,0.05,0.15,-0.41,-0.14,magenta,l,00105,23,2020-08-04_23h56.25.065,CDT_GNG_IUS12,2020.1.2,Win32,60,l,1,0.76808,0,14,14,91,1,,,,,,,,,,,,,,,,,,,,,,,,,,,,,,,,,,,,,,,,,,,,,,,,
,,,,,,,,,,,,91,different,8,0.27,0.27,red,1,0.41,-0.14,orange,1,-0.14,-0.27,green,1,-0.27,0.27,yellow,1,0.14,0.27,cyan,1,0.14,-0.14,black,1,-0.41,-0.41,blue,1,-0.14,0.41,magenta,1,0.05,0.05,0.15,-0.14,0.41,yellow,l,00105,23,2020-08-04_23h56.25.065,CDT_GNG_IUS12,2020.1.2,Win32,60,l,1,1.027515,0,15,15,90,1,,,,,,,,,,,,,,,,,,,,,,,,,,,,,,,,,,,,,,,,,,,,,,,,
,,,,,,,,,,,,17,same,4,0.41,0.27,cyan,1,0.41,-0.41,black,1,-0.14,-0.27,magenta,1,-0.14,0.41,green,1,0.14,0.14,orange,0,0.14,-0.41,yellow,0,-0.14,-0.41,red,0,-0.27,0.14,blue,0,0.05,0.05,0.15,-0.14,0.41,green,k,00105,23,2020-08-04_23h56.25.065,CDT_GNG_IUS12,2020.1.2,Win32,60,k,1,0.63808,0,16,16,16,1,,,,,,,,,,,,,,,,,,,,,,,,,,,,,,,,,,,,,,,,,,,,,,,,
,,,,,,,,,,,,60,different,4,0.41,0.14,cyan,1,0.14,-0.41,green,1,-0.41,-0.41,yellow,1,-0.41,0.41,magenta,1,0.14,0.14,orange,0,0.41,-0.41,red,0,-0.14,-0.41,black,0,-0.27,0.27,blue,0,0.05,0.05,0.15,0.41,0.14,blue,l,00105,23,2020-08-04_23h56.25.065,CDT_GNG_IUS12,2020.1.2,Win32,60,l,1,0.76072,0,17,17,59,1,,,,,,,,,,,,,,,,,,,,,,,,,,,,,,,,,,,,,,,,,,,,,,,,
,,,,,,,,,,,,84,same,8,0.27,0.14,magenta,1,0.14,-0.14,yellow,1,-0.14,-0.14,blue,1,-0.27,0.27,red,1,0.41,0.14,cyan,1,0.41,-0.27,orange,1,-0.14,-0.27,black,1,-0.41,0.14,green,1,0.05,0.05,0.15,-0.27,0.27,red,k,00105,23,2020-08-04_23h56.25.065,CDT_GNG_IUS12,2020.1.2,Win32,60,k,1,0.52143,0,18,18,83,1,,,,,,,,,,,,,,,,,,,,,,,,,,,,,,,,,,,,,,,,,,,,,,,,
,,,,,,,,,,,,62,same,8,0.41,0.14,red,1,0.14,-0.27,cyan,1,-0.41,-0.27,orange,1,-0.27,0.27,magenta,1,0.14,0.27,green,1,0.14,-0.14,blue,1,-0.27,-0.41,black,1,-0.41,0.14,yellow,1,0.05,0.05,0.15,-0.27,0.27,magenta,k,00105,23,2020-08-04_23h56.25.065,CDT_GNG_IUS12,2020.1.2,Win32,60,k,1,0.754425,0,19,19,61,1,,,,,,,,,,,,,,,,,,,,,,,,,,,,,,,,,,,,,,,,,,,,,,,,
,,,,,,,,,,,,18,same,4,0.41,0.27,orange,1,0.14,-0.27,blue,1,-0.27,-0.41,yellow,1,-0.41,0.27,magenta,1,0.14,0.41,red,0,0.14,-0.14,black,0,-0.41,-0.27,green,0,-0.41,0.41,cyan,0,0.05,0.05,0.15,0.14,-0.27,blue,k,00105,23,2020-08-04_23h56.25.065,CDT_GNG_IUS12,2020.1.2,Win32,60,l,0,0.804135,0,20,20,17,1,,,,,,,,,,,,,,,,,,,,,,,,,,,,,,,,,,,,,,,,,,,,,,,,
,,,,,,,,,,,,72,same,8,0.27,0.41,blue,1,0.41,-0.27,magenta,1,-0.41,-0.41,yellow,1,-0.27,0.41,black,1,0.41,0.41,cyan,1,0.27,-0.41,green,1,-0.41,-0.27,orange,1,-0.14,0.27,red,1,0.05,0.05,0.15,-0.14,0.27,red,k,00105,23,2020-08-04_23h56.25.065,CDT_GNG_IUS12,2020.1.2,Win32,60,l,0,1.111485,0,21,21,71,1,,,,,,,,,,,,,,,,,,,,,,,,,,,,,,,,,,,,,,,,,,,,,,,,
,,,,,,,,,,,,63,same,8,0.27,0.27,magenta,1,0.27,-0.27,yellow,1,-0.27,-0.14,orange,1,-0.14,0.14,green,1,0.41,0.27,blue,1,0.41,-0.27,cyan,1,-0.41,-0.41,red,1,-0.41,0.27,black,1,0.05,0.05,0.15,0.27,0.27,magenta,k,00105,23,2020-08-04_23h56.25.065,CDT_GNG_IUS12,2020.1.2,Win32,60,l,0,1.67638,0,22,22,62,1,,,,,,,,,,,,,,,,,,,,,,,,,,,,,,,,,,,,,,,,,,,,,,,,
,,,,,,,,,,,,105,different,8,0.41,0.27,cyan,1,0.14,-0.14,magenta,1,-0.27,-0.14,blue,1,-0.41,0.41,yellow,1,0.41,0.41,red,1,0.14,-0.41,green,1,-0.27,-0.27,orange,1,-0.27,0.41,black,1,0.05,0.05,0.15,0.41,0.27,orange,l,00105,23,2020-08-04_23h56.25.065,CDT_GNG_IUS12,2020.1.2,Win32,60,l,1,0.60873,0,23,23,104,1,,,,,,,,,,,,,,,,,,,,,,,,,,,,,,,,,,,,,,,,,,,,,,,,
,,,,,,,,,,,,26,same,4,0.14,0.14,black,1,0.14,-0.14,red,1,-0.41,-0.14,yellow,1,-0.14,0.41,orange,1,0.27,0.14,blue,0,0.14,-0.27,magenta,0,-0.27,-0.41,green,0,-0.14,0.27,cyan,0,0.05,0.05,0.15,-0.41,-0.14,yellow,k,00105,23,2020-08-04_23h56.25.065,CDT_GNG_IUS12,2020.1.2,Win32,60,k,1,0.64784,0,24,24,25,1,,,,,,,,,,,,,,,,,,,,,,,,,,,,,,,,,,,,,,,,,,,,,,,,
,,,,,,,,,,,,106,different,8,0.41,0.41,black,1,0.14,-0.41,yellow,1,-0.41,-0.14,orange,1,-0.27,0.27,blue,1,0.14,0.41,red,1,0.41,-0.27,green,1,-0.14,-0.14,cyan,1,-0.14,0.14,magenta,1,0.05,0.05,0.15,-0.41,-0.14,green,l,00105,23,2020-08-04_23h56.25.065,CDT_GNG_IUS12,2020.1.2,Win32,60,l,1,0.62022,0,25,25,105,1,,,,,,,,,,,,,,,,,,,,,,,,,,,,,,,,,,,,,,,,,,,,,,,,
,,,,,,,,,,,,83,same,8,0.14,0.27,yellow,1,0.27,-0.41,orange,1,-0.27,-0.41,green,1,-0.41,0.14,cyan,1,0.41,0.27,blue,1,0.14,-0.14,magenta,1,-0.14,-0.14,red,1,-0.41,0.41,black,1,0.05,0.05,0.15,-0.41,0.41,black,k,00105,23,2020-08-04_23h56.25.065,CDT_GNG_IUS12,2020.1.2,Win32,60,l,0,1.832865,0,26,26,82,1,,,,,,,,,,,,,,,,,,,,,,,,,,,,,,,,,,,,,,,,,,,,,,,,
,,,,,,,,,,,,45,different,4,0.14,0.14,red,1,0.27,-0.27,black,1,-0.41,-0.27,cyan,1,-0.41,0.27,blue,1,0.27,0.27,magenta,0,0.14,-0.41,orange,0,-0.14,-0.14,green,0,-0.27,0.14,yellow,0,0.05,0.05,0.15,0.14,0.14,blue,l,00105,23,2020-08-04_23h56.25.065,CDT_GNG_IUS12,2020.1.2,Win32,60,l,1,1.67801,0,27,27,44,1,,,,,,,,,,,,,,,,,,,,,,,,,,,,,,,,,,,,,,,,,,,,,,,,
,,,,,,,,,,,,102,different,8,0.14,0.27,yellow,1,0.14,-0.41,green,1,-0.41,-0.27,red,1,-0.14,0.41,orange,1,0.41,0.41,magenta,1,0.27,-0.41,blue,1,-0.27,-0.41,cyan,1,-0.27,0.27,black,1,0.05,0.05,0.15,-0.27,0.27,yellow,l,00105,23,2020-08-04_23h56.25.065,CDT_GNG_IUS12,2020.1.2,Win32,60,l,1,1.17778,0,28,28,101,1,,,,,,,,,,,,,,,,,,,,,,,,,,,,,,,,,,,,,,,,,,,,,,,,
,,,,,,,,,,,,104,different,8,0.41,0.41,cyan,1,0.41,-0.41,blue,1,-0.27,-0.14,green,1,-0.27,0.14,orange,1,0.14,0.41,red,1,0.27,-0.27,yellow,1,-0.41,-0.27,magenta,1,-0.14,0.41,black,1,0.05,0.05,0.15,-0.14,0.41,magenta,l,00105,23,2020-08-04_23h56.25.065,CDT_GNG_IUS12,2020.1.2,Win32,60,l,1,0.56809,0,29,29,103,1,,,,,,,,,,,,,,,,,,,,,,,,,,,,,,,,,,,,,,,,,,,,,,,,
,,,,,,,,,,,,13,same,4,0.41,0.41,black,1,0.14,-0.14,red,1,-0.14,-0.14,orange,1,-0.14,0.14,cyan,1,0.14,0.14,green,0,0.27,-0.27,magenta,0,-0.27,-0.14,yellow,0,-0.14,0.41,blue,0,0.05,0.05,0.15,0.41,0.41,black,k,00105,23,2020-08-04_23h56.25.065,CDT_GNG_IUS12,2020.1.2,Win32,60,k,1,0.8591,0,30,30,12,1,,,,,,,,,,,,,,,,,,,,,,,,,,,,,,,,,,,,,,,,,,,,,,,,
,,,,,,,,,,,,48,different,4,0.14,0.27,red,1,0.27,-0.14,yellow,1,-0.27,-0.41,magenta,1,-0.41,0.14,green,1,0.14,0.14,orange,0,0.41,-0.14,cyan,0,-0.27,-0.27,black,0,-0.41,0.41,blue,0,0.05,0.05,0.15,0.14,0.27,blue,l,00105,23,2020-08-04_23h56.25.065,CDT_GNG_IUS12,2020.1.2,Win32,60,l,1,0.539595,0,31,31,47,1,,,,,,,,,,,,,,,,,,,,,,,,,,,,,,,,,,,,,,,,,,,,,,,,
,,,,,,,,,,,,94,different,8,0.41,0.27,yellow,1,0.41,-0.27,blue,1,-0.41,-0.14,magenta,1,-0.41,0.27,orange,1,0.41,0.41,red,1,0.41,-0.41,green,1,-0.14,-0.14,black,1,-0.41,0.14,cyan,1,0.05,0.05,0.15,-0.41,0.14,black,l,00105,23,2020-08-04_23h56.25.065,CDT_GNG_IUS12,2020.1.2,Win32,60,l,1,0.658245,0,32,32,93,1,,,,,,,,,,,,,,,,,,,,,,,,,,,,,,,,,,,,,,,,,,,,,,,,
,,,,,,,,,,,,70,same,8,0.41,0.41,black,1,0.14,-0.27,red,1,-0.41,-0.41,magenta,1,-0.27,0.41,green,1,0.27,0.14,yellow,1,0.41,-0.41,orange,1,-0.27,-0.14,blue,1,-0.27,0.27,cyan,1,0.05,0.05,0.15,0.14,-0.27,red,k,00105,23,2020-08-04_23h56.25.065,CDT_GNG_IUS12,2020.1.2,Win32,60,l,0,0.70486,0,33,33,69,1,,,,,,,,,,,,,,,,,,,,,,,,,,,,,,,,,,,,,,,,,,,,,,,,
,,,,,,,,,,,,28,same,4,0.41,0.41,magenta,1,0.27,-0.14,blue,1,-0.14,-0.14,red,1,-0.14,0.41,orange,1,0.14,0.14,black,0,0.41,-0.14,green,0,-0.27,-0.14,yellow,0,-0.14,0.27,cyan,0,0.05,0.05,0.15,0.27,-0.14,blue,k,00105,23,2020-08-04_23h56.25.065,CDT_GNG_IUS12,2020.1.2,Win32,60,l,0,1.34323,0,34,34,27,1,,,,,,,,,,,,,,,,,,,,,,,,,,,,,,,,,,,,,,,,,,,,,,,,
,,,,,,,,,,,,49,different,4,0.27,0.14,green,1,0.41,-0.14,yellow,1,-0.27,-0.41,red,1,-0.14,0.14,cyan,1,0.14,0.14,blue,0,0.27,-0.27,black,0,-0.14,-0.41,orange,0,-0.41,0.14,magenta,0,0.05,0.05,0.15,0.27,0.14,yellow,l,00105,23,2020-08-04_23h56.25.065,CDT_GNG_IUS12,2020.1.2,Win32,60,l,1,0.7492,0,35,35,48,1,,,,,,,,,,,,,,,,,,,,,,,,,,,,,,,,,,,,,,,,,,,,,,,,
,,,,,,,,,,,,79,same,8,0.27,0.14,green,1,0.41,-0.14,yellow,1,-0.27,-0.41,orange,1,-0.14,0.14,black,1,0.41,0.27,cyan,1,0.14,-0.14,red,1,-0.14,-0.27,blue,1,-0.27,0.41,magenta,1,0.05,0.05,0.15,0.41,0.27,cyan,k,00105,23,2020-08-04_23h56.25.065,CDT_GNG_IUS12,2020.1.2,Win32,60,k,1,0.71631,0,36,36,78,1,,,,,,,,,,,,,,,,,,,,,,,,,,,,,,,,,,,,,,,,,,,,,,,,
,,,,,,,,,,,,75,same,8,0.41,0.27,blue,1,0.41,-0.41,black,1,-0.41,-0.41,red,1,-0.27,0.14,magenta,1,0.27,0.14,yellow,1,0.27,-0.27,cyan,1,-0.14,-0.27,green,1,-0.41,0.27,orange,1,0.05,0.05,0.15,-0.14,-0.27,green,k,00105,23,2020-08-04_23h56.25.065,CDT_GNG_IUS12,2020.1.2,Win32,60,l,0,1.42209,0,37,37,74,1,,,,,,,,,,,,,,,,,,,,,,,,,,,,,,,,,,,,,,,,,,,,,,,,
,,,,,,,,,,,,3,same,4,0.27,0.14,green,1,0.27,-0.27,orange,1,-0.27,-0.41,yellow,1,-0.41,0.41,magenta,1,0.14,0.41,black,0,0.14,-0.41,red,0,-0.27,-0.14,cyan,0,-0.14,0.14,blue,0,0.05,0.05,0.15,-0.27,-0.41,yellow,k,00105,23,2020-08-04_23h56.25.065,CDT_GNG_IUS12,2020.1.2,Win32,60,k,1,0.64594,0,38,38,2,1,,,,,,,,,,,,,,,,,,,,,,,,,,,,,,,,,,,,,,,,,,,,,,,,
,,,,,,,,,,,,44,different,4,0.27,0.27,black,1,0.41,-0.14,red,1,-0.41,-0.27,magenta,1,-0.14,0.14,green,1,0.41,0.41,cyan,0,0.14,-0.14,yellow,0,-0.27,-0.41,blue,0,-0.27,0.14,orange,0,0.05,0.05,0.15,0.41,-0.14,magenta,l,00105,23,2020-08-04_23h56.25.065,CDT_GNG_IUS12,2020.1.2,Win32,60,l,1,0.747985,0,39,39,43,1,,,,,,,,,,,,,,,,,,,,,,,,,,,,,,,,,,,,,,,,,,,,,,,,
,,,,,,,,,,,,67,same,8,0.14,0.27,yellow,1,0.27,-0.14,magenta,1,-0.27,-0.27,black,1,-0.41,0.41,blue,1,0.41,0.14,cyan,1,0.14,-0.14,red,1,-0.41,-0.14,orange,1,-0.41,0.27,green,1,0.05,0.05,0.15,-0.27,-0.27,black,k,00105,23,2020-08-04_23h56.25.065,CDT_GNG_IUS12,2020.1.2,Win32,60,l,0,1.082925,0,40,40,66,1,,,,,,,,,,,,,,,,,,,,,,,,,,,,,,,,,,,,,,,,,,,,,,,,
,,,,,,,,,,,,37,different,4,0.41,0.41,yellow,1,0.27,-0.14,black,1,-0.14,-0.14,orange,1,-0.41,0.14,green,1,0.14,0.14,cyan,0,0.27,-0.41,blue,0,-0.14,-0.27,magenta,0,-0.14,0.14,red,0,0.05,0.05,0.15,0.41,0.41,red,l,00105,23,2020-08-04_23h56.25.065,CDT_GNG_IUS12,2020.1.2,Win32,60,l,1,0.70346,0,41,41,36,1,,,,,,,,,,,,,,,,,,,,,,,,,,,,,,,,,,,,,,,,,,,,,,,,
,,,,,,,,,,,,4,same,4,0.41,0.27,magenta,1,0.27,-0.41,orange,1,-0.41,-0.41,red,1,-0.14,0.41,green,1,0.27,0.41,blue,0,0.14,-0.41,black,0,-0.27,-0.14,cyan,0,-0.41,0.27,yellow,0,0.05,0.05,0.15,0.27,-0.41,orange,k,00105,23,2020-08-04_23h56.25.065,CDT_GNG_IUS12,2020.1.2,Win32,60,k,1,1.3161,0,42,42,3,1,,,,,,,,,,,,,,,,,,,,,,,,,,,,,,,,,,,,,,,,,,,,,,,,
,,,,,,,,,,,,93,different,8,0.14,0.41,blue,1,0.14,-0.27,red,1,-0.41,-0.14,magenta,1,-0.14,0.27,black,1,0.41,0.27,yellow,1,0.41,-0.14,orange,1,-0.27,-0.14,green,1,-0.14,0.41,cyan,1,0.05,0.05,0.15,0.41,-0.14,blue,l,00105,23,2020-08-04_23h56.25.065,CDT_GNG_IUS12,2020.1.2,Win32,60,l,1,0.750295,0,43,43,92,1,,,,,,,,,,,,,,,,,,,,,,,,,,,,,,,,,,,,,,,,,,,,,,,,
,,,,,,,,,,,,58,different,4,0.14,0.41,blue,1,0.14,-0.14,black,1,-0.14,-0.14,yellow,1,-0.27,0.41,magenta,1,0.27,0.41,red,0,0.14,-0.27,cyan,0,-0.41,-0.27,orange,0,-0.27,0.27,green,0,0.05,0.05,0.15,0.14,0.41,yellow,l,00105,23,2020-08-04_23h56.25.065,CDT_GNG_IUS12,2020.1.2,Win32,60,l,1,0.59866,0,44,44,57,1,,,,,,,,,,,,,,,,,,,,,,,,,,,,,,,,,,,,,,,,,,,,,,,,
,,,,,,,,,,,,114,different,8,0.41,0.41,yellow,1,0.14,-0.41,red,1,-0.41,-0.41,blue,1,-0.27,0.14,cyan,1,0.41,0.27,black,1,0.27,-0.41,green,1,-0.14,-0.41,orange,1,-0.14,0.41,magenta,1,0.05,0.05,0.15,-0.14,0.41,orange,l,00105,23,2020-08-04_23h56.25.065,CDT_GNG_IUS12,2020.1.2,Win32,60,l,1,0.63524,0,45,45,113,1,,,,,,,,,,,,,,,,,,,,,,,,,,,,,,,,,,,,,,,,,,,,,,,,
,,,,,,,,,,,,88,same,8,0.27,0.41,red,1,0.41,-0.14,cyan,1,-0.14,-0.14,green,1,-0.41,0.41,orange,1,0.14,0.27,magenta,1,0.27,-0.27,yellow,1,-0.41,-0.41,black,1,-0.27,0.41,blue,1,0.05,0.05,0.15,-0.41,0.41,orange,k,00105,23,2020-08-04_23h56.25.065,CDT_GNG_IUS12,2020.1.2,Win32,60,k,1,1.15158,0,46,46,87,1,,,,,,,,,,,,,,,,,,,,,,,,,,,,,,,,,,,,,,,,,,,,,,,,
,,,,,,,,,,,,119,different,8,0.27,0.27,green,1,0.27,-0.14,orange,1,-0.41,-0.41,cyan,1,-0.27,0.27,blue,1,0.41,0.27,black,1,0.14,-0.41,red,1,-0.14,-0.41,yellow,1,-0.41,0.27,magenta,1,0.05,0.05,0.15,-0.41,0.27,cyan,l,00105,23,2020-08-04_23h56.25.065,CDT_GNG_IUS12,2020.1.2,Win32,60,l,1,0.63108,0,47,47,118,1,,,,,,,,,,,,,,,,,,,,,,,,,,,,,,,,,,,,,,,,,,,,,,,,
,,,,,,,,,,,,95,different,8,0.41,0.41,black,1,0.14,-0.14,cyan,1,-0.14,-0.41,orange,1,-0.14,0.27,blue,1,0.41,0.27,magenta,1,0.14,-0.41,green,1,-0.27,-0.27,red,1,-0.41,0.14,yellow,1,0.05,0.05,0.15,-0.14,0.27,green,l,00105,23,2020-08-04_23h56.25.065,CDT_GNG_IUS12,2020.1.2,Win32,60,l,1,0.590775,0,48,48,94,1,,,,,,,,,,,,,,,,,,,,,,,,,,,,,,,,,,,,,,,,,,,,,,,,
,,,,,,,,,,,,25,same,4,0.41,0.27,cyan,1,0.27,-0.27,yellow,1,-0.41,-0.14,black,1,-0.14,0.27,blue,1,0.41,0.14,green,0,0.14,-0.41,magenta,0,-0.41,-0.41,orange,0,-0.27,0.41,red,0,0.05,0.05,0.15,0.27,-0.27,yellow,k,00105,23,2020-08-04_23h56.25.065,CDT_GNG_IUS12,2020.1.2,Win32,60,k,1,0.826125,0,49,49,24,1,,,,,,,,,,,,,,,,,,,,,,,,,,,,,,,,,,,,,,,,,,,,,,,,
,,,,,,,,,,,,2,same,4,0.27,0.41,magenta,1,0.41,-0.14,red,1,-0.27,-0.14,orange,1,-0.27,0.14,blue,1,0.14,0.14,cyan,0,0.14,-0.14,green,0,-0.14,-0.14,black,0,-0.14,0.41,yellow,0,0.05,0.05,0.15,-0.27,-0.14,orange,k,00105,23,2020-08-04_23h56.25.065,CDT_GNG_IUS12,2020.1.2,Win32,60,k,1,0.56732,0,50,50,1,1,,,,,,,,,,,,,,,,,,,,,,,,,,,,,,,,,,,,,,,,,,,,,,,,
,,,,,,,,,,,,29,same,4,0.14,0.27,black,1,0.41,-0.14,blue,1,-0.41,-0.14,magenta,1,-0.27,0.27,green,1,0.27,0.27,yellow,0,0.41,-0.41,orange,0,-0.41,-0.27,cyan,0,-0.14,0.14,red,0,0.05,0.05,0.15,0.41,-0.14,blue,k,00105,23,2020-08-04_23h56.25.065,CDT_GNG_IUS12,2020.1.2,Win32,60,k,1,1.2587,0,51,51,28,1,,,,,,,,,,,,,,,,,,,,,,,,,,,,,,,,,,,,,,,,,,,,,,,,
,,,,,,,,,,,,1,same,4,0.14,0.14,magenta,1,0.27,-0.14,blue,1,-0.27,-0.14,black,1,-0.27,0.27,green,1,0.41,0.41,red,0,0.27,-0.27,cyan,0,-0.14,-0.14,yellow,0,-0.27,0.41,orange,0,0.05,0.05,0.15,0.14,0.14,magenta,k,00105,23,2020-08-04_23h56.25.065,CDT_GNG_IUS12,2020.1.2,Win32,60,k,1,0.65865,0,52,52,0,1,,,,,,,,,,,,,,,,,,,,,,,,,,,,,,,,,,,,,,,,,,,,,,,,
,,,,,,,,,,,,21,same,4,0.41,0.27,magenta,1,0.27,-0.41,black,1,-0.27,-0.14,orange,1,-0.41,0.41,green,1,0.27,0.14,yellow,0,0.27,-0.14,cyan,0,-0.27,-0.27,red,0,-0.41,0.27,blue,0,0.05,0.05,0.15,0.27,-0.41,black,k,00105,23,2020-08-04_23h56.25.065,CDT_GNG_IUS12,2020.1.2,Win32,60,l,0,1.19654,0,53,53,20,1,,,,,,,,,,,,,,,,,,,,,,,,,,,,,,,,,,,,,,,,,,,,,,,,
,,,,,,,,,,,,9,same,4,0.27,0.27,red,1,0.14,-0.27,orange,1,-0.14,-0.41,yellow,1,-0.27,0.41,blue,1,0.41,0.41,green,0,0.41,-0.41,cyan,0,-0.27,-0.41,magenta,0,-0.27,0.27,black,0,0.05,0.05,0.15,0.27,0.27,red,k,00105,23,2020-08-04_23h56.25.065,CDT_GNG_IUS12,2020.1.2,Win32,60,k,1,0.63869,0,54,54,8,1,,,,,,,,,,,,,,,,,,,,,,,,,,,,,,,,,,,,,,,,,,,,,,,,
,,,,,,,,,,,,71,same,8,0.14,0.41,red,1,0.27,-0.14,yellow,1,-0.27,-0.41,cyan,1,-0.41,0.27,blue,1,0.41,0.27,magenta,1,0.14,-0.41,orange,1,-0.14,-0.14,black,1,-0.41,0.14,green,1,0.05,0.05,0.15,-0.41,0.27,blue,k,00105,23,2020-08-04_23h56.25.065,CDT_GNG_IUS12,2020.1.2,Win32,60,k,1,0.525515,0,55,55,70,1,,,,,,,,,,,,,,,,,,,,,,,,,,,,,,,,,,,,,,,,,,,,,,,,
,,,,,,,,,,,,68,same,8,0.14,0.27,green,1,0.41,-0.27,magenta,1,-0.14,-0.27,cyan,1,-0.41,0.14,red,1,0.41,0.14,yellow,1,0.27,-0.14,blue,1,-0.14,-0.41,orange,1,-0.14,0.14,black,1,0.05,0.05,0.15,0.27,-0.14,blue,k,00105,23,2020-08-04_23h56.25.065,CDT_GNG_IUS12,2020.1.2,Win32,60,l,0,1.535215,0,56,56,67,1,,,,,,,,,,,,,,,,,,,,,,,,,,,,,,,,,,,,,,,,,,,,,,,,
,,,,,,,,,,,,65,same,8,0.41,0.41,blue,1,0.27,-0.41,yellow,1,-0.27,-0.41,red,1,-0.41,0.27,cyan,1,0.14,0.27,black,1,0.27,-0.27,orange,1,-0.41,-0.41,magenta,1,-0.41,0.41,green,1,0.05,0.05,0.15,0.27,-0.27,orange,k,00105,23,2020-08-04_23h56.25.065,CDT_GNG_IUS12,2020.1.2,Win32,60,l,0,2.05004,0,57,57,64,1,,,,,,,,,,,,,,,,,,,,,,,,,,,,,,,,,,,,,,,,,,,,,,,,
,,,,,,,,,,,,82,same,8,0.27,0.41,yellow,1,0.14,-0.14,magenta,1,-0.14,-0.14,orange,1,-0.14,0.41,black,1,0.14,0.41,red,1,0.27,-0.14,green,1,-0.27,-0.27,cyan,1,-0.41,0.41,blue,1,0.05,0.05,0.15,0.14,-0.14,magenta,k,00105,23,2020-08-04_23h56.25.065,CDT_GNG_IUS12,2020.1.2,Win32,60,l,0,2.366435,0,58,58,81,1,,,,,,,,,,,,,,,,,,,,,,,,,,,,,,,,,,,,,,,,,,,,,,,,
,,,,,,,,,,,,66,same,8,0.27,0.27,magenta,1,0.14,-0.41,green,1,-0.27,-0.14,yellow,1,-0.14,0.27,orange,1,0.41,0.41,red,1,0.14,-0.14,cyan,1,-0.14,-0.27,black,1,-0.27,0.41,blue,1,0.05,0.05,0.15,0.41,0.41,red,k,00105,23,2020-08-04_23h56.25.065,CDT_GNG_IUS12,2020.1.2,Win32,60,k,1,0.70512,0,59,59,65,1,,,,,,,,,,,,,,,,,,,,,,,,,,,,,,,,,,,,,,,,,,,,,,,,
,,,,,,,,,,,,15,same,4,0.41,0.14,magenta,1,0.41,-0.27,blue,1,-0.27,-0.14,yellow,1,-0.14,0.41,green,1,0.41,0.27,red,0,0.14,-0.14,orange,0,-0.14,-0.14,cyan,0,-0.27,0.27,black,0,0.05,0.05,0.15,-0.14,0.41,green,k,00105,23,2020-08-04_23h56.25.065,CDT_GNG_IUS12,2020.1.2,Win32,60,l,0,1.68472,0,60,60,14,1,,,,,,,,,,,,,,,,,,,,,,,,,,,,,,,,,,,,,,,,,,,,,,,,
,,,,,,,,,,,,35,different,4,0.27,0.41,orange,1,0.41,-0.14,cyan,1,-0.27,-0.27,green,1,-0.14,0.27,yellow,1,0.41,0.27,black,0,0.41,-0.41,magenta,0,-0.14,-0.14,blue,0,-0.27,0.14,red,0,0.05,0.05,0.15,-0.14,0.27,blue,l,00105,23,2020-08-04_23h56.25.065,CDT_GNG_IUS12,2020.1.2,Win32,60,l,1,0.63072,0,61,61,34,1,,,,,,,,,,,,,,,,,,,,,,,,,,,,,,,,,,,,,,,,,,,,,,,,
,,,,,,,,,,,,43,different,4,0.27,0.27,red,1,0.14,-0.27,orange,1,-0.41,-0.14,green,1,-0.27,0.27,cyan,1,0.41,0.41,black,0,0.27,-0.14,magenta,0,-0.41,-0.41,yellow,0,-0.41,0.41,blue,0,0.05,0.05,0.15,-0.41,-0.14,magenta,l,00105,23,2020-08-04_23h56.25.065,CDT_GNG_IUS12,2020.1.2,Win32,60,l,1,0.830225,0,62,62,42,1,,,,,,,,,,,,,,,,,,,,,,,,,,,,,,,,,,,,,,,,,,,,,,,,
,,,,,,,,,,,,30,same,4,0.14,0.41,black,1,0.41,-0.27,yellow,1,-0.14,-0.27,green,1,-0.41,0.14,orange,1,0.41,0.27,blue,0,0.14,-0.41,magenta,0,-0.27,-0.27,cyan,0,-0.41,0.41,red,0,0.05,0.05,0.15,0.14,0.41,black,k,00105,23,2020-08-04_23h56.25.065,CDT_GNG_IUS12,2020.1.2,Win32,60,k,1,0.612415,0,63,63,29,1,,,,,,,,,,,,,,,,,,,,,,,,,,,,,,,,,,,,,,,,,,,,,,,,
,,,,,,,,,,,,5,same,4,0.27,0.27,blue,1,0.14,-0.14,orange,1,-0.27,-0.27,black,1,-0.27,0.41,magenta,1,0.27,0.41,green,0,0.14,-0.41,cyan,0,-0.27,-0.41,yellow,0,-0.27,0.14,red,0,0.05,0.05,0.15,0.14,-0.14,orange,k,00105,23,2020-08-04_23h56.25.065,CDT_GNG_IUS12,2020.1.2,Win32,60,k,1,0.63542,0,64,64,4,1,,,,,,,,,,,,,,,,,,,,,,,,,,,,,,,,,,,,,,,,,,,,,,,,
,,,,,,,,,,,,101,different,8,0.14,0.27,magenta,1,0.14,-0.27,cyan,1,-0.41,-0.14,yellow,1,-0.41,0.14,black,1,0.14,0.41,red,1,0.41,-0.41,blue,1,-0.14,-0.41,green,1,-0.27,0.27,orange,1,0.05,0.05,0.15,-0.41,0.14,magenta,l,00105,23,2020-08-04_23h56.25.065,CDT_GNG_IUS12,2020.1.2,Win32,60,l,1,0.47612,0,65,65,100,1,,,,,,,,,,,,,,,,,,,,,,,,,,,,,,,,,,,,,,,,,,,,,,,,
,,,,,,,,,,,,111,different,8,0.27,0.14,red,1,0.41,-0.27,green,1,-0.27,-0.14,yellow,1,-0.14,0.14,orange,1,0.41,0.41,black,1,0.27,-0.27,cyan,1,-0.27,-0.41,blue,1,-0.27,0.14,magenta,1,0.05,0.05,0.15,-0.27,-0.41,red,l,00105,23,2020-08-04_23h56.25.065,CDT_GNG_IUS12,2020.1.2,Win32,60,l,1,0.695005,0,66,66,110,1,,,,,,,,,,,,,,,,,,,,,,,,,,,,,,,,,,,,,,,,,,,,,,,,
,,,,,,,,,,,,27,same,4,0.27,0.27,yellow,1,0.27,-0.27,green,1,-0.27,-0.41,cyan,1,-0.14,0.41,black,1,0.14,0.41,blue,0,0.41,-0.14,red,0,-0.14,-0.14,orange,0,-0.27,0.41,magenta,0,0.05,0.05,0.15,0.27,-0.27,green,k,00105,23,2020-08-04_23h56.25.065,CDT_GNG_IUS12,2020.1.2,Win32,60,k,1,0.8348,0,67,67,26,1,,,,,,,,,,,,,,,,,,,,,,,,,,,,,,,,,,,,,,,,,,,,,,,,
,,,,,,,,,,,,110,different,8,0.41,0.14,orange,1,0.27,-0.27,black,1,-0.14,-0.27,blue,1,-0.27,0.27,cyan,1,0.27,0.41,magenta,1,0.27,-0.41,red,1,-0.27,-0.41,yellow,1,-0.27,0.41,green,1,0.05,0.05,0.15,-0.27,-0.41,red,l,00105,23,2020-08-04_23h56.25.065,CDT_GNG_IUS12,2020.1.2,Win32,60,l,1,0.885515,0,68,68,109,1,,,,,,,,,,,,,,,,,,,,,,,,,,,,,,,,,,,,,,,,,,,,,,,,
,,,,,,,,,,,,12,same,4,0.14,0.41,red,1,0.14,-0.41,green,1,-0.41,-0.41,black,1,-0.27,0.27,cyan,1,0.27,0.41,magenta,0,0.41,-0.14,orange,0,-0.27,-0.41,yellow,0,-0.41,0.27,blue,0,0.05,0.05,0.15,-0.41,-0.41,black,k,00105,23,2020-08-04_23h56.25.065,CDT_GNG_IUS12,2020.1.2,Win32,60,k,1,0.65642,0,69,69,11,1,,,,,,,,,,,,,,,,,,,,,,,,,,,,,,,,,,,,,,,,,,,,,,,,
,,,,,,,,,,,,107,different,8,0.27,0.41,green,1,0.27,-0.41,cyan,1,-0.41,-0.41,black,1,-0.14,0.41,blue,1,0.14,0.14,red,1,0.27,-0.27,yellow,1,-0.14,-0.41,magenta,1,-0.14,0.14,orange,1,0.05,0.05,0.15,-0.14,0.14,black,l,00105,23,2020-08-04_23h56.25.065,CDT_GNG_IUS12,2020.1.2,Win32,60,l,1,0.533805,0,70,70,106,1,,,,,,,,,,,,,,,,,,,,,,,,,,,,,,,,,,,,,,,,,,,,,,,,
,,,,,,,,,,,,51,different,4,0.41,0.41,yellow,1,0.14,-0.27,red,1,-0.14,-0.27,cyan,1,-0.41,0.14,orange,1,0.14,0.41,green,0,0.27,-0.41,black,0,-0.27,-0.14,blue,0,-0.41,0.27,magenta,0,0.05,0.05,0.15,0.41,0.41,red,l,00105,23,2020-08-04_23h56.25.065,CDT_GNG_IUS12,2020.1.2,Win32,60,l,1,0.81927,0,71,71,50,1,,,,,,,,,,,,,,,,,,,,,,,,,,,,,,,,,,,,,,,,,,,,,,,,
,,,,,,,,,,,,98,different,8,0.41,0.27,black,1,0.14,-0.27,yellow,1,-0.14,-0.27,cyan,1,-0.27,0.14,red,1,0.27,0.27,green,1,0.41,-0.41,magenta,1,-0.41,-0.14,blue,1,-0.41,0.41,orange,1,0.05,0.05,0.15,0.41,0.27,red,l,00105,23,2020-08-04_23h56.25.065,CDT_GNG_IUS12,2020.1.2,Win32,60,l,1,0.666485,0,72,72,97,1,,,,,,,,,,,,,,,,,,,,,,,,,,,,,,,,,,,,,,,,,,,,,,,,
,,,,,,,,,,,,14,same,4,0.27,0.41,cyan,1,0.27,-0.41,black,1,-0.27,-0.27,yellow,1,-0.27,0.27,green,1,0.41,0.41,blue,0,0.14,-0.27,red,0,-0.14,-0.14,orange,0,-0.41,0.41,magenta,0,0.05,0.05,0.15,0.27,-0.41,black,k,00105,23,2020-08-04_23h56.25.065,CDT_GNG_IUS12,2020.1.2,Win32,60,k,1,1.142115,0,73,73,13,1,,,,,,,,,,,,,,,,,,,,,,,,,,,,,,,,,,,,,,,,,,,,,,,,
,,,,,,,,,,,,16,same,4,0.27,0.27,magenta,1,0.14,-0.14,orange,1,-0.14,-0.41,blue,1,-0.27,0.14,red,1,0.14,0.14,black,0,0.14,-0.27,green,0,-0.27,-0.27,yellow,0,-0.27,0.27,cyan,0,0.05,0.05,0.15,-0.27,0.14,red,k,00105,23,2020-08-04_23h56.25.065,CDT_GNG_IUS12,2020.1.2,Win32,60,k,1,0.99509,0,74,74,15,1,,,,,,,,,,,,,,,,,,,,,,,,,,,,,,,,,,,,,,,,,,,,,,,,
,,,,,,,,,,,,52,different,4,0.27,0.41,cyan,1,0.14,-0.14,orange,1,-0.41,-0.14,black,1,-0.27,0.41,blue,1,0.14,0.27,magenta,0,0.27,-0.14,green,0,-0.27,-0.14,red,0,-0.14,0.41,yellow,0,0.05,0.05,0.15,0.14,-0.14,green,l,00105,23,2020-08-04_23h56.25.065,CDT_GNG_IUS12,2020.1.2,Win32,60,l,1,0.997,0,75,75,51,1,,,,,,,,,,,,,,,,,,,,,,,,,,,,,,,,,,,,,,,,,,,,,,,,
,,,,,,,,,,,,10,same,4,0.14,0.41,magenta,1,0.41,-0.14,black,1,-0.27,-0.27,orange,1,-0.41,0.27,green,1,0.27,0.41,blue,0,0.41,-0.41,yellow,0,-0.41,-0.41,cyan,0,-0.27,0.27,red,0,0.05,0.05,0.15,0.41,-0.14,black,k,00105,23,2020-08-04_23h56.25.065,CDT_GNG_IUS12,2020.1.2,Win32,60,k,1,0.55057,0,76,76,9,1,,,,,,,,,,,,,,,,,,,,,,,,,,,,,,,,,,,,,,,,,,,,,,,,
,,,,,,,,,,,,8,same,4,0.27,0.41,orange,1,0.41,-0.14,cyan,1,-0.14,-0.41,green,1,-0.14,0.41,black,1,0.41,0.41,blue,0,0.27,-0.41,yellow,0,-0.41,-0.27,red,0,-0.41,0.41,magenta,0,0.05,0.05,0.15,-0.14,-0.41,green,k,00105,23,2020-08-04_23h56.25.065,CDT_GNG_IUS12,2020.1.2,Win32,60,l,0,2.475105,0,77,77,7,1,,,,,,,,,,,,,,,,,,,,,,,,,,,,,,,,,,,,,,,,,,,,,,,,
,,,,,,,,,,,,89,same,8,0.14,0.14,blue,1,0.14,-0.27,orange,1,-0.14,-0.27,yellow,1,-0.41,0.27,red,1,0.27,0.27,cyan,1,0.14,-0.14,green,1,-0.14,-0.41,magenta,1,-0.41,0.41,black,1,0.05,0.05,0.15,0.14,-0.27,orange,k,00105,23,2020-08-04_23h56.25.065,CDT_GNG_IUS12,2020.1.2,Win32,60,l,0,0.758145,0,78,78,88,1,,,,,,,,,,,,,,,,,,,,,,,,,,,,,,,,,,,,,,,,,,,,,,,,
,,,,,,,,,,,,73,same,8,0.14,0.14,blue,1,0.14,-0.41,yellow,1,-0.41,-0.41,red,1,-0.41,0.27,orange,1,0.27,0.41,magenta,1,0.14,-0.27,green,1,-0.41,-0.27,black,1,-0.27,0.27,cyan,1,0.05,0.05,0.15,0.27,0.41,magenta,k,00105,23,2020-08-04_23h56.25.065,CDT_GNG_IUS12,2020.1.2,Win32,60,k,1,0.563065,0,79,79,72,1,,,,,,,,,,,,,,,,,,,,,,,,,,,,,,,,,,,,,,,,,,,,,,,,
,,,,,,,,,,,,113,different,8,0.41,0.27,magenta,1,0.27,-0.27,red,1,-0.41,-0.41,yellow,1,-0.14,0.27,green,1,0.41,0.14,orange,1,0.14,-0.41,blue,1,-0.14,-0.41,black,1,-0.41,0.27,cyan,1,0.05,0.05,0.15,0.41,0.14,yellow,l,00105,23,2020-08-04_23h56.25.065,CDT_GNG_IUS12,2020.1.2,Win32,60,l,1,1.213085,0,80,80,112,1,,,,,,,,,,,,,,,,,,,,,,,,,,,,,,,,,,,,,,,,,,,,,,,,
,,,,,,,,,,,,116,different,8,0.27,0.14,green,1,0.41,-0.14,black,1,-0.27,-0.41,magenta,1,-0.41,0.14,cyan,1,0.41,0.41,blue,1,0.41,-0.27,yellow,1,-0.41,-0.27,red,1,-0.27,0.14,orange,1,0.05,0.05,0.15,0.41,-0.27,magenta,l,00105,23,2020-08-04_23h56.25.065,CDT_GNG_IUS12,2020.1.2,Win32,60,l,1,1.087695,0,81,81,115,1,,,,,,,,,,,,,,,,,,,,,,,,,,,,,,,,,,,,,,,,,,,,,,,,
,,,,,,,,,,,,41,different,4,0.41,0.41,green,1,0.27,-0.41,orange,1,-0.27,-0.41,black,1,-0.27,0.41,magenta,1,0.14,0.41,cyan,0,0.41,-0.27,blue,0,-0.14,-0.27,red,0,-0.27,0.14,yellow,0,0.05,0.05,0.15,-0.27,-0.41,cyan,l,00105,23,2020-08-04_23h56.25.065,CDT_GNG_IUS12,2020.1.2,Win32,60,l,1,1.016645,0,82,82,40,1,,,,,,,,,,,,,,,,,,,,,,,,,,,,,,,,,,,,,,,,,,,,,,,,
,,,,,,,,,,,,32,different,4,0.41,0.27,orange,1,0.41,-0.41,green,1,-0.14,-0.14,cyan,1,-0.41,0.41,red,1,0.27,0.41,black,0,0.27,-0.41,magenta,0,-0.27,-0.14,blue,0,-0.14,0.14,yellow,0,0.05,0.05,0.15,-0.14,-0.14,blue,l,00105,23,2020-08-04_23h56.25.065,CDT_GNG_IUS12,2020.1.2,Win32,60,l,1,0.777835,0,83,83,31,1,,,,,,,,,,,,,,,,,,,,,,,,,,,,,,,,,,,,,,,,,,,,,,,,
,,,,,,,,,,,,87,same,8,0.27,0.14,red,1,0.14,-0.14,yellow,1,-0.27,-0.14,orange,1,-0.27,0.27,magenta,1,0.41,0.27,blue,1,0.41,-0.41,green,1,-0.27,-0.27,black,1,-0.14,0.27,cyan,1,0.05,0.05,0.15,0.41,-0.41,green,k,00105,23,2020-08-04_23h56.25.065,CDT_GNG_IUS12,2020.1.2,Win32,60,k,1,0.95637,0,84,84,86,1,,,,,,,,,,,,,,,,,,,,,,,,,,,,,,,,,,,,,,,,,,,,,,,,
,,,,,,,,,,,,38,different,4,0.27,0.27,black,1,0.14,-0.27,green,1,-0.14,-0.27,magenta,1,-0.41,0.14,blue,1,0.14,0.41,orange,0,0.27,-0.41,yellow,0,-0.41,-0.14,cyan,0,-0.27,0.41,red,0,0.05,0.05,0.15,-0.14,-0.27,orange,l,00105,23,2020-08-04_23h56.25.065,CDT_GNG_IUS12,2020.1.2,Win32,60,l,1,0.941225,0,85,85,37,1,,,,,,,,,,,,,,,,,,,,,,,,,,,,,,,,,,,,,,,,,,,,,,,,
,,,,,,,,,,,,24,same,4,0.41,0.27,green,1,0.14,-0.27,black,1,-0.27,-0.27,yellow,1,-0.14,0.14,orange,1,0.41,0.14,blue,0,0.14,-0.14,cyan,0,-0.41,-0.14,red,0,-0.27,0.41,magenta,0,0.05,0.05,0.15,-0.14,0.14,orange,k,00105,23,2020-08-04_23h56.25.065,CDT_GNG_IUS12,2020.1.2,Win32,60,k,1,0.584385,0,86,86,23,1,,,,,,,,,,,,,,,,,,,,,,,,,,,,,,,,,,,,,,,,,,,,,,,,
,,,,,,,,,,,,76,same,8,0.14,0.27,orange,1,0.41,-0.14,cyan,1,-0.27,-0.27,blue,1,-0.14,0.14,black,1,0.27,0.41,green,1,0.27,-0.14,red,1,-0.27,-0.14,yellow,1,-0.27,0.27,magenta,1,0.05,0.05,0.15,0.41,-0.14,cyan,k,00105,23,2020-08-04_23h56.25.065,CDT_GNG_IUS12,2020.1.2,Win32,60,k,1,1.019115,0,87,87,75,1,,,,,,,,,,,,,,,,,,,,,,,,,,,,,,,,,,,,,,,,,,,,,,,,
,,,,,,,,,,,,85,same,8,0.14,0.41,green,1,0.14,-0.41,magenta,1,-0.41,-0.14,black,1,-0.14,0.27,blue,1,0.27,0.27,orange,1,0.41,-0.41,red,1,-0.27,-0.14,cyan,1,-0.41,0.27,yellow,1,0.05,0.05,0.15,0.27,0.27,orange,k,00105,23,2020-08-04_23h56.25.065,CDT_GNG_IUS12,2020.1.2,Win32,60,k,1,1.09512,0,88,88,84,1,,,,,,,,,,,,,,,,,,,,,,,,,,,,,,,,,,,,,,,,,,,,,,,,
,,,,,,,,,,,,97,different,8,0.27,0.27,blue,1,0.14,-0.27,orange,1,-0.14,-0.14,black,1,-0.27,0.14,cyan,1,0.14,0.14,magenta,1,0.27,-0.41,yellow,1,-0.27,-0.41,green,1,-0.41,0.14,red,1,0.05,0.05,0.15,-0.27,0.14,black,l,00105,23,2020-08-04_23h56.25.065,CDT_GNG_IUS12,2020.1.2,Win32,60,l,1,0.61753,0,89,89,96,1,,,,,,,,,,,,,,,,,,,,,,,,,,,,,,,,,,,,,,,,,,,,,,,,
,,,,,,,,,,,,61,same,8,0.41,0.41,orange,1,0.41,-0.41,magenta,1,-0.27,-0.41,blue,1,-0.14,0.27,yellow,1,0.14,0.41,red,1,0.14,-0.27,black,1,-0.41,-0.41,cyan,1,-0.27,0.14,green,1,0.05,0.05,0.15,-0.27,-0.41,blue,k,00105,23,2020-08-04_23h56.25.065,CDT_GNG_IUS12,2020.1.2,Win32,60,l,0,3.1912,0,90,90,60,1,,,,,,,,,,,,,,,,,,,,,,,,,,,,,,,,,,,,,,,,,,,,,,,,
,,,,,,,,,,,,117,different,8,0.14,0.41,black,1,0.14,-0.41,cyan,1,-0.41,-0.27,magenta,1,-0.27,0.41,yellow,1,0.41,0.27,orange,1,0.41,-0.14,red,1,-0.27,-0.27,green,1,-0.14,0.14,blue,1,0.05,0.05,0.15,0.41,-0.14,black,l,00105,23,2020-08-04_23h56.25.065,CDT_GNG_IUS12,2020.1.2,Win32,60,l,1,1.05085,0,91,91,116,1,,,,,,,,,,,,,,,,,,,,,,,,,,,,,,,,,,,,,,,,,,,,,,,,
,,,,,,,,,,,,19,same,4,0.27,0.41,blue,1,0.14,-0.41,red,1,-0.14,-0.27,black,1,-0.14,0.27,magenta,1,0.27,0.14,yellow,0,0.27,-0.14,orange,0,-0.14,-0.41,green,0,-0.14,0.14,cyan,0,0.05,0.05,0.15,0.27,0.41,blue,k,00105,23,2020-08-04_23h56.25.065,CDT_GNG_IUS12,2020.1.2,Win32,60,k,1,1.290555,0,92,92,18,1,,,,,,,,,,,,,,,,,,,,,,,,,,,,,,,,,,,,,,,,,,,,,,,,
,,,,,,,,,,,,86,same,8,0.41,0.27,magenta,1,0.14,-0.14,green,1,-0.14,-0.41,orange,1,-0.14,0.41,red,1,0.27,0.14,black,1,0.14,-0.41,cyan,1,-0.41,-0.27,yellow,1,-0.27,0.14,blue,1,0.05,0.05,0.15,0.14,-0.41,cyan,k,00105,23,2020-08-04_23h56.25.065,CDT_GNG_IUS12,2020.1.2,Win32,60,k,1,0.92402,0,93,93,85,1,,,,,,,,,,,,,,,,,,,,,,,,,,,,,,,,,,,,,,,,,,,,,,,,
,,,,,,,,,,,,108,different,8,0.27,0.41,magenta,1,0.27,-0.14,green,1,-0.14,-0.41,yellow,1,-0.41,0.41,red,1,0.41,0.27,blue,1,0.14,-0.27,cyan,1,-0.27,-0.27,orange,1,-0.41,0.14,black,1,0.05,0.05,0.15,0.27,0.41,black,l,00105,23,2020-08-04_23h56.25.065,CDT_GNG_IUS12,2020.1.2,Win32,60,l,1,1.03141,0,94,94,107,1,,,,,,,,,,,,,,,,,,,,,,,,,,,,,,,,,,,,,,,,,,,,,,,,
,,,,,,,,,,,,57,different,4,0.14,0.41,black,1,0.14,-0.14,blue,1,-0.41,-0.14,red,1,-0.41,0.14,orange,1,0.41,0.41,magenta,0,0.41,-0.14,cyan,0,-0.14,-0.27,yellow,0,-0.27,0.41,green,0,0.05,0.05,0.15,-0.41,0.14,blue,l,00105,23,2020-08-04_23h56.25.065,CDT_GNG_IUS12,2020.1.2,Win32,60,l,1,0.684185,0,95,95,56,1,,,,,,,,,,,,,,,,,,,,,,,,,,,,,,,,,,,,,,,,,,,,,,,,
,,,,,,,,,,,,22,same,4,0.41,0.27,green,1,0.27,-0.14,black,1,-0.27,-0.41,cyan,1,-0.41,0.14,blue,1,0.14,0.14,magenta,0,0.41,-0.41,orange,0,-0.14,-0.27,red,0,-0.41,0.41,yellow,0,0.05,0.05,0.15,0.27,-0.14,black,k,00105,23,2020-08-04_23h56.25.065,CDT_GNG_IUS12,2020.1.2,Win32,60,k,1,1.126645,0,96,96,21,1,,,,,,,,,,,,,,,,,,,,,,,,,,,,,,,,,,,,,,,,,,,,,,,,
,,,,,,,,,,,,39,different,4,0.41,0.27,green,1,0.41,-0.27,yellow,1,-0.27,-0.27,orange,1,-0.14,0.14,cyan,1,0.14,0.14,magenta,0,0.27,-0.41,blue,0,-0.14,-0.27,red,0,-0.41,0.27,black,0,0.05,0.05,0.15,-0.14,0.14,green,l,00105,23,2020-08-04_23h56.25.065,CDT_GNG_IUS12,2020.1.2,Win32,60,l,1,0.498365,0,97,97,38,1,,,,,,,,,,,,,,,,,,,,,,,,,,,,,,,,,,,,,,,,,,,,,,,,
,,,,,,,,,,,,78,same,8,0.41,0.14,green,1,0.14,-0.27,magenta,1,-0.41,-0.27,blue,1,-0.41,0.41,black,1,0.41,0.27,cyan,1,0.41,-0.14,orange,1,-0.14,-0.41,yellow,1,-0.14,0.41,red,1,0.05,0.05,0.15,-0.41,-0.27,blue,k,00105,23,2020-08-04_23h56.25.065,CDT_GNG_IUS12,2020.1.2,Win32,60,l,0,1.26522,0,98,98,77,1,,,,,,,,,,,,,,,,,,,,,,,,,,,,,,,,,,,,,,,,,,,,,,,,
,,,,,,,,,,,,118,different,8,0.14,0.14,red,1,0.27,-0.27,yellow,1,-0.27,-0.14,orange,1,-0.41,0.41,magenta,1,0.27,0.27,cyan,1,0.14,-0.41,green,1,-0.27,-0.41,blue,1,-0.41,0.14,black,1,0.05,0.05,0.15,-0.27,-0.41,black,l,00105,23,2020-08-04_23h56.25.065,CDT_GNG_IUS12,2020.1.2,Win32,60,l,1,1.222795,0,99,99,117,1,,,,,,,,,,,,,,,,,,,,,,,,,,,,,,,,,,,,,,,,,,,,,,,,
,,,,,,,,,,,,47,different,4,0.27,0.27,magenta,1,0.41,-0.27,black,1,-0.14,-0.41,red,1,-0.14,0.41,green,1,0.41,0.41,cyan,0,0.27,-0.14,orange,0,-0.27,-0.14,blue,0,-0.27,0.14,yellow,0,0.05,0.05,0.15,0.27,0.27,blue,l,00105,23,2020-08-04_23h56.25.065,CDT_GNG_IUS12,2020.1.2,Win32,60,l,1,1.52377,0,100,100,46,1,,,,,,,,,,,,,,,,,,,,,,,,,,,,,,,,,,,,,,,,,,,,,,,,
,,,,,,,,,,,,7,same,4,0.41,0.41,yellow,1,0.41,-0.41,blue,1,-0.14,-0.41,black,1,-0.14,0.14,magenta,1,0.27,0.41,red,0,0.41,-0.27,green,0,-0.41,-0.14,cyan,0,-0.14,0.27,orange,0,0.05,0.05,0.15,-0.14,0.14,magenta,k,00105,23,2020-08-04_23h56.25.065,CDT_GNG_IUS12,2020.1.2,Win32,60,k,1,0.621735,0,101,101,6,1,,,,,,,,,,,,,,,,,,,,,,,,,,,,,,,,,,,,,,,,,,,,,,,,
,,,,,,,,,,,,36,different,4,0.41,0.27,magenta,1,0.27,-0.14,orange,1,-0.41,-0.41,yellow,1,-0.14,0.14,blue,1,0.14,0.41,green,0,0.27,-0.27,black,0,-0.41,-0.27,cyan,0,-0.41,0.41,red,0,0.05,0.05,0.15,0.27,-0.14,black,l,00105,23,2020-08-04_23h56.25.065,CDT_GNG_IUS12,2020.1.2,Win32,60,l,1,0.55063,0,102,102,35,1,,,,,,,,,,,,,,,,,,,,,,,,,,,,,,,,,,,,,,,,,,,,,,,,
,,,,,,,,,,,,31,different,4,0.27,0.41,orange,1,0.14,-0.14,black,1,-0.41,-0.41,yellow,1,-0.41,0.27,cyan,1,0.27,0.14,green,0,0.41,-0.27,blue,0,-0.14,-0.41,red,0,-0.41,0.14,magenta,0,0.05,0.05,0.15,-0.41,0.27,yellow,l,00105,23,2020-08-04_23h56.25.065,CDT_GNG_IUS12,2020.1.2,Win32,60,l,1,1.789045,0,103,103,30,1,,,,,,,,,,,,,,,,,,,,,,,,,,,,,,,,,,,,,,,,,,,,,,,,
,,,,,,,,,,,,77,same,8,0.41,0.41,black,1,0.14,-0.14,cyan,1,-0.27,-0.41,yellow,1,-0.14,0.27,orange,1,0.41,0.14,blue,1,0.41,-0.14,magenta,1,-0.14,-0.27,green,1,-0.27,0.14,red,1,0.05,0.05,0.15,0.41,-0.14,magenta,k,00105,23,2020-08-04_23h56.25.065,CDT_GNG_IUS12,2020.1.2,Win32,60,k,1,1.320105,0,104,104,76,1,,,,,,,,,,,,,,,,,,,,,,,,,,,,,,,,,,,,,,,,,,,,,,,,
,,,,,,,,,,,,11,same,4,0.27,0.14,red,1,0.14,-0.14,cyan,1,-0.27,-0.41,blue,1,-0.27,0.14,yellow,1,0.27,0.27,green,0,0.41,-0.27,black,0,-0.41,-0.41,magenta,0,-0.41,0.14,orange,0,0.05,0.05,0.15,-0.27,-0.41,blue,k,00105,23,2020-08-04_23h56.25.065,CDT_GNG_IUS12,2020.1.2,Win32,60,k,1,1.56038,0,105,105,10,1,,,,,,,,,,,,,,,,,,,,,,,,,,,,,,,,,,,,,,,,,,,,,,,,
,,,,,,,,,,,,40,different,4,0.41,0.41,magenta,1,0.41,-0.27,cyan,1,-0.27,-0.41,yellow,1,-0.14,0.41,black,1,0.27,0.27,blue,0,0.41,-0.41,green,0,-0.14,-0.27,red,0,-0.27,0.27,orange,0,0.05,0.05,0.15,-0.27,-0.41,orange,l,00105,23,2020-08-04_23h56.25.065,CDT_GNG_IUS12,2020.1.2,Win32,60,l,1,0.825135,0,106,106,39,1,,,,,,,,,,,,,,,,,,,,,,,,,,,,,,,,,,,,,,,,,,,,,,,,
,,,,,,,,,,,,90,same,8,0.27,0.14,orange,1,0.14,-0.27,green,1,-0.14,-0.41,magenta,1,-0.14,0.27,cyan,1,0.41,0.41,blue,1,0.14,-0.14,black,1,-0.14,-0.14,yellow,1,-0.27,0.27,red,1,0.05,0.05,0.15,0.14,-0.14,black,k,00105,23,2020-08-04_23h56.25.065,CDT_GNG_IUS12,2020.1.2,Win32,60,l,0,2.752905,0,107,107,89,1,,,,,,,,,,,,,,,,,,,,,,,,,,,,,,,,,,,,,,,,,,,,,,,,
,,,,,,,,,,,,112,different,8,0.27,0.41,magenta,1,0.14,-0.41,green,1,-0.14,-0.14,black,1,-0.27,0.27,cyan,1,0.41,0.41,red,1,0.14,-0.27,blue,1,-0.41,-0.14,orange,1,-0.14,0.14,yellow,1,0.05,0.05,0.15,0.41,0.41,blue,l,00105,23,2020-08-04_23h56.25.065,CDT_GNG_IUS12,2020.1.2,Win32,60,l,1,1.415585,0,108,108,111,1,,,,,,,,,,,,,,,,,,,,,,,,,,,,,,,,,,,,,,,,,,,,,,,,
,,,,,,,,,,,,6,same,4,0.41,0.27,orange,1,0.41,-0.14,magenta,1,-0.14,-0.27,black,1,-0.27,0.41,cyan,1,0.14,0.41,red,0,0.14,-0.41,blue,0,-0.14,-0.14,green,0,-0.41,0.41,yellow,0,0.05,0.05,0.15,-0.14,-0.27,black,k,00105,23,2020-08-04_23h56.25.065,CDT_GNG_IUS12,2020.1.2,Win32,60,k,1,0.74972,0,109,109,5,1,,,,,,,,,,,,,,,,,,,,,,,,,,,,,,,,,,,,,,,,,,,,,,,,
,,,,,,,,,,,,34,different,4,0.14,0.14,cyan,1,0.14,-0.14,magenta,1,-0.41,-0.41,black,1,-0.41,0.14,yellow,1,0.27,0.27,orange,0,0.14,-0.41,green,0,-0.41,-0.14,red,0,-0.14,0.14,blue,0,0.05,0.05,0.15,0.14,-0.14,cyan,l,00105,23,2020-08-04_23h56.25.065,CDT_GNG_IUS12,2020.1.2,Win32,60,l,1,0.599985,0,110,110,33,1,,,,,,,,,,,,,,,,,,,,,,,,,,,,,,,,,,,,,,,,,,,,,,,,
,,,,,,,,,,,,20,same,4,0.27,0.14,cyan,1,0.14,-0.14,orange,1,-0.27,-0.27,green,1,-0.41,0.27,yellow,1,0.14,0.41,black,0,0.41,-0.41,red,0,-0.27,-0.41,magenta,0,-0.27,0.27,blue,0,0.05,0.05,0.15,-0.27,-0.27,green,k,00105,23,2020-08-04_23h56.25.065,CDT_GNG_IUS12,2020.1.2,Win32,60,k,1,1.03426,0,111,111,19,1,,,,,,,,,,,,,,,,,,,,,,,,,,,,,,,,,,,,,,,,,,,,,,,,
,,,,,,,,,,,,54,different,4,0.14,0.14,yellow,1,0.41,-0.41,magenta,1,-0.14,-0.41,black,1,-0.14,0.27,orange,1,0.41,0.27,cyan,0,0.41,-0.27,red,0,-0.27,-0.14,green,0,-0.27,0.27,blue,0,0.05,0.05,0.15,0.41,-0.41,cyan,l,00105,23,2020-08-04_23h56.25.065,CDT_GNG_IUS12,2020.1.2,Win32,60,l,1,0.837585,0,112,112,53,1,,,,,,,,,,,,,,,,,,,,,,,,,,,,,,,,,,,,,,,,,,,,,,,,
,,,,,,,,,,,,100,different,8,0.41,0.27,black,1,0.41,-0.27,red,1,-0.14,-0.27,magenta,1,-0.14,0.27,orange,1,0.14,0.27,blue,1,0.27,-0.14,yellow,1,-0.41,-0.14,cyan,1,-0.41,0.14,green,1,0.05,0.05,0.15,0.41,0.27,orange,l,00105,23,2020-08-04_23h56.25.065,CDT_GNG_IUS12,2020.1.2,Win32,60,l,1,0.649145,0,113,113,99,1,,,,,,,,,,,,,,,,,,,,,,,,,,,,,,,,,,,,,,,,,,,,,,,,
,,,,,,,,,,,,80,same,8,0.41,0.14,red,1,0.41,-0.14,blue,1,-0.41,-0.41,black,1,-0.41,0.14,green,1,0.14,0.41,orange,1,0.27,-0.41,cyan,1,-0.41,-0.14,magenta,1,-0.41,0.41,yellow,1,0.05,0.05,0.15,0.27,-0.41,cyan,k,00105,23,2020-08-04_23h56.25.065,CDT_GNG_IUS12,2020.1.2,Win32,60,k,1,0.862865,0,114,114,79,1,,,,,,,,,,,,,,,,,,,,,,,,,,,,,,,,,,,,,,,,,,,,,,,,
,,,,,,,,,,,,115,different,8,0.14,0.27,green,1,0.27,-0.41,orange,1,-0.14,-0.14,yellow,1,-0.27,0.41,magenta,1,0.27,0.14,blue,1,0.14,-0.27,red,1,-0.41,-0.14,cyan,1,-0.41,0.14,black,1,0.05,0.05,0.15,0.14,-0.27,cyan,l,00105,23,2020-08-04_23h56.25.065,CDT_GNG_IUS12,2020.1.2,Win32,60,l,1,0.66836,0,115,115,114,1,,,,,,,,,,,,,,,,,,,,,,,,,,,,,,,,,,,,,,,,,,,,,,,,
,,,,,,,,,,,,33,different,4,0.27,0.41,magenta,1,0.41,-0.41,red,1,-0.27,-0.41,yellow,1,-0.14,0.41,black,1,0.14,0.41,blue,0,0.14,-0.41,orange,0,-0.41,-0.14,cyan,0,-0.41,0.27,green,0,0.05,0.05,0.15,0.27,0.41,black,l,00105,23,2020-08-04_23h56.25.065,CDT_GNG_IUS12,2020.1.2,Win32,60,l,1,0.56939,0,116,116,32,1,,,,,,,,,,,,,,,,,,,,,,,,,,,,,,,,,,,,,,,,,,,,,,,,
,,,,,,,,,,,,74,same,8,0.41,0.41,blue,1,0.14,-0.14,orange,1,-0.27,-0.41,cyan,1,-0.27,0.41,yellow,1,0.41,0.27,black,1,0.41,-0.41,red,1,-0.14,-0.27,magenta,1,-0.27,0.14,green,1,0.05,0.05,0.15,0.41,0.27,black,k,00105,23,2020-08-04_23h56.25.065,CDT_GNG_IUS12,2020.1.2,Win32,60,k,1,1.44345,0,117,117,73,1,,,,,,,,,,,,,,,,,,,,,,,,,,,,,,,,,,,,,,,,,,,,,,,,
,,,,,,,,,,,,120,different,8,0.41,0.41,blue,1,0.14,-0.14,magenta,1,-0.27,-0.27,cyan,1,-0.27,0.41,orange,1,0.27,0.41,yellow,1,0.14,-0.41,red,1,-0.14,-0.27,green,1,-0.14,0.41,black,1,0.05,0.05,0.15,-0.14,0.41,orange,l,00105,23,2020-08-04_23h56.25.065,CDT_GNG_IUS12,2020.1.2,Win32,60,k,0,1.969585,0,118,118,119,1,,,,,,,,,,,,,,,,,,,,,,,,,,,,,,,,,,,,,,,,,,,,,,,,
,,,,,,,,,,,,42,different,4,0.41,0.41,green,1,0.14,-0.14,red,1,-0.27,-0.14,cyan,1,-0.27,0.27,blue,1,0.27,0.27,orange,0,0.14,-0.27,black,0,-0.27,-0.41,yellow,0,-0.27,0.41,magenta,0,0.05,0.05,0.15,-0.27,0.27,red,l,00105,23,2020-08-04_23h56.25.065,CDT_GNG_IUS12,2020.1.2,Win32,60,l,1,0.82718,0,119,119,41,1,,,,,,,,,,,,,,,,,,,,,,,,,,,,,,,,,,,,,,,,,,,,,,,,
,,,,,,,,,,,,,,,,,,,,,,,,,,,,,,,,,,,,,,,,,,,,,,,,,,,,,space,00105,23,2020-08-04_23h56.25.065,CDT_GNG_IUS12,2020.1.2,Win32,60,,,,,,,,,space,1,0.26507,0,0,0,5,1,0,1,,,,,,,,,,,,,,,,,,,,,,,,,,,,,,,,,,,,,,
,,,,,,,,,,,,,,,,,,,,,,,,,,,,,,,,,,,,,,,,,,,,,,,,,,,,,,00105,23,2020-08-04_23h56.25.065,CDT_GNG_IUS12,2020.1.2,Win32,60,,,,,,,,,,1,,0,1,1,2,1,1,0,,,,,,,,,,,,,,,,,,,,,,,,,,,,,,,,,,,,,,
,,,,,,,,,,,,,,,,,,,,,,,,,,,,,,,,,,,,,,,,,,,,,,,,,,,,,space,00105,23,2020-08-04_23h56.25.065,CDT_GNG_IUS12,2020.1.2,Win32,60,,,,,,,,,space,1,0.280895,0,2,2,7,1,0,1,,,,,,,,,,,,,,,,,,,,,,,,,,,,,,,,,,,,,,
,,,,,,,,,,,,,,,,,,,,,,,,,,,,,,,,,,,,,,,,,,,,,,,,,,,,,,00105,23,2020-08-04_23h56.25.065,CDT_GNG_IUS12,2020.1.2,Win32,60,,,,,,,,,,1,,0,3,3,3,1,1,0,,,,,,,,,,,,,,,,,,,,,,,,,,,,,,,,,,,,,,
,,,,,,,,,,,,,,,,,,,,,,,,,,,,,,,,,,,,,,,,,,,,,,,,,,,,,,00105,23,2020-08-04_23h56.25.065,CDT_GNG_IUS12,2020.1.2,Win32,60,,,,,,,,,,1,,0,4,4,1,1,1,0,,,,,,,,,,,,,,,,,,,,,,,,,,,,,,,,,,,,,,
,,,,,,,,,,,,,,,,,,,,,,,,,,,,,,,,,,,,,,,,,,,,,,,,,,,,,space,00105,23,2020-08-04_23h56.25.065,CDT_GNG_IUS12,2020.1.2,Win32,60,,,,,,,,,space,1,0.34441,0,5,5,4,1,0,1,,,,,,,,,,,,,,,,,,,,,,,,,,,,,,,,,,,,,,
,,,,,,,,,,,,,,,,,,,,,,,,,,,,,,,,,,,,,,,,,,,,,,,,,,,,,space,00105,23,2020-08-04_23h56.25.065,CDT_GNG_IUS12,2020.1.2,Win32,60,,,,,,,,,space,1,0.31275,0,6,6,6,1,0,1,,,,,,,,,,,,,,,,,,,,,,,,,,,,,,,,,,,,,,
,,,,,,,,,,,,,,,,,,,,,,,,,,,,,,,,,,,,,,,,,,,,,,,,,,,,,,00105,23,2020-08-04_23h56.25.065,CDT_GNG_IUS12,2020.1.2,Win32,60,,,,,,,,,,1,,0,7,7,0,1,1,0,,,,,,,,,,,,,,,,,,,,,,,,,,,,,,,,,,,,,,
,,,,,,,,,,,,,,,,,,,,,,,,,,,,,,,,,,,,,,,,,,,,,,,,,,,,,space,00105,23,2020-08-04_23h56.25.065,CDT_GNG_IUS12,2020.1.2,Win32,60,,,,,,,,,,,,,,,,,0,1,space,1,0.29678,0,0,0,17,1,,,,,,,,,,,,,,,,,,,,,,,,,,,,,,
,,,,,,,,,,,,,,,,,,,,,,,,,,,,,,,,,,,,,,,,,,,,,,,,,,,,,space,00105,23,2020-08-04_23h56.25.065,CDT_GNG_IUS12,2020.1.2,Win32,60,,,,,,,,,,,,,,,,,0,1,space,1,0.264315,0,1,1,46,1,,,,,,,,,,,,,,,,,,,,,,,,,,,,,,
,,,,,,,,,,,,,,,,,,,,,,,,,,,,,,,,,,,,,,,,,,,,,,,,,,,,,,00105,23,2020-08-04_23h56.25.065,CDT_GNG_IUS12,2020.1.2,Win32,60,,,,,,,,,,,,,,,,,1,0,space,0,0.216245,0,2,2,0,1,,,,,,,,,,,,,,,,,,,,,,,,,,,,,,
,,,,,,,,,,,,,,,,,,,,,,,,,,,,,,,,,,,,,,,,,,,,,,,,,,,,,space,00105,23,2020-08-04_23h56.25.065,CDT_GNG_IUS12,2020.1.2,Win32,60,,,,,,,,,,,,,,,,,0,1,space,1,0.297745,0,3,3,44,1,,,,,,,,,,,,,,,,,,,,,,,,,,,,,,
,,,,,,,,,,,,,,,,,,,,,,,,,,,,,,,,,,,,,,,,,,,,,,,,,,,,,space,00105,23,2020-08-04_23h56.25.065,CDT_GNG_IUS12,2020.1.2,Win32,60,,,,,,,,,,,,,,,,,0,1,space,1,0.28696,0,4,4,23,1,,,,,,,,,,,,,,,,,,,,,,,,,,,,,,
,,,,,,,,,,,,,,,,,,,,,,,,,,,,,,,,,,,,,,,,,,,,,,,,,,,,,,00105,23,2020-08-04_23h56.25.065,CDT_GNG_IUS12,2020.1.2,Win32,60,,,,,,,,,,,,,,,,,1,0,,1,,0,5,5,2,1,,,,,,,,,,,,,,,,,,,,,,,,,,,,,,
,,,,,,,,,,,,,,,,,,,,,,,,,,,,,,,,,,,,,,,,,,,,,,,,,,,,,space,00105,23,2020-08-04_23h56.25.065,CDT_GNG_IUS12,2020.1.2,Win32,60,,,,,,,,,,,,,,,,,0,1,space,1,0.26409,0,6,6,25,1,,,,,,,,,,,,,,,,,,,,,,,,,,,,,,
,,,,,,,,,,,,,,,,,,,,,,,,,,,,,,,,,,,,,,,,,,,,,,,,,,,,,space,00105,23,2020-08-04_23h56.25.065,CDT_GNG_IUS12,2020.1.2,Win32,60,,,,,,,,,,,,,,,,,0,1,space,1,0.28117,0,7,7,24,1,,,,,,,,,,,,,,,,,,,,,,,,,,,,,,
,,,,,,,,,,,,,,,,,,,,,,,,,,,,,,,,,,,,,,,,,,,,,,,,,,,,,space,00105,23,2020-08-04_23h56.25.065,CDT_GNG_IUS12,2020.1.2,Win32,60,,,,,,,,,,,,,,,,,0,1,space,1,0.246885,0,8,8,11,1,,,,,,,,,,,,,,,,,,,,,,,,,,,,,,
,,,,,,,,,,,,,,,,,,,,,,,,,,,,,,,,,,,,,,,,,,,,,,,,,,,,,space,00105,23,2020-08-04_23h56.25.065,CDT_GNG_IUS12,2020.1.2,Win32,60,,,,,,,,,,,,,,,,,0,1,space,1,0.27512,0,9,9,36,1,,,,,,,,,,,,,,,,,,,,,,,,,,,,,,
,,,,,,,,,,,,,,,,,,,,,,,,,,,,,,,,,,,,,,,,,,,,,,,,,,,,,space,00105,23,2020-08-04_23h56.25.065,CDT_GNG_IUS12,2020.1.2,Win32,60,,,,,,,,,,,,,,,,,0,1,space,1,0.244485,0,10,10,35,1,,,,,,,,,,,,,,,,,,,,,,,,,,,,,,
,,,,,,,,,,,,,,,,,,,,,,,,,,,,,,,,,,,,,,,,,,,,,,,,,,,,,space,00105,23,2020-08-04_23h56.25.065,CDT_GNG_IUS12,2020.1.2,Win32,60,,,,,,,,,,,,,,,,,0,1,space,1,0.23618,0,11,11,26,1,,,,,,,,,,,,,,,,,,,,,,,,,,,,,,
,,,,,,,,,,,,,,,,,,,,,,,,,,,,,,,,,,,,,,,,,,,,,,,,,,,,,space,00105,23,2020-08-04_23h56.25.065,CDT_GNG_IUS12,2020.1.2,Win32,60,,,,,,,,,,,,,,,,,0,1,space,1,0.238435,0,12,12,45,1,,,,,,,,,,,,,,,,,,,,,,,,,,,,,,
,,,,,,,,,,,,,,,,,,,,,,,,,,,,,,,,,,,,,,,,,,,,,,,,,,,,,space,00105,23,2020-08-04_23h56.25.065,CDT_GNG_IUS12,2020.1.2,Win32,60,,,,,,,,,,,,,,,,,0,1,space,1,0.248145,0,13,13,30,1,,,,,,,,,,,,,,,,,,,,,,,,,,,,,,
,,,,,,,,,,,,,,,,,,,,,,,,,,,,,,,,,,,,,,,,,,,,,,,,,,,,,,00105,23,2020-08-04_23h56.25.065,CDT_GNG_IUS12,2020.1.2,Win32,60,,,,,,,,,,,,,,,,,1,0,space,0,0.22209,0,14,14,7,1,,,,,,,,,,,,,,,,,,,,,,,,,,,,,,
,,,,,,,,,,,,,,,,,,,,,,,,,,,,,,,,,,,,,,,,,,,,,,,,,,,,,space,00105,23,2020-08-04_23h56.25.065,CDT_GNG_IUS12,2020.1.2,Win32,60,,,,,,,,,,,,,,,,,0,1,space,1,0.27591,0,15,15,31,1,,,,,,,,,,,,,,,,,,,,,,,,,,,,,,
,,,,,,,,,,,,,,,,,,,,,,,,,,,,,,,,,,,,,,,,,,,,,,,,,,,,,space,00105,23,2020-08-04_23h56.25.065,CDT_GNG_IUS12,2020.1.2,Win32,60,,,,,,,,,,,,,,,,,0,1,space,1,0.282505,0,16,16,16,1,,,,,,,,,,,,,,,,,,,,,,,,,,,,,,
,,,,,,,,,,,,,,,,,,,,,,,,,,,,,,,,,,,,,,,,,,,,,,,,,,,,,space,00105,23,2020-08-04_23h56.25.065,CDT_GNG_IUS12,2020.1.2,Win32,60,,,,,,,,,,,,,,,,,0,1,space,1,0.2673,0,17,17,19,1,,,,,,,,,,,,,,,,,,,,,,,,,,,,,,
,,,,,,,,,,,,,,,,,,,,,,,,,,,,,,,,,,,,,,,,,,,,,,,,,,,,,space,00105,23,2020-08-04_23h56.25.065,CDT_GNG_IUS12,2020.1.2,Win32,60,,,,,,,,,,,,,,,,,0,1,space,1,0.26136,0,18,18,28,1,,,,,,,,,,,,,,,,,,,,,,,,,,,,,,
,,,,,,,,,,,,,,,,,,,,,,,,,,,,,,,,,,,,,,,,,,,,,,,,,,,,,space,00105,23,2020-08-04_23h56.25.065,CDT_GNG_IUS12,2020.1.2,Win32,60,,,,,,,,,,,,,,,,,0,1,space,1,0.291035,0,19,19,14,1,,,,,,,,,,,,,,,,,,,,,,,,,,,,,,
,,,,,,,,,,,,,,,,,,,,,,,,,,,,,,,,,,,,,,,,,,,,,,,,,,,,,space,00105,23,2020-08-04_23h56.25.065,CDT_GNG_IUS12,2020.1.2,Win32,60,,,,,,,,,,,,,,,,,0,1,space,1,0.275055,0,20,20,38,1,,,,,,,,,,,,,,,,,,,,,,,,,,,,,,
,,,,,,,,,,,,,,,,,,,,,,,,,,,,,,,,,,,,,,,,,,,,,,,,,,,,,space,00105,23,2020-08-04_23h56.25.065,CDT_GNG_IUS12,2020.1.2,Win32,60,,,,,,,,,,,,,,,,,0,1,space,1,0.267825,0,21,21,39,1,,,,,,,,,,,,,,,,,,,,,,,,,,,,,,
,,,,,,,,,,,,,,,,,,,,,,,,,,,,,,,,,,,,,,,,,,,,,,,,,,,,,space,00105,23,2020-08-04_23h56.25.065,CDT_GNG_IUS12,2020.1.2,Win32,60,,,,,,,,,,,,,,,,,0,1,space,1,0.270015,0,22,22,21,1,,,,,,,,,,,,,,,,,,,,,,,,,,,,,,
,,,,,,,,,,,,,,,,,,,,,,,,,,,,,,,,,,,,,,,,,,,,,,,,,,,,,,00105,23,2020-08-04_23h56.25.065,CDT_GNG_IUS12,2020.1.2,Win32,60,,,,,,,,,,,,,,,,,1,0,,1,,0,23,23,5,1,,,,,,,,,,,,,,,,,,,,,,,,,,,,,,
,,,,,,,,,,,,,,,,,,,,,,,,,,,,,,,,,,,,,,,,,,,,,,,,,,,,,space,00105,23,2020-08-04_23h56.25.065,CDT_GNG_IUS12,2020.1.2,Win32,60,,,,,,,,,,,,,,,,,0,1,space,1,0.271625,0,24,24,27,1,,,,,,,,,,,,,,,,,,,,,,,,,,,,,,
,,,,,,,,,,,,,,,,,,,,,,,,,,,,,,,,,,,,,,,,,,,,,,,,,,,,,space,00105,23,2020-08-04_23h56.25.065,CDT_GNG_IUS12,2020.1.2,Win32,60,,,,,,,,,,,,,,,,,0,1,space,1,0.235545,0,25,25,43,1,,,,,,,,,,,,,,,,,,,,,,,,,,,,,,
,,,,,,,,,,,,,,,,,,,,,,,,,,,,,,,,,,,,,,,,,,,,,,,,,,,,,space,00105,23,2020-08-04_23h56.25.065,CDT_GNG_IUS12,2020.1.2,Win32,60,,,,,,,,,,,,,,,,,0,1,space,1,0.242735,0,26,26,49,1,,,,,,,,,,,,,,,,,,,,,,,,,,,,,,
,,,,,,,,,,,,,,,,,,,,,,,,,,,,,,,,,,,,,,,,,,,,,,,,,,,,,space,00105,23,2020-08-04_23h56.25.065,CDT_GNG_IUS12,2020.1.2,Win32,60,,,,,,,,,,,,,,,,,0,1,space,1,0.21554,0,27,27,13,1,,,,,,,,,,,,,,,,,,,,,,,,,,,,,,
,,,,,,,,,,,,,,,,,,,,,,,,,,,,,,,,,,,,,,,,,,,,,,,,,,,,,space,00105,23,2020-08-04_23h56.25.065,CDT_GNG_IUS12,2020.1.2,Win32,60,,,,,,,,,,,,,,,,,0,1,space,1,0.215915,0,28,28,40,1,,,,,,,,,,,,,,,,,,,,,,,,,,,,,,
,,,,,,,,,,,,,,,,,,,,,,,,,,,,,,,,,,,,,,,,,,,,,,,,,,,,,space,00105,23,2020-08-04_23h56.25.065,CDT_GNG_IUS12,2020.1.2,Win32,60,,,,,,,,,,,,,,,,,0,1,space,1,0.22003,0,29,29,29,1,,,,,,,,,,,,,,,,,,,,,,,,,,,,,,
,,,,,,,,,,,,,,,,,,,,,,,,,,,,,,,,,,,,,,,,,,,,,,,,,,,,,space,00105,23,2020-08-04_23h56.25.065,CDT_GNG_IUS12,2020.1.2,Win32,60,,,,,,,,,,,,,,,,,0,1,space,1,0.24205,0,30,30,10,1,,,,,,,,,,,,,,,,,,,,,,,,,,,,,,
,,,,,,,,,,,,,,,,,,,,,,,,,,,,,,,,,,,,,,,,,,,,,,,,,,,,,space,00105,23,2020-08-04_23h56.25.065,CDT_GNG_IUS12,2020.1.2,Win32,60,,,,,,,,,,,,,,,,,0,1,space,1,0.182345,0,31,31,48,1,,,,,,,,,,,,,,,,,,,,,,,,,,,,,,
,,,,,,,,,,,,,,,,,,,,,,,,,,,,,,,,,,,,,,,,,,,,,,,,,,,,,space,00105,23,2020-08-04_23h56.25.065,CDT_GNG_IUS12,2020.1.2,Win32,60,,,,,,,,,,,,,,,,,0,1,space,1,0.189185,0,32,32,41,1,,,,,,,,,,,,,,,,,,,,,,,,,,,,,,
,,,,,,,,,,,,,,,,,,,,,,,,,,,,,,,,,,,,,,,,,,,,,,,,,,,,,,00105,23,2020-08-04_23h56.25.065,CDT_GNG_IUS12,2020.1.2,Win32,60,,,,,,,,,,,,,,,,,1,0,space,0,0.230265,0,33,33,1,1,,,,,,,,,,,,,,,,,,,,,,,,,,,,,,
,,,,,,,,,,,,,,,,,,,,,,,,,,,,,,,,,,,,,,,,,,,,,,,,,,,,,space,00105,23,2020-08-04_23h56.25.065,CDT_GNG_IUS12,2020.1.2,Win32,60,,,,,,,,,,,,,,,,,0,1,space,1,0.232975,0,34,34,47,1,,,,,,,,,,,,,,,,,,,,,,,,,,,,,,
,,,,,,,,,,,,,,,,,,,,,,,,,,,,,,,,,,,,,,,,,,,,,,,,,,,,,,00105,23,2020-08-04_23h56.25.065,CDT_GNG_IUS12,2020.1.2,Win32,60,,,,,,,,,,,,,,,,,1,0,space,0,0.23348,0,35,35,4,1,,,,,,,,,,,,,,,,,,,,,,,,,,,,,,
,,,,,,,,,,,,,,,,,,,,,,,,,,,,,,,,,,,,,,,,,,,,,,,,,,,,,space,00105,23,2020-08-04_23h56.25.065,CDT_GNG_IUS12,2020.1.2,Win32,60,,,,,,,,,,,,,,,,,0,1,space,1,0.30245,0,36,36,37,1,,,,,,,,,,,,,,,,,,,,,,,,,,,,,,
,,,,,,,,,,,,,,,,,,,,,,,,,,,,,,,,,,,,,,,,,,,,,,,,,,,,,space,00105,23,2020-08-04_23h56.25.065,CDT_GNG_IUS12,2020.1.2,Win32,60,,,,,,,,,,,,,,,,,0,1,space,1,0.251225,0,37,37,33,1,,,,,,,,,,,,,,,,,,,,,,,,,,,,,,
,,,,,,,,,,,,,,,,,,,,,,,,,,,,,,,,,,,,,,,,,,,,,,,,,,,,,space,00105,23,2020-08-04_23h56.25.065,CDT_GNG_IUS12,2020.1.2,Win32,60,,,,,,,,,,,,,,,,,0,1,space,1,0.239145,0,38,38,32,1,,,,,,,,,,,,,,,,,,,,,,,,,,,,,,
,,,,,,,,,,,,,,,,,,,,,,,,,,,,,,,,,,,,,,,,,,,,,,,,,,,,,space,00105,23,2020-08-04_23h56.25.065,CDT_GNG_IUS12,2020.1.2,Win32,60,,,,,,,,,,,,,,,,,0,1,space,1,0.265795,0,39,39,42,1,,,,,,,,,,,,,,,,,,,,,,,,,,,,,,
,,,,,,,,,,,,,,,,,,,,,,,,,,,,,,,,,,,,,,,,,,,,,,,,,,,,,,00105,23,2020-08-04_23h56.25.065,CDT_GNG_IUS12,2020.1.2,Win32,60,,,,,,,,,,,,,,,,,1,0,space,0,0.483435,0,40,40,8,1,,,,,,,,,,,,,,,,,,,,,,,,,,,,,,
,,,,,,,,,,,,,,,,,,,,,,,,,,,,,,,,,,,,,,,,,,,,,,,,,,,,,,00105,23,2020-08-04_23h56.25.065,CDT_GNG_IUS12,2020.1.2,Win32,60,,,,,,,,,,,,,,,,,1,0,,1,,0,41,41,6,1,,,,,,,,,,,,,,,,,,,,,,,,,,,,,,
,,,,,,,,,,,,,,,,,,,,,,,,,,,,,,,,,,,,,,,,,,,,,,,,,,,,,space,00105,23,2020-08-04_23h56.25.065,CDT_GNG_IUS12,2020.1.2,Win32,60,,,,,,,,,,,,,,,,,0,1,space,1,0.24748,0,42,42,22,1,,,,,,,,,,,,,,,,,,,,,,,,,,,,,,
,,,,,,,,,,,,,,,,,,,,,,,,,,,,,,,,,,,,,,,,,,,,,,,,,,,,,space,00105,23,2020-08-04_23h56.25.065,CDT_GNG_IUS12,2020.1.2,Win32,60,,,,,,,,,,,,,,,,,0,1,space,1,0.300135,0,43,43,18,1,,,,,,,,,,,,,,,,,,,,,,,,,,,,,,
,,,,,,,,,,,,,,,,,,,,,,,,,,,,,,,,,,,,,,,,,,,,,,,,,,,,,,00105,23,2020-08-04_23h56.25.065,CDT_GNG_IUS12,2020.1.2,Win32,60,,,,,,,,,,,,,,,,,1,0,space,0,0.274945,0,44,44,9,1,,,,,,,,,,,,,,,,,,,,,,,,,,,,,,
,,,,,,,,,,,,,,,,,,,,,,,,,,,,,,,,,,,,,,,,,,,,,,,,,,,,,space,00105,23,2020-08-04_23h56.25.065,CDT_GNG_IUS12,2020.1.2,Win32,60,,,,,,,,,,,,,,,,,0,1,space,1,0.415095,0,45,45,20,1,,,,,,,,,,,,,,,,,,,,,,,,,,,,,,
,,,,,,,,,,,,,,,,,,,,,,,,,,,,,,,,,,,,,,,,,,,,,,,,,,,,,,00105,23,2020-08-04_23h56.25.065,CDT_GNG_IUS12,2020.1.2,Win32,60,,,,,,,,,,,,,,,,,1,0,,1,,0,46,46,3,1,,,,,,,,,,,,,,,,,,,,,,,,,,,,,,
,,,,,,,,,,,,,,,,,,,,,,,,,,,,,,,,,,,,,,,,,,,,,,,,,,,,,space,00105,23,2020-08-04_23h56.25.065,CDT_GNG_IUS12,2020.1.2,Win32,60,,,,,,,,,,,,,,,,,0,1,space,1,0.246955,0,47,47,15,1,,,,,,,,,,,,,,,,,,,,,,,,,,,,,,
,,,,,,,,,,,,,,,,,,,,,,,,,,,,,,,,,,,,,,,,,,,,,,,,,,,,,space,00105,23,2020-08-04_23h56.25.065,CDT_GNG_IUS12,2020.1.2,Win32,60,,,,,,,,,,,,,,,,,0,1,space,1,0.30862,0,48,48,12,1,,,,,,,,,,,,,,,,,,,,,,,,,,,,,,
,,,,,,,,,,,,,,,,,,,,,,,,,,,,,,,,,,,,,,,,,,,,,,,,,,,,,space,00105,23,2020-08-04_23h56.25.065,CDT_GNG_IUS12,2020.1.2,Win32,60,,,,,,,,,,,,,,,,,0,1,space,1,0.26144,0,49,49,34,1,,,,,,,,,,,,,,,,,,,,,,,,,,,,,,
,,,,,,,,,,,,,,,,,,,,,,,,,,,,,,,,,,,,,,,,,,,,,,,,,,,,,,00105,23,2020-08-04_23h56.25.065,CDT_GNG_IUS12,2020.1.2,Win32,60,,,,,,,,,,,,,,,,,1,0,,1,,,,,,,0,0,0,3,1,,,,,,,,,,,,,,,,,,,,,,,,,
,,,,,,,,,,,,,,,,,,,,,,,,,,,,,,,,,,,,,,,,,,,,,,,,,,,,,space,00105,23,2020-08-04_23h56.25.065,CDT_GNG_IUS12,2020.1.2,Win32,60,,,,,,,,,,,,,,,,,0,1,space,1,0.29461,,,,,,0,1,1,17,1,,,,,,,,,,,,,,,,,,,,,,,,,
,,,,,,,,,,,,,,,,,,,,,,,,,,,,,,,,,,,,,,,,,,,,,,,,,,,,,space,00105,23,2020-08-04_23h56.25.065,CDT_GNG_IUS12,2020.1.2,Win32,60,,,,,,,,,,,,,,,,,0,1,space,1,0.2742,,,,,,0,2,2,49,1,,,,,,,,,,,,,,,,,,,,,,,,,
,,,,,,,,,,,,,,,,,,,,,,,,,,,,,,,,,,,,,,,,,,,,,,,,,,,,,space,00105,23,2020-08-04_23h56.25.065,CDT_GNG_IUS12,2020.1.2,Win32,60,,,,,,,,,,,,,,,,,0,1,space,1,0.246125,,,,,,0,3,3,15,1,,,,,,,,,,,,,,,,,,,,,,,,,
,,,,,,,,,,,,,,,,,,,,,,,,,,,,,,,,,,,,,,,,,,,,,,,,,,,,,space,00105,23,2020-08-04_23h56.25.065,CDT_GNG_IUS12,2020.1.2,Win32,60,,,,,,,,,,,,,,,,,0,1,space,1,0.285645,,,,,,0,4,4,42,1,,,,,,,,,,,,,,,,,,,,,,,,,
,,,,,,,,,,,,,,,,,,,,,,,,,,,,,,,,,,,,,,,,,,,,,,,,,,,,,,00105,23,2020-08-04_23h56.25.065,CDT_GNG_IUS12,2020.1.2,Win32,60,,,,,,,,,,,,,,,,,1,0,,1,,,,,,,0,5,5,6,1,,,,,,,,,,,,,,,,,,,,,,,,,
,,,,,,,,,,,,,,,,,,,,,,,,,,,,,,,,,,,,,,,,,,,,,,,,,,,,,,00105,23,2020-08-04_23h56.25.065,CDT_GNG_IUS12,2020.1.2,Win32,60,,,,,,,,,,,,,,,,,1,0,,1,,,,,,,0,6,6,9,1,,,,,,,,,,,,,,,,,,,,,,,,,
,,,,,,,,,,,,,,,,,,,,,,,,,,,,,,,,,,,,,,,,,,,,,,,,,,,,,space,00105,23,2020-08-04_23h56.25.065,CDT_GNG_IUS12,2020.1.2,Win32,60,,,,,,,,,,,,,,,,,0,1,space,1,0.329615,,,,,,0,7,7,16,1,,,,,,,,,,,,,,,,,,,,,,,,,
,,,,,,,,,,,,,,,,,,,,,,,,,,,,,,,,,,,,,,,,,,,,,,,,,,,,,space,00105,23,2020-08-04_23h56.25.065,CDT_GNG_IUS12,2020.1.2,Win32,60,,,,,,,,,,,,,,,,,0,1,space,1,0.28725,,,,,,0,8,8,40,1,,,,,,,,,,,,,,,,,,,,,,,,,
,,,,,,,,,,,,,,,,,,,,,,,,,,,,,,,,,,,,,,,,,,,,,,,,,,,,,space,00105,23,2020-08-04_23h56.25.065,CDT_GNG_IUS12,2020.1.2,Win32,60,,,,,,,,,,,,,,,,,0,1,space,1,0.24747,,,,,,0,9,9,39,1,,,,,,,,,,,,,,,,,,,,,,,,,
,,,,,,,,,,,,,,,,,,,,,,,,,,,,,,,,,,,,,,,,,,,,,,,,,,,,,space,00105,23,2020-08-04_23h56.25.065,CDT_GNG_IUS12,2020.1.2,Win32,60,,,,,,,,,,,,,,,,,0,1,space,1,0.264185,,,,,,0,10,10,14,1,,,,,,,,,,,,,,,,,,,,,,,,,
,,,,,,,,,,,,,,,,,,,,,,,,,,,,,,,,,,,,,,,,,,,,,,,,,,,,,space,00105,23,2020-08-04_23h56.25.065,CDT_GNG_IUS12,2020.1.2,Win32,60,,,,,,,,,,,,,,,,,0,1,space,1,0.24984,,,,,,0,11,11,22,1,,,,,,,,,,,,,,,,,,,,,,,,,
,,,,,,,,,,,,,,,,,,,,,,,,,,,,,,,,,,,,,,,,,,,,,,,,,,,,,space,00105,23,2020-08-04_23h56.25.065,CDT_GNG_IUS12,2020.1.2,Win32,60,,,,,,,,,,,,,,,,,0,1,space,1,0.246915,,,,,,0,12,12,18,1,,,,,,,,,,,,,,,,,,,,,,,,,
,,,,,,,,,,,,,,,,,,,,,,,,,,,,,,,,,,,,,,,,,,,,,,,,,,,,,,00105,23,2020-08-04_23h56.25.065,CDT_GNG_IUS12,2020.1.2,Win32,60,,,,,,,,,,,,,,,,,1,0,,1,,,,,,,0,13,13,5,1,,,,,,,,,,,,,,,,,,,,,,,,,
,,,,,,,,,,,,,,,,,,,,,,,,,,,,,,,,,,,,,,,,,,,,,,,,,,,,,space,00105,23,2020-08-04_23h56.25.065,CDT_GNG_IUS12,2020.1.2,Win32,60,,,,,,,,,,,,,,,,,0,1,space,1,0.27601,,,,,,0,14,14,31,1,,,,,,,,,,,,,,,,,,,,,,,,,
,,,,,,,,,,,,,,,,,,,,,,,,,,,,,,,,,,,,,,,,,,,,,,,,,,,,,space,00105,23,2020-08-04_23h56.25.065,CDT_GNG_IUS12,2020.1.2,Win32,60,,,,,,,,,,,,,,,,,0,1,space,1,0.233355,,,,,,0,15,15,33,1,,,,,,,,,,,,,,,,,,,,,,,,,
,,,,,,,,,,,,,,,,,,,,,,,,,,,,,,,,,,,,,,,,,,,,,,,,,,,,,space,00105,23,2020-08-04_23h56.25.065,CDT_GNG_IUS12,2020.1.2,Win32,60,,,,,,,,,,,,,,,,,0,1,space,1,0.26249,,,,,,0,16,16,13,1,,,,,,,,,,,,,,,,,,,,,,,,,
,,,,,,,,,,,,,,,,,,,,,,,,,,,,,,,,,,,,,,,,,,,,,,,,,,,,,space,00105,23,2020-08-04_23h56.25.065,CDT_GNG_IUS12,2020.1.2,Win32,60,,,,,,,,,,,,,,,,,0,1,space,1,0.25303,,,,,,0,17,17,32,1,,,,,,,,,,,,,,,,,,,,,,,,,
,,,,,,,,,,,,,,,,,,,,,,,,,,,,,,,,,,,,,,,,,,,,,,,,,,,,,space,00105,23,2020-08-04_23h56.25.065,CDT_GNG_IUS12,2020.1.2,Win32,60,,,,,,,,,,,,,,,,,0,1,space,1,0.248295,,,,,,0,18,18,45,1,,,,,,,,,,,,,,,,,,,,,,,,,
,,,,,,,,,,,,,,,,,,,,,,,,,,,,,,,,,,,,,,,,,,,,,,,,,,,,,space,00105,23,2020-08-04_23h56.25.065,CDT_GNG_IUS12,2020.1.2,Win32,60,,,,,,,,,,,,,,,,,0,1,space,1,0.21184,,,,,,0,19,19,34,1,,,,,,,,,,,,,,,,,,,,,,,,,
,,,,,,,,,,,,,,,,,,,,,,,,,,,,,,,,,,,,,,,,,,,,,,,,,,,,,space,00105,23,2020-08-04_23h56.25.065,CDT_GNG_IUS12,2020.1.2,Win32,60,,,,,,,,,,,,,,,,,0,1,space,1,0.227085,,,,,,0,20,20,44,1,,,,,,,,,,,,,,,,,,,,,,,,,
,,,,,,,,,,,,,,,,,,,,,,,,,,,,,,,,,,,,,,,,,,,,,,,,,,,,,space,00105,23,2020-08-04_23h56.25.065,CDT_GNG_IUS12,2020.1.2,Win32,60,,,,,,,,,,,,,,,,,0,1,space,1,0.216635,,,,,,0,21,21,30,1,,,,,,,,,,,,,,,,,,,,,,,,,
,,,,,,,,,,,,,,,,,,,,,,,,,,,,,,,,,,,,,,,,,,,,,,,,,,,,,space,00105,23,2020-08-04_23h56.25.065,CDT_GNG_IUS12,2020.1.2,Win32,60,,,,,,,,,,,,,,,,,0,1,space,1,0.223495,,,,,,0,22,22,21,1,,,,,,,,,,,,,,,,,,,,,,,,,
,,,,,,,,,,,,,,,,,,,,,,,,,,,,,,,,,,,,,,,,,,,,,,,,,,,,,space,00105,23,2020-08-04_23h56.25.065,CDT_GNG_IUS12,2020.1.2,Win32,60,,,,,,,,,,,,,,,,,0,1,space,1,0.228665,,,,,,0,23,23,25,1,,,,,,,,,,,,,,,,,,,,,,,,,
,,,,,,,,,,,,,,,,,,,,,,,,,,,,,,,,,,,,,,,,,,,,,,,,,,,,,space,00105,23,2020-08-04_23h56.25.065,CDT_GNG_IUS12,2020.1.2,Win32,60,,,,,,,,,,,,,,,,,0,1,space,1,0.21364,,,,,,0,24,24,23,1,,,,,,,,,,,,,,,,,,,,,,,,,
,,,,,,,,,,,,,,,,,,,,,,,,,,,,,,,,,,,,,,,,,,,,,,,,,,,,,space,00105,23,2020-08-04_23h56.25.065,CDT_GNG_IUS12,2020.1.2,Win32,60,,,,,,,,,,,,,,,,,0,1,space,1,0.22922,,,,,,0,25,25,38,1,,,,,,,,,,,,,,,,,,,,,,,,,
,,,,,,,,,,,,,,,,,,,,,,,,,,,,,,,,,,,,,,,,,,,,,,,,,,,,,space,00105,23,2020-08-04_23h56.25.065,CDT_GNG_IUS12,2020.1.2,Win32,60,,,,,,,,,,,,,,,,,0,1,space,1,0.20598,,,,,,0,26,26,47,1,,,,,,,,,,,,,,,,,,,,,,,,,
,,,,,,,,,,,,,,,,,,,,,,,,,,,,,,,,,,,,,,,,,,,,,,,,,,,,,space,00105,23,2020-08-04_23h56.25.065,CDT_GNG_IUS12,2020.1.2,Win32,60,,,,,,,,,,,,,,,,,0,1,space,1,0.178905,,,,,,0,27,27,35,1,,,,,,,,,,,,,,,,,,,,,,,,,
,,,,,,,,,,,,,,,,,,,,,,,,,,,,,,,,,,,,,,,,,,,,,,,,,,,,,space,00105,23,2020-08-04_23h56.25.065,CDT_GNG_IUS12,2020.1.2,Win32,60,,,,,,,,,,,,,,,,,0,1,space,1,0.21172,,,,,,0,28,28,12,1,,,,,,,,,,,,,,,,,,,,,,,,,
,,,,,,,,,,,,,,,,,,,,,,,,,,,,,,,,,,,,,,,,,,,,,,,,,,,,,space,00105,23,2020-08-04_23h56.25.065,CDT_GNG_IUS12,2020.1.2,Win32,60,,,,,,,,,,,,,,,,,0,1,space,1,0.234095,,,,,,0,29,29,36,1,,,,,,,,,,,,,,,,,,,,,,,,,
,,,,,,,,,,,,,,,,,,,,,,,,,,,,,,,,,,,,,,,,,,,,,,,,,,,,,space,00105,23,2020-08-04_23h56.25.065,CDT_GNG_IUS12,2020.1.2,Win32,60,,,,,,,,,,,,,,,,,0,1,space,1,0.22258,,,,,,0,30,30,19,1,,,,,,,,,,,,,,,,,,,,,,,,,
,,,,,,,,,,,,,,,,,,,,,,,,,,,,,,,,,,,,,,,,,,,,,,,,,,,,,space,00105,23,2020-08-04_23h56.25.065,CDT_GNG_IUS12,2020.1.2,Win32,60,,,,,,,,,,,,,,,,,0,1,space,1,0.241565,,,,,,0,31,31,11,1,,,,,,,,,,,,,,,,,,,,,,,,,
,,,,,,,,,,,,,,,,,,,,,,,,,,,,,,,,,,,,,,,,,,,,,,,,,,,,,space,00105,23,2020-08-04_23h56.25.065,CDT_GNG_IUS12,2020.1.2,Win32,60,,,,,,,,,,,,,,,,,0,1,space,1,0.249805,,,,,,0,32,32,29,1,,,,,,,,,,,,,,,,,,,,,,,,,
,,,,,,,,,,,,,,,,,,,,,,,,,,,,,,,,,,,,,,,,,,,,,,,,,,,,,space,00105,23,2020-08-04_23h56.25.065,CDT_GNG_IUS12,2020.1.2,Win32,60,,,,,,,,,,,,,,,,,0,1,space,1,0.25048,,,,,,0,33,33,26,1,,,,,,,,,,,,,,,,,,,,,,,,,
,,,,,,,,,,,,,,,,,,,,,,,,,,,,,,,,,,,,,,,,,,,,,,,,,,,,,space,00105,23,2020-08-04_23h56.25.065,CDT_GNG_IUS12,2020.1.2,Win32,60,,,,,,,,,,,,,,,,,0,1,space,1,0.268655,,,,,,0,34,34,27,1,,,,,,,,,,,,,,,,,,,,,,,,,
,,,,,,,,,,,,,,,,,,,,,,,,,,,,,,,,,,,,,,,,,,,,,,,,,,,,,,00105,23,2020-08-04_23h56.25.065,CDT_GNG_IUS12,2020.1.2,Win32,60,,,,,,,,,,,,,,,,,1,0,,1,,,,,,,0,35,35,0,1,,,,,,,,,,,,,,,,,,,,,,,,,
,,,,,,,,,,,,,,,,,,,,,,,,,,,,,,,,,,,,,,,,,,,,,,,,,,,,,space,00105,23,2020-08-04_23h56.25.065,CDT_GNG_IUS12,2020.1.2,Win32,60,,,,,,,,,,,,,,,,,0,1,space,1,0.2133,,,,,,0,36,36,43,1,,,,,,,,,,,,,,,,,,,,,,,,,
,,,,,,,,,,,,,,,,,,,,,,,,,,,,,,,,,,,,,,,,,,,,,,,,,,,,,,00105,23,2020-08-04_23h56.25.065,CDT_GNG_IUS12,2020.1.2,Win32,60,,,,,,,,,,,,,,,,,1,0,space,0,0.150535,,,,,,0,37,37,4,1,,,,,,,,,,,,,,,,,,,,,,,,,
,,,,,,,,,,,,,,,,,,,,,,,,,,,,,,,,,,,,,,,,,,,,,,,,,,,,,,00105,23,2020-08-04_23h56.25.065,CDT_GNG_IUS12,2020.1.2,Win32,60,,,,,,,,,,,,,,,,,1,0,,1,,,,,,,0,38,38,7,1,,,,,,,,,,,,,,,,,,,,,,,,,
,,,,,,,,,,,,,,,,,,,,,,,,,,,,,,,,,,,,,,,,,,,,,,,,,,,,,space,00105,23,2020-08-04_23h56.25.065,CDT_GNG_IUS12,2020.1.2,Win32,60,,,,,,,,,,,,,,,,,0,1,space,1,0.24332,,,,,,0,39,39,37,1,,,,,,,,,,,,,,,,,,,,,,,,,
,,,,,,,,,,,,,,,,,,,,,,,,,,,,,,,,,,,,,,,,,,,,,,,,,,,,,,00105,23,2020-08-04_23h56.25.065,CDT_GNG_IUS12,2020.1.2,Win32,60,,,,,,,,,,,,,,,,,1,0,,1,,,,,,,0,40,40,8,1,,,,,,,,,,,,,,,,,,,,,,,,,
,,,,,,,,,,,,,,,,,,,,,,,,,,,,,,,,,,,,,,,,,,,,,,,,,,,,,,00105,23,2020-08-04_23h56.25.065,CDT_GNG_IUS12,2020.1.2,Win32,60,,,,,,,,,,,,,,,,,1,0,,1,,,,,,,0,41,41,2,1,,,,,,,,,,,,,,,,,,,,,,,,,
,,,,,,,,,,,,,,,,,,,,,,,,,,,,,,,,,,,,,,,,,,,,,,,,,,,,,space,00105,23,2020-08-04_23h56.25.065,CDT_GNG_IUS12,2020.1.2,Win32,60,,,,,,,,,,,,,,,,,0,1,space,1,0.326195,,,,,,0,42,42,10,1,,,,,,,,,,,,,,,,,,,,,,,,,
,,,,,,,,,,,,,,,,,,,,,,,,,,,,,,,,,,,,,,,,,,,,,,,,,,,,,,00105,23,2020-08-04_23h56.25.065,CDT_GNG_IUS12,2020.1.2,Win32,60,,,,,,,,,,,,,,,,,1,0,,1,,,,,,,0,43,43,1,1,,,,,,,,,,,,,,,,,,,,,,,,,
,,,,,,,,,,,,,,,,,,,,,,,,,,,,,,,,,,,,,,,,,,,,,,,,,,,,,space,00105,23,2020-08-04_23h56.25.065,CDT_GNG_IUS12,2020.1.2,Win32,60,,,,,,,,,,,,,,,,,0,1,space,1,0.24248,,,,,,0,44,44,41,1,,,,,,,,,,,,,,,,,,,,,,,,,
,,,,,,,,,,,,,,,,,,,,,,,,,,,,,,,,,,,,,,,,,,,,,,,,,,,,,space,00105,23,2020-08-04_23h56.25.065,CDT_GNG_IUS12,2020.1.2,Win32,60,,,,,,,,,,,,,,,,,0,1,space,1,0.29171,,,,,,0,45,45,20,1,,,,,,,,,,,,,,,,,,,,,,,,,
,,,,,,,,,,,,,,,,,,,,,,,,,,,,,,,,,,,,,,,,,,,,,,,,,,,,,space,00105,23,2020-08-04_23h56.25.065,CDT_GNG_IUS12,2020.1.2,Win32,60,,,,,,,,,,,,,,,,,0,1,space,1,0.248685,,,,,,0,46,46,24,1,,,,,,,,,,,,,,,,,,,,,,,,,
,,,,,,,,,,,,,,,,,,,,,,,,,,,,,,,,,,,,,,,,,,,,,,,,,,,,,space,00105,23,2020-08-04_23h56.25.065,CDT_GNG_IUS12,2020.1.2,Win32,60,,,,,,,,,,,,,,,,,0,1,space,1,0.23942,,,,,,0,47,47,28,1,,,,,,,,,,,,,,,,,,,,,,,,,
,,,,,,,,,,,,,,,,,,,,,,,,,,,,,,,,,,,,,,,,,,,,,,,,,,,,,space,00105,23,2020-08-04_23h56.25.065,CDT_GNG_IUS12,2020.1.2,Win32,60,,,,,,,,,,,,,,,,,0,1,space,1,0.265885,,,,,,0,48,48,48,1,,,,,,,,,,,,,,,,,,,,,,,,,
,,,,,,,,,,,,,,,,,,,,,,,,,,,,,,,,,,,,,,,,,,,,,,,,,,,,,space,00105,23,2020-08-04_23h56.25.065,CDT_GNG_IUS12,2020.1.2,Win32,60,,,,,,,,,,,,,,,,,0,1,space,1,0.25792,,,,,,0,49,49,46,1,,,,,,,,,,,,,,,,,,,,,,,,,
,,,,,,,,,,,,,,,,,,,,,,,,,,,,,,,,,,,,,,,,,,,,,,,,,,,,,space,00105,23,2020-08-04_23h56.25.065,CDT_GNG_IUS12,2020.1.2,Win32,60,,,,,,,,,,,,,,,,,0,1,space,1,0.316705,,,,,,,,,,,0,0,0,34,1,,,,,,,,,,,,,,,,,,,,
,,,,,,,,,,,,,,,,,,,,,,,,,,,,,,,,,,,,,,,,,,,,,,,,,,,,,,00105,23,2020-08-04_23h56.25.065,CDT_GNG_IUS12,2020.1.2,Win32,60,,,,,,,,,,,,,,,,,1,0,,1,,,,,,,,,,,,0,1,1,4,1,,,,,,,,,,,,,,,,,,,,
,,,,,,,,,,,,,,,,,,,,,,,,,,,,,,,,,,,,,,,,,,,,,,,,,,,,,space,00105,23,2020-08-04_23h56.25.065,CDT_GNG_IUS12,2020.1.2,Win32,60,,,,,,,,,,,,,,,,,0,1,space,1,0.255365,,,,,,,,,,,0,2,2,10,1,,,,,,,,,,,,,,,,,,,,
,,,,,,,,,,,,,,,,,,,,,,,,,,,,,,,,,,,,,,,,,,,,,,,,,,,,,space,00105,23,2020-08-04_23h56.25.065,CDT_GNG_IUS12,2020.1.2,Win32,60,,,,,,,,,,,,,,,,,0,1,space,1,0.266325,,,,,,,,,,,0,3,3,28,1,,,,,,,,,,,,,,,,,,,,
,,,,,,,,,,,,,,,,,,,,,,,,,,,,,,,,,,,,,,,,,,,,,,,,,,,,,,00105,23,2020-08-04_23h56.25.065,CDT_GNG_IUS12,2020.1.2,Win32,60,,,,,,,,,,,,,,,,,1,0,,1,,,,,,,,,,,,0,4,4,7,1,,,,,,,,,,,,,,,,,,,,
,,,,,,,,,,,,,,,,,,,,,,,,,,,,,,,,,,,,,,,,,,,,,,,,,,,,,space,00105,23,2020-08-04_23h56.25.065,CDT_GNG_IUS12,2020.1.2,Win32,60,,,,,,,,,,,,,,,,,0,1,space,1,0.210715,,,,,,,,,,,0,5,5,25,1,,,,,,,,,,,,,,,,,,,,
,,,,,,,,,,,,,,,,,,,,,,,,,,,,,,,,,,,,,,,,,,,,,,,,,,,,,space,00105,23,2020-08-04_23h56.25.065,CDT_GNG_IUS12,2020.1.2,Win32,60,,,,,,,,,,,,,,,,,0,1,space,1,0.413305,,,,,,,,,,,0,6,6,30,1,,,,,,,,,,,,,,,,,,,,
,,,,,,,,,,,,,,,,,,,,,,,,,,,,,,,,,,,,,,,,,,,,,,,,,,,,,space,00105,23,2020-08-04_23h56.25.065,CDT_GNG_IUS12,2020.1.2,Win32,60,,,,,,,,,,,,,,,,,0,1,space,1,0.306025,,,,,,,,,,,0,7,7,23,1,,,,,,,,,,,,,,,,,,,,
,,,,,,,,,,,,,,,,,,,,,,,,,,,,,,,,,,,,,,,,,,,,,,,,,,,,,space,00105,23,2020-08-04_23h56.25.065,CDT_GNG_IUS12,2020.1.2,Win32,60,,,,,,,,,,,,,,,,,0,1,space,1,0.259765,,,,,,,,,,,0,8,8,43,1,,,,,,,,,,,,,,,,,,,,
,,,,,,,,,,,,,,,,,,,,,,,,,,,,,,,,,,,,,,,,,,,,,,,,,,,,,space,00105,23,2020-08-04_23h56.25.065,CDT_GNG_IUS12,2020.1.2,Win32,60,,,,,,,,,,,,,,,,,0,1,space,1,0.23254,,,,,,,,,,,0,9,9,49,1,,,,,,,,,,,,,,,,,,,,
,,,,,,,,,,,,,,,,,,,,,,,,,,,,,,,,,,,,,,,,,,,,,,,,,,,,,,00105,23,2020-08-04_23h56.25.065,CDT_GNG_IUS12,2020.1.2,Win32,60,,,,,,,,,,,,,,,,,1,0,space,0,0.214065,,,,,,,,,,,0,10,10,6,1,,,,,,,,,,,,,,,,,,,,
,,,,,,,,,,,,,,,,,,,,,,,,,,,,,,,,,,,,,,,,,,,,,,,,,,,,,,00105,23,2020-08-04_23h56.25.065,CDT_GNG_IUS12,2020.1.2,Win32,60,,,,,,,,,,,,,,,,,1,0,,1,,,,,,,,,,,,0,11,11,5,1,,,,,,,,,,,,,,,,,,,,
,,,,,,,,,,,,,,,,,,,,,,,,,,,,,,,,,,,,,,,,,,,,,,,,,,,,,space,00105,23,2020-08-04_23h56.25.065,CDT_GNG_IUS12,2020.1.2,Win32,60,,,,,,,,,,,,,,,,,0,1,space,1,0.30083,,,,,,,,,,,0,12,12,32,1,,,,,,,,,,,,,,,,,,,,
,,,,,,,,,,,,,,,,,,,,,,,,,,,,,,,,,,,,,,,,,,,,,,,,,,,,,space,00105,23,2020-08-04_23h56.25.065,CDT_GNG_IUS12,2020.1.2,Win32,60,,,,,,,,,,,,,,,,,0,1,space,1,0.212345,,,,,,,,,,,0,13,13,21,1,,,,,,,,,,,,,,,,,,,,
,,,,,,,,,,,,,,,,,,,,,,,,,,,,,,,,,,,,,,,,,,,,,,,,,,,,,space,00105,23,2020-08-04_23h56.25.065,CDT_GNG_IUS12,2020.1.2,Win32,60,,,,,,,,,,,,,,,,,0,1,space,1,0.274325,,,,,,,,,,,0,14,14,19,1,,,,,,,,,,,,,,,,,,,,
,,,,,,,,,,,,,,,,,,,,,,,,,,,,,,,,,,,,,,,,,,,,,,,,,,,,,space,00105,23,2020-08-04_23h56.25.065,CDT_GNG_IUS12,2020.1.2,Win32,60,,,,,,,,,,,,,,,,,0,1,space,1,0.24921,,,,,,,,,,,0,15,15,14,1,,,,,,,,,,,,,,,,,,,,
,,,,,,,,,,,,,,,,,,,,,,,,,,,,,,,,,,,,,,,,,,,,,,,,,,,,,space,00105,23,2020-08-04_23h56.25.065,CDT_GNG_IUS12,2020.1.2,Win32,60,,,,,,,,,,,,,,,,,0,1,space,1,0.242465,,,,,,,,,,,0,16,16,37,1,,,,,,,,,,,,,,,,,,,,
,,,,,,,,,,,,,,,,,,,,,,,,,,,,,,,,,,,,,,,,,,,,,,,,,,,,,space,00105,23,2020-08-04_23h56.25.065,CDT_GNG_IUS12,2020.1.2,Win32,60,,,,,,,,,,,,,,,,,0,1,space,1,0.246905,,,,,,,,,,,0,17,17,13,1,,,,,,,,,,,,,,,,,,,,
,,,,,,,,,,,,,,,,,,,,,,,,,,,,,,,,,,,,,,,,,,,,,,,,,,,,,space,00105,23,2020-08-04_23h56.25.065,CDT_GNG_IUS12,2020.1.2,Win32,60,,,,,,,,,,,,,,,,,0,1,space,1,0.2524,,,,,,,,,,,0,18,18,48,1,,,,,,,,,,,,,,,,,,,,
,,,,,,,,,,,,,,,,,,,,,,,,,,,,,,,,,,,,,,,,,,,,,,,,,,,,,space,00105,23,2020-08-04_23h56.25.065,CDT_GNG_IUS12,2020.1.2,Win32,60,,,,,,,,,,,,,,,,,0,1,space,1,0.23605,,,,,,,,,,,0,19,19,45,1,,,,,,,,,,,,,,,,,,,,
,,,,,,,,,,,,,,,,,,,,,,,,,,,,,,,,,,,,,,,,,,,,,,,,,,,,,space,00105,23,2020-08-04_23h56.25.065,CDT_GNG_IUS12,2020.1.2,Win32,60,,,,,,,,,,,,,,,,,0,1,space,1,0.25344,,,,,,,,,,,0,20,20,39,1,,,,,,,,,,,,,,,,,,,,
,,,,,,,,,,,,,,,,,,,,,,,,,,,,,,,,,,,,,,,,,,,,,,,,,,,,,space,00105,23,2020-08-04_23h56.25.065,CDT_GNG_IUS12,2020.1.2,Win32,60,,,,,,,,,,,,,,,,,0,1,space,1,0.211575,,,,,,,,,,,0,21,21,29,1,,,,,,,,,,,,,,,,,,,,
,,,,,,,,,,,,,,,,,,,,,,,,,,,,,,,,,,,,,,,,,,,,,,,,,,,,,space,00105,23,2020-08-04_23h56.25.065,CDT_GNG_IUS12,2020.1.2,Win32,60,,,,,,,,,,,,,,,,,0,1,space,1,0.199835,,,,,,,,,,,0,22,22,16,1,,,,,,,,,,,,,,,,,,,,
,,,,,,,,,,,,,,,,,,,,,,,,,,,,,,,,,,,,,,,,,,,,,,,,,,,,,space,00105,23,2020-08-04_23h56.25.065,CDT_GNG_IUS12,2020.1.2,Win32,60,,,,,,,,,,,,,,,,,0,1,space,1,0.228335,,,,,,,,,,,0,23,23,24,1,,,,,,,,,,,,,,,,,,,,
,,,,,,,,,,,,,,,,,,,,,,,,,,,,,,,,,,,,,,,,,,,,,,,,,,,,,space,00105,23,2020-08-04_23h56.25.065,CDT_GNG_IUS12,2020.1.2,Win32,60,,,,,,,,,,,,,,,,,0,1,space,1,0.23695,,,,,,,,,,,0,24,24,31,1,,,,,,,,,,,,,,,,,,,,
,,,,,,,,,,,,,,,,,,,,,,,,,,,,,,,,,,,,,,,,,,,,,,,,,,,,,space,00105,23,2020-08-04_23h56.25.065,CDT_GNG_IUS12,2020.1.2,Win32,60,,,,,,,,,,,,,,,,,0,1,space,1,0.235285,,,,,,,,,,,0,25,25,46,1,,,,,,,,,,,,,,,,,,,,
,,,,,,,,,,,,,,,,,,,,,,,,,,,,,,,,,,,,,,,,,,,,,,,,,,,,,space,00105,23,2020-08-04_23h56.25.065,CDT_GNG_IUS12,2020.1.2,Win32,60,,,,,,,,,,,,,,,,,0,1,space,1,0.219195,,,,,,,,,,,0,26,26,40,1,,,,,,,,,,,,,,,,,,,,
,,,,,,,,,,,,,,,,,,,,,,,,,,,,,,,,,,,,,,,,,,,,,,,,,,,,,space,00105,23,2020-08-04_23h56.25.065,CDT_GNG_IUS12,2020.1.2,Win32,60,,,,,,,,,,,,,,,,,0,1,space,1,0.202915,,,,,,,,,,,0,27,27,15,1,,,,,,,,,,,,,,,,,,,,
,,,,,,,,,,,,,,,,,,,,,,,,,,,,,,,,,,,,,,,,,,,,,,,,,,,,,space,00105,23,2020-08-04_23h56.25.065,CDT_GNG_IUS12,2020.1.2,Win32,60,,,,,,,,,,,,,,,,,0,1,space,1,0.23234,,,,,,,,,,,0,28,28,36,1,,,,,,,,,,,,,,,,,,,,
,,,,,,,,,,,,,,,,,,,,,,,,,,,,,,,,,,,,,,,,,,,,,,,,,,,,,space,00105,23,2020-08-04_23h56.25.065,CDT_GNG_IUS12,2020.1.2,Win32,60,,,,,,,,,,,,,,,,,0,1,space,1,0.18641,,,,,,,,,,,0,29,29,33,1,,,,,,,,,,,,,,,,,,,,
,,,,,,,,,,,,,,,,,,,,,,,,,,,,,,,,,,,,,,,,,,,,,,,,,,,,,space,00105,23,2020-08-04_23h56.25.065,CDT_GNG_IUS12,2020.1.2,Win32,60,,,,,,,,,,,,,,,,,0,1,space,1,0.20797,,,,,,,,,,,0,30,30,27,1,,,,,,,,,,,,,,,,,,,,
,,,,,,,,,,,,,,,,,,,,,,,,,,,,,,,,,,,,,,,,,,,,,,,,,,,,,space,00105,23,2020-08-04_23h56.25.065,CDT_GNG_IUS12,2020.1.2,Win32,60,,,,,,,,,,,,,,,,,0,1,space,1,0.23617,,,,,,,,,,,0,31,31,47,1,,,,,,,,,,,,,,,,,,,,
,,,,,,,,,,,,,,,,,,,,,,,,,,,,,,,,,,,,,,,,,,,,,,,,,,,,,,00105,23,2020-08-04_23h56.25.065,CDT_GNG_IUS12,2020.1.2,Win32,60,,,,,,,,,,,,,,,,,1,0,space,0,0.21877,,,,,,,,,,,0,32,32,9,1,,,,,,,,,,,,,,,,,,,,
,,,,,,,,,,,,,,,,,,,,,,,,,,,,,,,,,,,,,,,,,,,,,,,,,,,,,space,00105,23,2020-08-04_23h56.25.065,CDT_GNG_IUS12,2020.1.2,Win32,60,,,,,,,,,,,,,,,,,0,1,space,1,0.2738,,,,,,,,,,,0,33,33,41,1,,,,,,,,,,,,,,,,,,,,
,,,,,,,,,,,,,,,,,,,,,,,,,,,,,,,,,,,,,,,,,,,,,,,,,,,,,space,00105,23,2020-08-04_23h56.25.065,CDT_GNG_IUS12,2020.1.2,Win32,60,,,,,,,,,,,,,,,,,0,1,space,1,0.25095,,,,,,,,,,,0,34,34,22,1,,,,,,,,,,,,,,,,,,,,
,,,,,,,,,,,,,,,,,,,,,,,,,,,,,,,,,,,,,,,,,,,,,,,,,,,,,space,00105,23,2020-08-04_23h56.25.065,CDT_GNG_IUS12,2020.1.2,Win32,60,,,,,,,,,,,,,,,,,0,1,space,1,0.21989,,,,,,,,,,,0,35,35,12,1,,,,,,,,,,,,,,,,,,,,
,,,,,,,,,,,,,,,,,,,,,,,,,,,,,,,,,,,,,,,,,,,,,,,,,,,,,space,00105,23,2020-08-04_23h56.25.065,CDT_GNG_IUS12,2020.1.2,Win32,60,,,,,,,,,,,,,,,,,0,1,space,1,0.22251,,,,,,,,,,,0,36,36,35,1,,,,,,,,,,,,,,,,,,,,
,,,,,,,,,,,,,,,,,,,,,,,,,,,,,,,,,,,,,,,,,,,,,,,,,,,,,,00105,23,2020-08-04_23h56.25.065,CDT_GNG_IUS12,2020.1.2,Win32,60,,,,,,,,,,,,,,,,,1,0,,1,,,,,,,,,,,,0,37,37,1,1,,,,,,,,,,,,,,,,,,,,
,,,,,,,,,,,,,,,,,,,,,,,,,,,,,,,,,,,,,,,,,,,,,,,,,,,,,space,00105,23,2020-08-04_23h56.25.065,CDT_GNG_IUS12,2020.1.2,Win32,60,,,,,,,,,,,,,,,,,0,1,space,1,0.28615,,,,,,,,,,,0,38,38,11,1,,,,,,,,,,,,,,,,,,,,
,,,,,,,,,,,,,,,,,,,,,,,,,,,,,,,,,,,,,,,,,,,,,,,,,,,,,,00105,23,2020-08-04_23h56.25.065,CDT_GNG_IUS12,2020.1.2,Win32,60,,,,,,,,,,,,,,,,,1,0,space,0,0.20722,,,,,,,,,,,0,39,39,3,1,,,,,,,,,,,,,,,,,,,,
,,,,,,,,,,,,,,,,,,,,,,,,,,,,,,,,,,,,,,,,,,,,,,,,,,,,,space,00105,23,2020-08-04_23h56.25.065,CDT_GNG_IUS12,2020.1.2,Win32,60,,,,,,,,,,,,,,,,,0,1,space,1,0.270875,,,,,,,,,,,0,40,40,18,1,,,,,,,,,,,,,,,,,,,,
,,,,,,,,,,,,,,,,,,,,,,,,,,,,,,,,,,,,,,,,,,,,,,,,,,,,,,00105,23,2020-08-04_23h56.25.065,CDT_GNG_IUS12,2020.1.2,Win32,60,,,,,,,,,,,,,,,,,1,0,,1,,,,,,,,,,,,0,41,41,0,1,,,,,,,,,,,,,,,,,,,,
,,,,,,,,,,,,,,,,,,,,,,,,,,,,,,,,,,,,,,,,,,,,,,,,,,,,,space,00105,23,2020-08-04_23h56.25.065,CDT_GNG_IUS12,2020.1.2,Win32,60,,,,,,,,,,,,,,,,,0,1,space,1,0.192935,,,,,,,,,,,0,42,42,42,1,,,,,,,,,,,,,,,,,,,,
,,,,,,,,,,,,,,,,,,,,,,,,,,,,,,,,,,,,,,,,,,,,,,,,,,,,,,00105,23,2020-08-04_23h56.25.065,CDT_GNG_IUS12,2020.1.2,Win32,60,,,,,,,,,,,,,,,,,1,0,,1,,,,,,,,,,,,0,43,43,2,1,,,,,,,,,,,,,,,,,,,,
,,,,,,,,,,,,,,,,,,,,,,,,,,,,,,,,,,,,,,,,,,,,,,,,,,,,,space,00105,23,2020-08-04_23h56.25.065,CDT_GNG_IUS12,2020.1.2,Win32,60,,,,,,,,,,,,,,,,,0,1,space,1,0.26226,,,,,,,,,,,0,44,44,26,1,,,,,,,,,,,,,,,,,,,,
,,,,,,,,,,,,,,,,,,,,,,,,,,,,,,,,,,,,,,,,,,,,,,,,,,,,,space,00105,23,2020-08-04_23h56.25.065,CDT_GNG_IUS12,2020.1.2,Win32,60,,,,,,,,,,,,,,,,,0,1,space,1,0.341015,,,,,,,,,,,0,45,45,44,1,,,,,,,,,,,,,,,,,,,,
,,,,,,,,,,,,,,,,,,,,,,,,,,,,,,,,,,,,,,,,,,,,,,,,,,,,,space,00105,23,2020-08-04_23h56.25.065,CDT_GNG_IUS12,2020.1.2,Win32,60,,,,,,,,,,,,,,,,,0,1,space,1,0.22313,,,,,,,,,,,0,46,46,20,1,,,,,,,,,,,,,,,,,,,,
,,,,,,,,,,,,,,,,,,,,,,,,,,,,,,,,,,,,,,,,,,,,,,,,,,,,,space,00105,23,2020-08-04_23h56.25.065,CDT_GNG_IUS12,2020.1.2,Win32,60,,,,,,,,,,,,,,,,,0,1,space,1,0.23867,,,,,,,,,,,0,47,47,38,1,,,,,,,,,,,,,,,,,,,,
,,,,,,,,,,,,,,,,,,,,,,,,,,,,,,,,,,,,,,,,,,,,,,,,,,,,,,00105,23,2020-08-04_23h56.25.065,CDT_GNG_IUS12,2020.1.2,Win32,60,,,,,,,,,,,,,,,,,1,0,,1,,,,,,,,,,,,0,48,48,8,1,,,,,,,,,,,,,,,,,,,,
,,,,,,,,,,,,,,,,,,,,,,,,,,,,,,,,,,,,,,,,,,,,,,,,,,,,,space,00105,23,2020-08-04_23h56.25.065,CDT_GNG_IUS12,2020.1.2,Win32,60,,,,,,,,,,,,,,,,,0,1,space,1,0.1452,,,,,,,,,,,0,49,49,17,1,,,,,,,,,,,,,,,,,,,,
,,,,,,,,,,,,,,,,,,,,,,,,,,,,,,,,,,,,,,,,,,,,,,,,,,,,,,00105,23,2020-08-04_23h56.25.065,CDT_GNG_IUS12,2020.1.2,Win32,60,,,,,,,,,,,,,,,,,,,,,,,,,,,,,,,,,,,,,6.898148148,4.934275,0,0,0,0,1,1,"On a scale from 0 to 10, indicate your personal perception of your proficiency level for English (10 being the highest score)",,,,,,,,,,,
,,,,,,,,,,,,,,,,,,,,,,,,,,,,,,,,,,,,,,,,,,,,,,,,,,,,,,00105,23,2020-08-04_23h56.25.065,CDT_GNG_IUS12,2020.1.2,Win32,60,,,,,,,,,,,,,,,,,,,,,,,,,,,,,,,,,,,,,6.999999859,7.12164,0,1,1,1,1,2,"On a scale from 0 to 10, indicate how frequently you are exposed to English (10 being 'always', 0 being 'never')",,,,,,,,,,,
,,,,,,,,,,,,,,,,,,,,,,,,,,,,,,,,,,,,,,,,,,,,,,,,,,,,,,00105,23,2020-08-04_23h56.25.065,CDT_GNG_IUS12,2020.1.2,Win32,60,,,,,,,,,,,,,,,,,,,,,,,,,,,,,,,,,,,,,,,,,,,,,"On a scale from 0 to 10, indicate your personal perception of your proficiency level for English (10 being the highest score)",3.007407577,6.903295,0,0,0,0,1,1,Unforeseen events upset me greatly.,,
,,,,,,,,,,,,,,,,,,,,,,,,,,,,,,,,,,,,,,,,,,,,,,,,,,,,,,00105,23,2020-08-04_23h56.25.065,CDT_GNG_IUS12,2020.1.2,Win32,60,,,,,,,,,,,,,,,,,,,,,,,,,,,,,,,,,,,,,,,,,,,,,"On a scale from 0 to 10, indicate how frequently you are exposed to English (10 being 'always', 0 being 'never')",2.988889058,4.02351,0,1,1,1,1,2,It frustrates me not having all the information I need.,,
,,,,,,,,,,,,,,,,,,,,,,,,,,,,,,,,,,,,,,,,,,,,,,,,,,,,,,00105,23,2020-08-04_23h56.25.065,CDT_GNG_IUS12,2020.1.2,Win32,60,,,,,,,,,,,,,,,,,,,,,,,,,,,,,,,,,,,,,,,,,,,,,,3.003703647,0.487,0,2,2,2,1,3,One should always look ahead so as to avoid surprises.,,
,,,,,,,,,,,,,,,,,,,,,,,,,,,,,,,,,,,,,,,,,,,,,,,,,,,,,,00105,23,2020-08-04_23h56.25.065,CDT_GNG_IUS12,2020.1.2,Win32,60,,,,,,,,,,,,,,,,,,,,,,,,,,,,,,,,,,,,,,,,,,,,,,3.007407577,0.338145,0,3,3,3,1,4,"A small, unforeseen event can spoil everything, even with the best of planning. ",,
,,,,,,,,,,,,,,,,,,,,,,,,,,,,,,,,,,,,,,,,,,,,,,,,,,,,,,00105,23,2020-08-04_23h56.25.065,CDT_GNG_IUS12,2020.1.2,Win32,60,,,,,,,,,,,,,,,,,,,,,,,,,,,,,,,,,,,,,,,,,,,,,,3.007407577,0.270715,0,4,4,4,1,5,I always want to know what the future has in store for me.,,
,,,,,,,,,,,,,,,,,,,,,,,,,,,,,,,,,,,,,,,,,,,,,,,,,,,,,,00105,23,2020-08-04_23h56.25.065,CDT_GNG_IUS12,2020.1.2,Win32,60,,,,,,,,,,,,,,,,,,,,,,,,,,,,,,,,,,,,,,,,,,,,,,3.007407577,0.286845,0,5,5,5,1,6,I can't stand being taken by surprise.,,
,,,,,,,,,,,,,,,,,,,,,,,,,,,,,,,,,,,,,,,,,,,,,,,,,,,,,,00105,23,2020-08-04_23h56.25.065,CDT_GNG_IUS12,2020.1.2,Win32,60,,,,,,,,,,,,,,,,,,,,,,,,,,,,,,,,,,,,,,,,,,,,,,3.007407577,0.8689,0,6,6,6,1,7,I should be able to organize everything in advance,,
,,,,,,,,,,,,,,,,,,,,,,,,,,,,,,,,,,,,,,,,,,,,,,,,,,,,,,00105,23,2020-08-04_23h56.25.065,CDT_GNG_IUS12,2020.1.2,Win32,60,,,,,,,,,,,,,,,,,,,,,,,,,,,,,,,,,,,,,,,,,,,,,,3.007407577,0.12234,0,7,7,7,1,8,Uncertainty keeps me from living a full life.,,
,,,,,,,,,,,,,,,,,,,,,,,,,,,,,,,,,,,,,,,,,,,,,,,,,,,,,,00105,23,2020-08-04_23h56.25.065,CDT_GNG_IUS12,2020.1.2,Win32,60,,,,,,,,,,,,,,,,,,,,,,,,,,,,,,,,,,,,,,,,,,,,,,3.007407577,0.44431,0,8,8,8,1,9,"When it's time to act, uncertainty paralyses me. ",,
,,,,,,,,,,,,,,,,,,,,,,,,,,,,,,,,,,,,,,,,,,,,,,,,,,,,,,00105,23,2020-08-04_23h56.25.065,CDT_GNG_IUS12,2020.1.2,Win32,60,,,,,,,,,,,,,,,,,,,,,,,,,,,,,,,,,,,,,,,,,,,,,,3.007407577,0.409595,0,9,9,9,1,10,"When I am uncertain, I can't function very well. ",,
,,,,,,,,,,,,,,,,,,,,,,,,,,,,,,,,,,,,,,,,,,,,,,,,,,,,,,00105,23,2020-08-04_23h56.25.065,CDT_GNG_IUS12,2020.1.2,Win32,60,,,,,,,,,,,,,,,,,,,,,,,,,,,,,,,,,,,,,,,,,,,,,,3.007407577,0.27517,0,10,10,10,1,11,The smallest doubt can stop me from acting. ,,
,,,,,,,,,,,,,,,,,,,,,,,,,,,,,,,,,,,,,,,,,,,,,,,,,,,,,,00105,23,2020-08-04_23h56.25.065,CDT_GNG_IUS12,2020.1.2,Win32,60,,,,,,,,,,,,,,,,,,,,,,,,,,,,,,,,,,,,,,,,,,,,,,3.007407577,0.12083,0,11,11,11,1,12,I must get away from all uncertain situations. ,,
,,,,,,,,,,,,,,,,,,,,,,,,,,,,,,,,,,,,,,,,,,,,,,,,,,,,,,00105,23,2020-08-04_23h56.25.065,CDT_GNG_IUS12,2020.1.2,Win32,60,,,,,,,,,,,,,,,,,,,,,,,,,,,,,,,,,,,,,,,,,,,,,,,,,,,,,,,x,2.34448
