key_resp_6.keys,key_resp_6.rt,Gender.keys,Gender.rt,key_resp_2.keys,key_resp_2.corr,key_resp_2.rt,CDT_trials_train.thisRepN,CDT_trials_train.thisTrialN,CDT_trials_train.thisN,CDT_trials_train.thisIndex,CDT_trials_train.ran,trialnum,condit,stimamt,stim1posx,stim1posy,stim1col,stim1opa,stim2posx,stim2posy,stim2col,stim2opa,stim3posx,stim3posy,stim3col,stim3opa,stim4posx,stim4posy,stim4col,stim4opa,stim5posx,stim5posy,stim5col,stim5opa,stim6posx,stim6posy,stim6col,stim6opa,stim7posx,stim7posy,stim7col,stim7opa,stim8posx,stim8posy,stim8col,stim8opa,stimsizex,stimsizey,stimdur,targetposx,targetposy,targetcol,corrAns,participant,age,date,expName,psychopyVersion,OS,frameRate,key_resp.keys,key_resp.corr,key_resp.rt,CDT_trials.thisRepN,CDT_trials.thisTrialN,CDT_trials.thisN,CDT_trials.thisIndex,CDT_trials.ran,trialResp_Train.keys,trialResp_Train.corr,GNGtrials_train.thisRepN,GNGtrials_train.thisTrialN,GNGtrials_train.thisN,GNGtrials_train.thisIndex,GNGtrials_train.ran,orangeOpacity,blueOpacity,trialResp_Train.rt,trialResp.keys,trialResp.corr,trialResp.rt,GNG_trials_1.thisRepN,GNG_trials_1.thisTrialN,GNG_trials_1.thisN,GNG_trials_1.thisIndex,GNG_trials_1.ran,GNG_trials_2.thisRepN,GNG_trials_2.thisTrialN,GNG_trials_2.thisN,GNG_trials_2.thisIndex,GNG_trials_2.ran,GNG_trials_3.thisRepN,GNG_trials_3.thisTrialN,GNG_trials_3.thisN,GNG_trials_3.thisIndex,GNG_trials_3.ran,slider_2.response,slider_2.rt,engprof_trials.thisRepN,engprof_trials.thisTrialN,engprof_trials.thisN,engprof_trials.thisIndex,engprof_trials.ran,qpnumber,qproficiency,slider.response,slider.rt,IUS12_trials.thisRepN,IUS12_trials.thisTrialN,IUS12_trials.thisN,IUS12_trials.thisIndex,IUS12_trials.ran,qnumber,qenglish,key_resp_end.keys,key_resp_end.rt
y,1.268655,m,1.1713,l,0,0.38635,0,0,0,0,1,1,same,4,0.14,0.14,orange,1,0.14,-0.41,blue,1,-0.14,-0.27,cyan,1,-0.41,0.14,red,1,0.14,0.41,black,0,0.27,-0.27,green,0,-0.41,-0.27,magenta,0,-0.41,0.41,yellow,0,0.05,0.05,0.15,0.14,-0.41,blue,k,00105,23,2020-08-05_00h25.25.119,CDT_GNG_IUS12,2020.1.2,Win32,60,,,,,,,,,,,,,,,,,,,,,,,,,,,,,,,,,,,,,,,,,,,,,,,,,,,,,,,,
,,,,l,1,0.42184,0,1,1,1,1,2,different,4,0.14,0.41,black,1,0.14,-0.41,green,1,-0.41,-0.27,orange,1,-0.27,0.41,magenta,1,0.14,0.27,red,0,0.41,-0.27,cyan,0,-0.27,-0.41,yellow,0,-0.27,0.27,blue,0,0.05,0.05,0.15,-0.27,0.41,red,l,00105,23,2020-08-05_00h25.25.119,CDT_GNG_IUS12,2020.1.2,Win32,60,,,,,,,,,,,,,,,,,,,,,,,,,,,,,,,,,,,,,,,,,,,,,,,,,,,,,,,,
,,,,l,0,0.25168,0,2,2,2,1,3,same,8,0.27,0.41,yellow,1,0.14,-0.41,cyan,1,-0.14,-0.27,blue,1,-0.14,0.27,green,1,0.14,0.14,red,1,0.27,-0.27,black,1,-0.27,-0.27,magenta,1,-0.27,0.14,orange,1,0.05,0.05,0.15,-0.14,0.27,green,k,00105,23,2020-08-05_00h25.25.119,CDT_GNG_IUS12,2020.1.2,Win32,60,,,,,,,,,,,,,,,,,,,,,,,,,,,,,,,,,,,,,,,,,,,,,,,,,,,,,,,,
,,,,l,1,0.268085,0,3,3,3,1,4,different,8,0.14,0.41,green,1,0.27,-0.14,red,1,-0.27,-0.14,black,1,-0.14,0.41,orange,1,0.41,0.27,blue,1,0.41,-0.27,magenta,1,-0.14,-0.14,cyan,1,-0.27,0.14,yellow,1,0.05,0.05,0.15,0.27,-0.14,cyan,l,00105,23,2020-08-05_00h25.25.119,CDT_GNG_IUS12,2020.1.2,Win32,60,,,,,,,,,,,,,,,,,,,,,,,,,,,,,,,,,,,,,,,,,,,,,,,,,,,,,,,,
,,,,,,,,,,,,77,same,8,0.41,0.41,black,1,0.14,-0.14,cyan,1,-0.27,-0.41,yellow,1,-0.14,0.27,orange,1,0.41,0.14,blue,1,0.41,-0.14,magenta,1,-0.14,-0.27,green,1,-0.27,0.14,red,1,0.05,0.05,0.15,0.41,-0.14,magenta,k,00105,23,2020-08-05_00h25.25.119,CDT_GNG_IUS12,2020.1.2,Win32,60,l,0,1.060335,0,0,0,76,1,,,,,,,,,,,,,,,,,,,,,,,,,,,,,,,,,,,,,,,,,,,,,,,,
,,,,,,,,,,,,91,different,8,0.27,0.27,red,1,0.41,-0.14,orange,1,-0.14,-0.27,green,1,-0.27,0.27,yellow,1,0.14,0.27,cyan,1,0.14,-0.14,black,1,-0.41,-0.41,blue,1,-0.14,0.41,magenta,1,0.05,0.05,0.15,-0.14,0.41,yellow,l,00105,23,2020-08-05_00h25.25.119,CDT_GNG_IUS12,2020.1.2,Win32,60,l,1,0.01742,0,1,1,90,1,,,,,,,,,,,,,,,,,,,,,,,,,,,,,,,,,,,,,,,,,,,,,,,,
,,,,,,,,,,,,85,same,8,0.14,0.41,green,1,0.14,-0.41,magenta,1,-0.41,-0.14,black,1,-0.14,0.27,blue,1,0.27,0.27,orange,1,0.41,-0.41,red,1,-0.27,-0.14,cyan,1,-0.41,0.27,yellow,1,0.05,0.05,0.15,0.27,0.27,orange,k,00105,23,2020-08-05_00h25.25.119,CDT_GNG_IUS12,2020.1.2,Win32,60,l,0,0.169455,0,2,2,84,1,,,,,,,,,,,,,,,,,,,,,,,,,,,,,,,,,,,,,,,,,,,,,,,,
,,,,,,,,,,,,32,different,4,0.41,0.27,orange,1,0.41,-0.41,green,1,-0.14,-0.14,cyan,1,-0.41,0.41,red,1,0.27,0.41,black,0,0.27,-0.41,magenta,0,-0.27,-0.14,blue,0,-0.14,0.14,yellow,0,0.05,0.05,0.15,-0.14,-0.14,blue,l,00105,23,2020-08-05_00h25.25.119,CDT_GNG_IUS12,2020.1.2,Win32,60,l,1,0.17106,0,3,3,31,1,,,,,,,,,,,,,,,,,,,,,,,,,,,,,,,,,,,,,,,,,,,,,,,,
,,,,,,,,,,,,107,different,8,0.27,0.41,green,1,0.27,-0.41,cyan,1,-0.41,-0.41,black,1,-0.14,0.41,blue,1,0.14,0.14,red,1,0.27,-0.27,yellow,1,-0.14,-0.41,magenta,1,-0.14,0.14,orange,1,0.05,0.05,0.15,-0.14,0.14,black,l,00105,23,2020-08-05_00h25.25.119,CDT_GNG_IUS12,2020.1.2,Win32,60,l,1,0.090945,0,4,4,106,1,,,,,,,,,,,,,,,,,,,,,,,,,,,,,,,,,,,,,,,,,,,,,,,,
,,,,,,,,,,,,102,different,8,0.14,0.27,yellow,1,0.14,-0.41,green,1,-0.41,-0.27,red,1,-0.14,0.41,orange,1,0.41,0.41,magenta,1,0.27,-0.41,blue,1,-0.27,-0.41,cyan,1,-0.27,0.27,black,1,0.05,0.05,0.15,-0.27,0.27,yellow,l,00105,23,2020-08-05_00h25.25.119,CDT_GNG_IUS12,2020.1.2,Win32,60,l,1,0.15102,0,5,5,101,1,,,,,,,,,,,,,,,,,,,,,,,,,,,,,,,,,,,,,,,,,,,,,,,,
,,,,,,,,,,,,52,different,4,0.27,0.41,cyan,1,0.14,-0.14,orange,1,-0.41,-0.14,black,1,-0.27,0.41,blue,1,0.14,0.27,magenta,0,0.27,-0.14,green,0,-0.27,-0.14,red,0,-0.14,0.41,yellow,0,0.05,0.05,0.15,0.14,-0.14,green,l,00105,23,2020-08-05_00h25.25.119,CDT_GNG_IUS12,2020.1.2,Win32,60,l,1,0.04227,0,6,6,51,1,,,,,,,,,,,,,,,,,,,,,,,,,,,,,,,,,,,,,,,,,,,,,,,,
,,,,,,,,,,,,76,same,8,0.14,0.27,orange,1,0.41,-0.14,cyan,1,-0.27,-0.27,blue,1,-0.14,0.14,black,1,0.27,0.41,green,1,0.27,-0.14,red,1,-0.27,-0.14,yellow,1,-0.27,0.27,magenta,1,0.05,0.05,0.15,0.41,-0.14,cyan,k,00105,23,2020-08-05_00h25.25.119,CDT_GNG_IUS12,2020.1.2,Win32,60,l,0,0.00308,0,7,7,75,1,,,,,,,,,,,,,,,,,,,,,,,,,,,,,,,,,,,,,,,,,,,,,,,,
,,,,,,,,,,,,79,same,8,0.27,0.14,green,1,0.41,-0.14,yellow,1,-0.27,-0.41,orange,1,-0.14,0.14,black,1,0.41,0.27,cyan,1,0.14,-0.14,red,1,-0.14,-0.27,blue,1,-0.27,0.41,magenta,1,0.05,0.05,0.15,0.41,0.27,cyan,k,00105,23,2020-08-05_00h25.25.119,CDT_GNG_IUS12,2020.1.2,Win32,60,l,0,0.041715,0,8,8,78,1,,,,,,,,,,,,,,,,,,,,,,,,,,,,,,,,,,,,,,,,,,,,,,,,
,,,,,,,,,,,,108,different,8,0.27,0.41,magenta,1,0.27,-0.14,green,1,-0.14,-0.41,yellow,1,-0.41,0.41,red,1,0.41,0.27,blue,1,0.14,-0.27,cyan,1,-0.27,-0.27,orange,1,-0.41,0.14,black,1,0.05,0.05,0.15,0.27,0.41,black,l,00105,23,2020-08-05_00h25.25.119,CDT_GNG_IUS12,2020.1.2,Win32,60,l,1,0.715685,0,9,9,107,1,,,,,,,,,,,,,,,,,,,,,,,,,,,,,,,,,,,,,,,,,,,,,,,,
,,,,,,,,,,,,62,same,8,0.41,0.14,red,1,0.14,-0.27,cyan,1,-0.41,-0.27,orange,1,-0.27,0.27,magenta,1,0.14,0.27,green,1,0.14,-0.14,blue,1,-0.27,-0.41,black,1,-0.41,0.14,yellow,1,0.05,0.05,0.15,-0.27,0.27,magenta,k,00105,23,2020-08-05_00h25.25.119,CDT_GNG_IUS12,2020.1.2,Win32,60,l,0,0.00263,0,10,10,61,1,,,,,,,,,,,,,,,,,,,,,,,,,,,,,,,,,,,,,,,,,,,,,,,,
,,,,,,,,,,,,92,different,8,0.27,0.27,yellow,1,0.14,-0.27,green,1,-0.41,-0.14,blue,1,-0.41,0.41,red,1,0.14,0.27,magenta,1,0.27,-0.14,cyan,1,-0.14,-0.14,orange,1,-0.27,0.27,black,1,0.05,0.05,0.15,-0.41,-0.14,magenta,l,00105,23,2020-08-05_00h25.25.119,CDT_GNG_IUS12,2020.1.2,Win32,60,l,1,0.522095,0,11,11,91,1,,,,,,,,,,,,,,,,,,,,,,,,,,,,,,,,,,,,,,,,,,,,,,,,
,,,,,,,,,,,,38,different,4,0.27,0.27,black,1,0.14,-0.27,green,1,-0.14,-0.27,magenta,1,-0.41,0.14,blue,1,0.14,0.41,orange,0,0.27,-0.41,yellow,0,-0.41,-0.14,cyan,0,-0.27,0.41,red,0,0.05,0.05,0.15,-0.14,-0.27,orange,l,00105,23,2020-08-05_00h25.25.119,CDT_GNG_IUS12,2020.1.2,Win32,60,l,1,0.06293,0,12,12,37,1,,,,,,,,,,,,,,,,,,,,,,,,,,,,,,,,,,,,,,,,,,,,,,,,
,,,,,,,,,,,,94,different,8,0.41,0.27,yellow,1,0.41,-0.27,blue,1,-0.41,-0.14,magenta,1,-0.41,0.27,orange,1,0.41,0.41,red,1,0.41,-0.41,green,1,-0.14,-0.14,black,1,-0.41,0.14,cyan,1,0.05,0.05,0.15,-0.41,0.14,black,l,00105,23,2020-08-05_00h25.25.119,CDT_GNG_IUS12,2020.1.2,Win32,60,l,1,0.016955,0,13,13,93,1,,,,,,,,,,,,,,,,,,,,,,,,,,,,,,,,,,,,,,,,,,,,,,,,
,,,,,,,,,,,,35,different,4,0.27,0.41,orange,1,0.41,-0.14,cyan,1,-0.27,-0.27,green,1,-0.14,0.27,yellow,1,0.41,0.27,black,0,0.41,-0.41,magenta,0,-0.14,-0.14,blue,0,-0.27,0.14,red,0,0.05,0.05,0.15,-0.14,0.27,blue,l,00105,23,2020-08-05_00h25.25.119,CDT_GNG_IUS12,2020.1.2,Win32,60,l,1,0.291725,0,14,14,34,1,,,,,,,,,,,,,,,,,,,,,,,,,,,,,,,,,,,,,,,,,,,,,,,,
,,,,,,,,,,,,114,different,8,0.41,0.41,yellow,1,0.14,-0.41,red,1,-0.41,-0.41,blue,1,-0.27,0.14,cyan,1,0.41,0.27,black,1,0.27,-0.41,green,1,-0.14,-0.41,orange,1,-0.14,0.41,magenta,1,0.05,0.05,0.15,-0.14,0.41,orange,l,00105,23,2020-08-05_00h25.25.119,CDT_GNG_IUS12,2020.1.2,Win32,60,l,1,0.00121,0,15,15,113,1,,,,,,,,,,,,,,,,,,,,,,,,,,,,,,,,,,,,,,,,,,,,,,,,
,,,,,,,,,,,,48,different,4,0.14,0.27,red,1,0.27,-0.14,yellow,1,-0.27,-0.41,magenta,1,-0.41,0.14,green,1,0.14,0.14,orange,0,0.41,-0.14,cyan,0,-0.27,-0.27,black,0,-0.41,0.41,blue,0,0.05,0.05,0.15,0.14,0.27,blue,l,00105,23,2020-08-05_00h25.25.119,CDT_GNG_IUS12,2020.1.2,Win32,60,l,1,0.059185,0,16,16,47,1,,,,,,,,,,,,,,,,,,,,,,,,,,,,,,,,,,,,,,,,,,,,,,,,
,,,,,,,,,,,,24,same,4,0.41,0.27,green,1,0.14,-0.27,black,1,-0.27,-0.27,yellow,1,-0.14,0.14,orange,1,0.41,0.14,blue,0,0.14,-0.14,cyan,0,-0.41,-0.14,red,0,-0.27,0.41,magenta,0,0.05,0.05,0.15,-0.14,0.14,orange,k,00105,23,2020-08-05_00h25.25.119,CDT_GNG_IUS12,2020.1.2,Win32,60,l,0,0.13393,0,17,17,23,1,,,,,,,,,,,,,,,,,,,,,,,,,,,,,,,,,,,,,,,,,,,,,,,,
,,,,,,,,,,,,86,same,8,0.41,0.27,magenta,1,0.14,-0.14,green,1,-0.14,-0.41,orange,1,-0.14,0.41,red,1,0.27,0.14,black,1,0.14,-0.41,cyan,1,-0.41,-0.27,yellow,1,-0.27,0.14,blue,1,0.05,0.05,0.15,0.14,-0.41,cyan,k,00105,23,2020-08-05_00h25.25.119,CDT_GNG_IUS12,2020.1.2,Win32,60,l,0,0.003025,0,18,18,85,1,,,,,,,,,,,,,,,,,,,,,,,,,,,,,,,,,,,,,,,,,,,,,,,,
,,,,,,,,,,,,37,different,4,0.41,0.41,yellow,1,0.27,-0.14,black,1,-0.14,-0.14,orange,1,-0.41,0.14,green,1,0.14,0.14,cyan,0,0.27,-0.41,blue,0,-0.14,-0.27,magenta,0,-0.14,0.14,red,0,0.05,0.05,0.15,0.41,0.41,red,l,00105,23,2020-08-05_00h25.25.119,CDT_GNG_IUS12,2020.1.2,Win32,60,l,1,0.1477,0,19,19,36,1,,,,,,,,,,,,,,,,,,,,,,,,,,,,,,,,,,,,,,,,,,,,,,,,
,,,,,,,,,,,,68,same,8,0.14,0.27,green,1,0.41,-0.27,magenta,1,-0.14,-0.27,cyan,1,-0.41,0.14,red,1,0.41,0.14,yellow,1,0.27,-0.14,blue,1,-0.14,-0.41,orange,1,-0.14,0.14,black,1,0.05,0.05,0.15,0.27,-0.14,blue,k,00105,23,2020-08-05_00h25.25.119,CDT_GNG_IUS12,2020.1.2,Win32,60,l,0,0.266575,0,20,20,67,1,,,,,,,,,,,,,,,,,,,,,,,,,,,,,,,,,,,,,,,,,,,,,,,,
,,,,,,,,,,,,99,different,8,0.14,0.27,blue,1,0.41,-0.41,yellow,1,-0.14,-0.14,green,1,-0.41,0.14,black,1,0.41,0.27,red,1,0.27,-0.27,magenta,1,-0.27,-0.27,orange,1,-0.27,0.27,cyan,1,0.05,0.05,0.15,0.14,0.27,black,l,00105,23,2020-08-05_00h25.25.119,CDT_GNG_IUS12,2020.1.2,Win32,60,l,1,0.052635,0,21,21,98,1,,,,,,,,,,,,,,,,,,,,,,,,,,,,,,,,,,,,,,,,,,,,,,,,
,,,,,,,,,,,,20,same,4,0.27,0.14,cyan,1,0.14,-0.14,orange,1,-0.27,-0.27,green,1,-0.41,0.27,yellow,1,0.14,0.41,black,0,0.41,-0.41,red,0,-0.27,-0.41,magenta,0,-0.27,0.27,blue,0,0.05,0.05,0.15,-0.27,-0.27,green,k,00105,23,2020-08-05_00h25.25.119,CDT_GNG_IUS12,2020.1.2,Win32,60,l,0,0.034965,0,22,22,19,1,,,,,,,,,,,,,,,,,,,,,,,,,,,,,,,,,,,,,,,,,,,,,,,,
,,,,,,,,,,,,103,different,8,0.14,0.14,black,1,0.14,-0.27,cyan,1,-0.41,-0.41,green,1,-0.41,0.27,red,1,0.27,0.41,orange,1,0.27,-0.27,blue,1,-0.41,-0.14,magenta,1,-0.41,0.41,yellow,1,0.05,0.05,0.15,0.27,-0.27,magenta,l,00105,23,2020-08-05_00h25.25.119,CDT_GNG_IUS12,2020.1.2,Win32,60,l,1,0.16609,0,23,23,102,1,,,,,,,,,,,,,,,,,,,,,,,,,,,,,,,,,,,,,,,,,,,,,,,,
,,,,,,,,,,,,71,same,8,0.14,0.41,red,1,0.27,-0.14,yellow,1,-0.27,-0.41,cyan,1,-0.41,0.27,blue,1,0.41,0.27,magenta,1,0.14,-0.41,orange,1,-0.14,-0.14,black,1,-0.41,0.14,green,1,0.05,0.05,0.15,-0.41,0.27,blue,k,00105,23,2020-08-05_00h25.25.119,CDT_GNG_IUS12,2020.1.2,Win32,60,l,0,0.039545,0,24,24,70,1,,,,,,,,,,,,,,,,,,,,,,,,,,,,,,,,,,,,,,,,,,,,,,,,
,,,,,,,,,,,,88,same,8,0.27,0.41,red,1,0.41,-0.14,cyan,1,-0.14,-0.14,green,1,-0.41,0.41,orange,1,0.14,0.27,magenta,1,0.27,-0.27,yellow,1,-0.41,-0.41,black,1,-0.27,0.41,blue,1,0.05,0.05,0.15,-0.41,0.41,orange,k,00105,23,2020-08-05_00h25.25.119,CDT_GNG_IUS12,2020.1.2,Win32,60,l,0,0.07739,0,25,25,87,1,,,,,,,,,,,,,,,,,,,,,,,,,,,,,,,,,,,,,,,,,,,,,,,,
,,,,,,,,,,,,15,same,4,0.41,0.14,magenta,1,0.41,-0.27,blue,1,-0.27,-0.14,yellow,1,-0.14,0.41,green,1,0.41,0.27,red,0,0.14,-0.14,orange,0,-0.14,-0.14,cyan,0,-0.27,0.27,black,0,0.05,0.05,0.15,-0.14,0.41,green,k,00105,23,2020-08-05_00h25.25.119,CDT_GNG_IUS12,2020.1.2,Win32,60,l,0,0.209605,0,26,26,14,1,,,,,,,,,,,,,,,,,,,,,,,,,,,,,,,,,,,,,,,,,,,,,,,,
,,,,,,,,,,,,45,different,4,0.14,0.14,red,1,0.27,-0.27,black,1,-0.41,-0.27,cyan,1,-0.41,0.27,blue,1,0.27,0.27,magenta,0,0.14,-0.41,orange,0,-0.14,-0.14,green,0,-0.27,0.14,yellow,0,0.05,0.05,0.15,0.14,0.14,blue,l,00105,23,2020-08-05_00h25.25.119,CDT_GNG_IUS12,2020.1.2,Win32,60,l,1,0.08615,0,27,27,44,1,,,,,,,,,,,,,,,,,,,,,,,,,,,,,,,,,,,,,,,,,,,,,,,,
,,,,,,,,,,,,12,same,4,0.14,0.41,red,1,0.14,-0.41,green,1,-0.41,-0.41,black,1,-0.27,0.27,cyan,1,0.27,0.41,magenta,0,0.41,-0.14,orange,0,-0.27,-0.41,yellow,0,-0.41,0.27,blue,0,0.05,0.05,0.15,-0.41,-0.41,black,k,00105,23,2020-08-05_00h25.25.119,CDT_GNG_IUS12,2020.1.2,Win32,60,l,0,0.172545,0,28,28,11,1,,,,,,,,,,,,,,,,,,,,,,,,,,,,,,,,,,,,,,,,,,,,,,,,
,,,,,,,,,,,,119,different,8,0.27,0.27,green,1,0.27,-0.14,orange,1,-0.41,-0.41,cyan,1,-0.27,0.27,blue,1,0.41,0.27,black,1,0.14,-0.41,red,1,-0.14,-0.41,yellow,1,-0.41,0.27,magenta,1,0.05,0.05,0.15,-0.41,0.27,cyan,l,00105,23,2020-08-05_00h25.25.119,CDT_GNG_IUS12,2020.1.2,Win32,60,l,1,0.10331,0,29,29,118,1,,,,,,,,,,,,,,,,,,,,,,,,,,,,,,,,,,,,,,,,,,,,,,,,
,,,,,,,,,,,,59,different,4,0.27,0.41,black,1,0.41,-0.14,blue,1,-0.27,-0.27,cyan,1,-0.14,0.41,green,1,0.14,0.27,red,0,0.41,-0.41,magenta,0,-0.14,-0.27,orange,0,-0.41,0.27,yellow,0,0.05,0.05,0.15,0.27,0.41,yellow,l,00105,23,2020-08-05_00h25.25.119,CDT_GNG_IUS12,2020.1.2,Win32,60,l,1,0.14599,0,30,30,58,1,,,,,,,,,,,,,,,,,,,,,,,,,,,,,,,,,,,,,,,,,,,,,,,,
,,,,,,,,,,,,44,different,4,0.27,0.27,black,1,0.41,-0.14,red,1,-0.41,-0.27,magenta,1,-0.14,0.14,green,1,0.41,0.41,cyan,0,0.14,-0.14,yellow,0,-0.27,-0.41,blue,0,-0.27,0.14,orange,0,0.05,0.05,0.15,0.41,-0.14,magenta,l,00105,23,2020-08-05_00h25.25.119,CDT_GNG_IUS12,2020.1.2,Win32,60,l,1,0.02649,0,31,31,43,1,,,,,,,,,,,,,,,,,,,,,,,,,,,,,,,,,,,,,,,,,,,,,,,,
,,,,,,,,,,,,74,same,8,0.41,0.41,blue,1,0.14,-0.14,orange,1,-0.27,-0.41,cyan,1,-0.27,0.41,yellow,1,0.41,0.27,black,1,0.41,-0.41,red,1,-0.14,-0.27,magenta,1,-0.27,0.14,green,1,0.05,0.05,0.15,0.41,0.27,black,k,00105,23,2020-08-05_00h25.25.119,CDT_GNG_IUS12,2020.1.2,Win32,60,l,0,1.617635,0,32,32,73,1,,,,,,,,,,,,,,,,,,,,,,,,,,,,,,,,,,,,,,,,,,,,,,,,
,,,,,,,,,,,,56,different,4,0.27,0.14,yellow,1,0.41,-0.14,blue,1,-0.14,-0.27,green,1,-0.41,0.14,cyan,1,0.14,0.14,magenta,0,0.41,-0.41,red,0,-0.41,-0.14,orange,0,-0.41,0.27,black,0,0.05,0.05,0.15,-0.14,-0.27,magenta,l,00105,23,2020-08-05_00h25.25.119,CDT_GNG_IUS12,2020.1.2,Win32,60,l,1,0.000895,0,33,33,55,1,,,,,,,,,,,,,,,,,,,,,,,,,,,,,,,,,,,,,,,,,,,,,,,,
,,,,,,,,,,,,72,same,8,0.27,0.41,blue,1,0.41,-0.27,magenta,1,-0.41,-0.41,yellow,1,-0.27,0.41,black,1,0.41,0.41,cyan,1,0.27,-0.41,green,1,-0.41,-0.27,orange,1,-0.14,0.27,red,1,0.05,0.05,0.15,-0.14,0.27,red,k,00105,23,2020-08-05_00h25.25.119,CDT_GNG_IUS12,2020.1.2,Win32,60,l,0,0.05672,0,34,34,71,1,,,,,,,,,,,,,,,,,,,,,,,,,,,,,,,,,,,,,,,,,,,,,,,,
,,,,,,,,,,,,96,different,8,0.14,0.14,yellow,1,0.14,-0.41,black,1,-0.27,-0.27,orange,1,-0.14,0.41,blue,1,0.14,0.27,magenta,1,0.41,-0.27,cyan,1,-0.41,-0.41,red,1,-0.41,0.41,green,1,0.05,0.05,0.15,0.41,-0.27,magenta,l,00105,23,2020-08-05_00h25.25.119,CDT_GNG_IUS12,2020.1.2,Win32,60,l,1,0.14902,0,35,35,95,1,,,,,,,,,,,,,,,,,,,,,,,,,,,,,,,,,,,,,,,,,,,,,,,,
,,,,,,,,,,,,4,same,4,0.41,0.27,magenta,1,0.27,-0.41,orange,1,-0.41,-0.41,red,1,-0.14,0.41,green,1,0.27,0.41,blue,0,0.14,-0.41,black,0,-0.27,-0.14,cyan,0,-0.41,0.27,yellow,0,0.05,0.05,0.15,0.27,-0.41,orange,k,00105,23,2020-08-05_00h25.25.119,CDT_GNG_IUS12,2020.1.2,Win32,60,l,0,0.02415,0,36,36,3,1,,,,,,,,,,,,,,,,,,,,,,,,,,,,,,,,,,,,,,,,,,,,,,,,
,,,,,,,,,,,,67,same,8,0.14,0.27,yellow,1,0.27,-0.14,magenta,1,-0.27,-0.27,black,1,-0.41,0.41,blue,1,0.41,0.14,cyan,1,0.14,-0.14,red,1,-0.41,-0.14,orange,1,-0.41,0.27,green,1,0.05,0.05,0.15,-0.27,-0.27,black,k,00105,23,2020-08-05_00h25.25.119,CDT_GNG_IUS12,2020.1.2,Win32,60,l,0,0.13984,0,37,37,66,1,,,,,,,,,,,,,,,,,,,,,,,,,,,,,,,,,,,,,,,,,,,,,,,,
,,,,,,,,,,,,40,different,4,0.41,0.41,magenta,1,0.41,-0.27,cyan,1,-0.27,-0.41,yellow,1,-0.14,0.41,black,1,0.27,0.27,blue,0,0.41,-0.41,green,0,-0.14,-0.27,red,0,-0.27,0.27,orange,0,0.05,0.05,0.15,-0.27,-0.41,orange,l,00105,23,2020-08-05_00h25.25.119,CDT_GNG_IUS12,2020.1.2,Win32,60,l,1,0.07924,0,38,38,39,1,,,,,,,,,,,,,,,,,,,,,,,,,,,,,,,,,,,,,,,,,,,,,,,,
,,,,,,,,,,,,54,different,4,0.14,0.14,yellow,1,0.41,-0.41,magenta,1,-0.14,-0.41,black,1,-0.14,0.27,orange,1,0.41,0.27,cyan,0,0.41,-0.27,red,0,-0.27,-0.14,green,0,-0.27,0.27,blue,0,0.05,0.05,0.15,0.41,-0.41,cyan,l,00105,23,2020-08-05_00h25.25.119,CDT_GNG_IUS12,2020.1.2,Win32,60,l,1,0.15531,0,39,39,53,1,,,,,,,,,,,,,,,,,,,,,,,,,,,,,,,,,,,,,,,,,,,,,,,,
,,,,,,,,,,,,84,same,8,0.27,0.14,magenta,1,0.14,-0.14,yellow,1,-0.14,-0.14,blue,1,-0.27,0.27,red,1,0.41,0.14,cyan,1,0.41,-0.27,orange,1,-0.14,-0.27,black,1,-0.41,0.14,green,1,0.05,0.05,0.15,-0.27,0.27,red,k,00105,23,2020-08-05_00h25.25.119,CDT_GNG_IUS12,2020.1.2,Win32,60,l,0,0.21099,0,40,40,83,1,,,,,,,,,,,,,,,,,,,,,,,,,,,,,,,,,,,,,,,,,,,,,,,,
,,,,,,,,,,,,43,different,4,0.27,0.27,red,1,0.14,-0.27,orange,1,-0.41,-0.14,green,1,-0.27,0.27,cyan,1,0.41,0.41,black,0,0.27,-0.14,magenta,0,-0.41,-0.41,yellow,0,-0.41,0.41,blue,0,0.05,0.05,0.15,-0.41,-0.14,magenta,l,00105,23,2020-08-05_00h25.25.119,CDT_GNG_IUS12,2020.1.2,Win32,60,l,1,0.206545,0,41,41,42,1,,,,,,,,,,,,,,,,,,,,,,,,,,,,,,,,,,,,,,,,,,,,,,,,
,,,,,,,,,,,,109,different,8,0.41,0.14,yellow,1,0.27,-0.27,cyan,1,-0.14,-0.27,magenta,1,-0.27,0.14,orange,1,0.41,0.41,green,1,0.27,-0.41,red,1,-0.27,-0.41,black,1,-0.27,0.41,blue,1,0.05,0.05,0.15,0.27,-0.27,green,l,00105,23,2020-08-05_00h25.25.119,CDT_GNG_IUS12,2020.1.2,Win32,60,l,1,0.010255,0,42,42,108,1,,,,,,,,,,,,,,,,,,,,,,,,,,,,,,,,,,,,,,,,,,,,,,,,
,,,,,,,,,,,,80,same,8,0.41,0.14,red,1,0.41,-0.14,blue,1,-0.41,-0.41,black,1,-0.41,0.14,green,1,0.14,0.41,orange,1,0.27,-0.41,cyan,1,-0.41,-0.14,magenta,1,-0.41,0.41,yellow,1,0.05,0.05,0.15,0.27,-0.41,cyan,k,00105,23,2020-08-05_00h25.25.119,CDT_GNG_IUS12,2020.1.2,Win32,60,l,0,0.10575,0,43,43,79,1,,,,,,,,,,,,,,,,,,,,,,,,,,,,,,,,,,,,,,,,,,,,,,,,
,,,,,,,,,,,,16,same,4,0.27,0.27,magenta,1,0.14,-0.14,orange,1,-0.14,-0.41,blue,1,-0.27,0.14,red,1,0.14,0.14,black,0,0.14,-0.27,green,0,-0.27,-0.27,yellow,0,-0.27,0.27,cyan,0,0.05,0.05,0.15,-0.27,0.14,red,k,00105,23,2020-08-05_00h25.25.119,CDT_GNG_IUS12,2020.1.2,Win32,60,l,0,0.212415,0,44,44,15,1,,,,,,,,,,,,,,,,,,,,,,,,,,,,,,,,,,,,,,,,,,,,,,,,
,,,,,,,,,,,,34,different,4,0.14,0.14,cyan,1,0.14,-0.14,magenta,1,-0.41,-0.41,black,1,-0.41,0.14,yellow,1,0.27,0.27,orange,0,0.14,-0.41,green,0,-0.41,-0.14,red,0,-0.14,0.14,blue,0,0.05,0.05,0.15,0.14,-0.14,cyan,l,00105,23,2020-08-05_00h25.25.119,CDT_GNG_IUS12,2020.1.2,Win32,60,l,1,0.251555,0,45,45,33,1,,,,,,,,,,,,,,,,,,,,,,,,,,,,,,,,,,,,,,,,,,,,,,,,
,,,,,,,,,,,,65,same,8,0.41,0.41,blue,1,0.27,-0.41,yellow,1,-0.27,-0.41,red,1,-0.41,0.27,cyan,1,0.14,0.27,black,1,0.27,-0.27,orange,1,-0.41,-0.41,magenta,1,-0.41,0.41,green,1,0.05,0.05,0.15,0.27,-0.27,orange,k,00105,23,2020-08-05_00h25.25.119,CDT_GNG_IUS12,2020.1.2,Win32,60,l,0,0.17597,0,46,46,64,1,,,,,,,,,,,,,,,,,,,,,,,,,,,,,,,,,,,,,,,,,,,,,,,,
,,,,,,,,,,,,27,same,4,0.27,0.27,yellow,1,0.27,-0.27,green,1,-0.27,-0.41,cyan,1,-0.14,0.41,black,1,0.14,0.41,blue,0,0.41,-0.14,red,0,-0.14,-0.14,orange,0,-0.27,0.41,magenta,0,0.05,0.05,0.15,0.27,-0.27,green,k,00105,23,2020-08-05_00h25.25.119,CDT_GNG_IUS12,2020.1.2,Win32,60,l,0,0.191565,0,47,47,26,1,,,,,,,,,,,,,,,,,,,,,,,,,,,,,,,,,,,,,,,,,,,,,,,,
,,,,,,,,,,,,13,same,4,0.41,0.41,black,1,0.14,-0.14,red,1,-0.14,-0.14,orange,1,-0.14,0.14,cyan,1,0.14,0.14,green,0,0.27,-0.27,magenta,0,-0.27,-0.14,yellow,0,-0.14,0.41,blue,0,0.05,0.05,0.15,0.41,0.41,black,k,00105,23,2020-08-05_00h25.25.119,CDT_GNG_IUS12,2020.1.2,Win32,60,l,0,0.07611,0,48,48,12,1,,,,,,,,,,,,,,,,,,,,,,,,,,,,,,,,,,,,,,,,,,,,,,,,
,,,,,,,,,,,,21,same,4,0.41,0.27,magenta,1,0.27,-0.41,black,1,-0.27,-0.14,orange,1,-0.41,0.41,green,1,0.27,0.14,yellow,0,0.27,-0.14,cyan,0,-0.27,-0.27,red,0,-0.41,0.27,blue,0,0.05,0.05,0.15,0.27,-0.41,black,k,00105,23,2020-08-05_00h25.25.119,CDT_GNG_IUS12,2020.1.2,Win32,60,l,0,0.15763,0,49,49,20,1,,,,,,,,,,,,,,,,,,,,,,,,,,,,,,,,,,,,,,,,,,,,,,,,
,,,,,,,,,,,,5,same,4,0.27,0.27,blue,1,0.14,-0.14,orange,1,-0.27,-0.27,black,1,-0.27,0.41,magenta,1,0.27,0.41,green,0,0.14,-0.41,cyan,0,-0.27,-0.41,yellow,0,-0.27,0.14,red,0,0.05,0.05,0.15,0.14,-0.14,orange,k,00105,23,2020-08-05_00h25.25.119,CDT_GNG_IUS12,2020.1.2,Win32,60,l,0,0.02719,0,50,50,4,1,,,,,,,,,,,,,,,,,,,,,,,,,,,,,,,,,,,,,,,,,,,,,,,,
,,,,,,,,,,,,83,same,8,0.14,0.27,yellow,1,0.27,-0.41,orange,1,-0.27,-0.41,green,1,-0.41,0.14,cyan,1,0.41,0.27,blue,1,0.14,-0.14,magenta,1,-0.14,-0.14,red,1,-0.41,0.41,black,1,0.05,0.05,0.15,-0.41,0.41,black,k,00105,23,2020-08-05_00h25.25.119,CDT_GNG_IUS12,2020.1.2,Win32,60,l,0,0.13891,0,51,51,82,1,,,,,,,,,,,,,,,,,,,,,,,,,,,,,,,,,,,,,,,,,,,,,,,,
,,,,,,,,,,,,87,same,8,0.27,0.14,red,1,0.14,-0.14,yellow,1,-0.27,-0.14,orange,1,-0.27,0.27,magenta,1,0.41,0.27,blue,1,0.41,-0.41,green,1,-0.27,-0.27,black,1,-0.14,0.27,cyan,1,0.05,0.05,0.15,0.41,-0.41,green,k,00105,23,2020-08-05_00h25.25.119,CDT_GNG_IUS12,2020.1.2,Win32,60,l,0,0.109135,0,52,52,86,1,,,,,,,,,,,,,,,,,,,,,,,,,,,,,,,,,,,,,,,,,,,,,,,,
,,,,,,,,,,,,30,same,4,0.14,0.41,black,1,0.41,-0.27,yellow,1,-0.14,-0.27,green,1,-0.41,0.14,orange,1,0.41,0.27,blue,0,0.14,-0.41,magenta,0,-0.27,-0.27,cyan,0,-0.41,0.41,red,0,0.05,0.05,0.15,0.14,0.41,black,k,00105,23,2020-08-05_00h25.25.119,CDT_GNG_IUS12,2020.1.2,Win32,60,l,0,0.11572,0,53,53,29,1,,,,,,,,,,,,,,,,,,,,,,,,,,,,,,,,,,,,,,,,,,,,,,,,
,,,,,,,,,,,,28,same,4,0.41,0.41,magenta,1,0.27,-0.14,blue,1,-0.14,-0.14,red,1,-0.14,0.41,orange,1,0.14,0.14,black,0,0.41,-0.14,green,0,-0.27,-0.14,yellow,0,-0.14,0.27,cyan,0,0.05,0.05,0.15,0.27,-0.14,blue,k,00105,23,2020-08-05_00h25.25.119,CDT_GNG_IUS12,2020.1.2,Win32,60,l,0,0.12089,0,54,54,27,1,,,,,,,,,,,,,,,,,,,,,,,,,,,,,,,,,,,,,,,,,,,,,,,,
,,,,,,,,,,,,75,same,8,0.41,0.27,blue,1,0.41,-0.41,black,1,-0.41,-0.41,red,1,-0.27,0.14,magenta,1,0.27,0.14,yellow,1,0.27,-0.27,cyan,1,-0.14,-0.27,green,1,-0.41,0.27,orange,1,0.05,0.05,0.15,-0.14,-0.27,green,k,00105,23,2020-08-05_00h25.25.119,CDT_GNG_IUS12,2020.1.2,Win32,60,l,0,0.216275,0,55,55,74,1,,,,,,,,,,,,,,,,,,,,,,,,,,,,,,,,,,,,,,,,,,,,,,,,
,,,,,,,,,,,,53,different,4,0.14,0.27,cyan,1,0.41,-0.14,yellow,1,-0.41,-0.41,green,1,-0.14,0.41,black,1,0.41,0.27,red,0,0.14,-0.14,magenta,0,-0.27,-0.27,blue,0,-0.27,0.27,orange,0,0.05,0.05,0.15,0.14,0.27,blue,l,00105,23,2020-08-05_00h25.25.119,CDT_GNG_IUS12,2020.1.2,Win32,60,l,1,0.236745,0,56,56,52,1,,,,,,,,,,,,,,,,,,,,,,,,,,,,,,,,,,,,,,,,,,,,,,,,
,,,,,,,,,,,,69,same,8,0.27,0.14,magenta,1,0.27,-0.41,yellow,1,-0.14,-0.41,green,1,-0.14,0.41,orange,1,0.14,0.41,red,1,0.14,-0.27,black,1,-0.14,-0.27,blue,1,-0.27,0.14,cyan,1,0.05,0.05,0.15,0.14,-0.27,black,k,00105,23,2020-08-05_00h25.25.119,CDT_GNG_IUS12,2020.1.2,Win32,60,l,0,0.120635,0,57,57,68,1,,,,,,,,,,,,,,,,,,,,,,,,,,,,,,,,,,,,,,,,,,,,,,,,
,,,,,,,,,,,,111,different,8,0.27,0.14,red,1,0.41,-0.27,green,1,-0.27,-0.14,yellow,1,-0.14,0.14,orange,1,0.41,0.41,black,1,0.27,-0.27,cyan,1,-0.27,-0.41,blue,1,-0.27,0.14,magenta,1,0.05,0.05,0.15,-0.27,-0.41,red,l,00105,23,2020-08-05_00h25.25.119,CDT_GNG_IUS12,2020.1.2,Win32,60,l,1,0.01793,0,58,58,110,1,,,,,,,,,,,,,,,,,,,,,,,,,,,,,,,,,,,,,,,,,,,,,,,,
,,,,,,,,,,,,118,different,8,0.14,0.14,red,1,0.27,-0.27,yellow,1,-0.27,-0.14,orange,1,-0.41,0.41,magenta,1,0.27,0.27,cyan,1,0.14,-0.41,green,1,-0.27,-0.41,blue,1,-0.41,0.14,black,1,0.05,0.05,0.15,-0.27,-0.41,black,l,00105,23,2020-08-05_00h25.25.119,CDT_GNG_IUS12,2020.1.2,Win32,60,l,1,0.08592,0,59,59,117,1,,,,,,,,,,,,,,,,,,,,,,,,,,,,,,,,,,,,,,,,,,,,,,,,
,,,,,,,,,,,,26,same,4,0.14,0.14,black,1,0.14,-0.14,red,1,-0.41,-0.14,yellow,1,-0.14,0.41,orange,1,0.27,0.14,blue,0,0.14,-0.27,magenta,0,-0.27,-0.41,green,0,-0.14,0.27,cyan,0,0.05,0.05,0.15,-0.41,-0.14,yellow,k,00105,23,2020-08-05_00h25.25.119,CDT_GNG_IUS12,2020.1.2,Win32,60,l,0,0.33676,0,60,60,25,1,,,,,,,,,,,,,,,,,,,,,,,,,,,,,,,,,,,,,,,,,,,,,,,,
,,,,,,,,,,,,14,same,4,0.27,0.41,cyan,1,0.27,-0.41,black,1,-0.27,-0.27,yellow,1,-0.27,0.27,green,1,0.41,0.41,blue,0,0.14,-0.27,red,0,-0.14,-0.14,orange,0,-0.41,0.41,magenta,0,0.05,0.05,0.15,0.27,-0.41,black,k,00105,23,2020-08-05_00h25.25.119,CDT_GNG_IUS12,2020.1.2,Win32,60,l,0,0.01754,0,61,61,13,1,,,,,,,,,,,,,,,,,,,,,,,,,,,,,,,,,,,,,,,,,,,,,,,,
,,,,,,,,,,,,7,same,4,0.41,0.41,yellow,1,0.41,-0.41,blue,1,-0.14,-0.41,black,1,-0.14,0.14,magenta,1,0.27,0.41,red,0,0.41,-0.27,green,0,-0.41,-0.14,cyan,0,-0.14,0.27,orange,0,0.05,0.05,0.15,-0.14,0.14,magenta,k,00105,23,2020-08-05_00h25.25.119,CDT_GNG_IUS12,2020.1.2,Win32,60,l,0,0.12088,0,62,62,6,1,,,,,,,,,,,,,,,,,,,,,,,,,,,,,,,,,,,,,,,,,,,,,,,,
,,,,,,,,,,,,33,different,4,0.27,0.41,magenta,1,0.41,-0.41,red,1,-0.27,-0.41,yellow,1,-0.14,0.41,black,1,0.14,0.41,blue,0,0.14,-0.41,orange,0,-0.41,-0.14,cyan,0,-0.41,0.27,green,0,0.05,0.05,0.15,0.27,0.41,black,l,00105,23,2020-08-05_00h25.25.119,CDT_GNG_IUS12,2020.1.2,Win32,60,l,1,0.216235,0,63,63,32,1,,,,,,,,,,,,,,,,,,,,,,,,,,,,,,,,,,,,,,,,,,,,,,,,
,,,,,,,,,,,,41,different,4,0.41,0.41,green,1,0.27,-0.41,orange,1,-0.27,-0.41,black,1,-0.27,0.41,magenta,1,0.14,0.41,cyan,0,0.41,-0.27,blue,0,-0.14,-0.27,red,0,-0.27,0.14,yellow,0,0.05,0.05,0.15,-0.27,-0.41,cyan,l,00105,23,2020-08-05_00h25.25.119,CDT_GNG_IUS12,2020.1.2,Win32,60,l,1,0.41829,0,64,64,40,1,,,,,,,,,,,,,,,,,,,,,,,,,,,,,,,,,,,,,,,,,,,,,,,,
,,,,,,,,,,,,104,different,8,0.41,0.41,cyan,1,0.41,-0.41,blue,1,-0.27,-0.14,green,1,-0.27,0.14,orange,1,0.14,0.41,red,1,0.27,-0.27,yellow,1,-0.41,-0.27,magenta,1,-0.14,0.41,black,1,0.05,0.05,0.15,-0.14,0.41,magenta,l,00105,23,2020-08-05_00h25.25.119,CDT_GNG_IUS12,2020.1.2,Win32,60,l,1,0.132145,0,65,65,103,1,,,,,,,,,,,,,,,,,,,,,,,,,,,,,,,,,,,,,,,,,,,,,,,,
,,,,,,,,,,,,22,same,4,0.41,0.27,green,1,0.27,-0.14,black,1,-0.27,-0.41,cyan,1,-0.41,0.14,blue,1,0.14,0.14,magenta,0,0.41,-0.41,orange,0,-0.14,-0.27,red,0,-0.41,0.41,yellow,0,0.05,0.05,0.15,0.27,-0.14,black,k,00105,23,2020-08-05_00h25.25.119,CDT_GNG_IUS12,2020.1.2,Win32,60,l,0,0.1881,0,66,66,21,1,,,,,,,,,,,,,,,,,,,,,,,,,,,,,,,,,,,,,,,,,,,,,,,,
,,,,,,,,,,,,36,different,4,0.41,0.27,magenta,1,0.27,-0.14,orange,1,-0.41,-0.41,yellow,1,-0.14,0.14,blue,1,0.14,0.41,green,0,0.27,-0.27,black,0,-0.41,-0.27,cyan,0,-0.41,0.41,red,0,0.05,0.05,0.15,0.27,-0.14,black,l,00105,23,2020-08-05_00h25.25.119,CDT_GNG_IUS12,2020.1.2,Win32,60,l,1,0.03328,0,67,67,35,1,,,,,,,,,,,,,,,,,,,,,,,,,,,,,,,,,,,,,,,,,,,,,,,,
,,,,,,,,,,,,101,different,8,0.14,0.27,magenta,1,0.14,-0.27,cyan,1,-0.41,-0.14,yellow,1,-0.41,0.14,black,1,0.14,0.41,red,1,0.41,-0.41,blue,1,-0.14,-0.41,green,1,-0.27,0.27,orange,1,0.05,0.05,0.15,-0.41,0.14,magenta,l,00105,23,2020-08-05_00h25.25.119,CDT_GNG_IUS12,2020.1.2,Win32,60,l,1,0.02837,0,68,68,100,1,,,,,,,,,,,,,,,,,,,,,,,,,,,,,,,,,,,,,,,,,,,,,,,,
,,,,,,,,,,,,93,different,8,0.14,0.41,blue,1,0.14,-0.27,red,1,-0.41,-0.14,magenta,1,-0.14,0.27,black,1,0.41,0.27,yellow,1,0.41,-0.14,orange,1,-0.27,-0.14,green,1,-0.14,0.41,cyan,1,0.05,0.05,0.15,0.41,-0.14,blue,l,00105,23,2020-08-05_00h25.25.119,CDT_GNG_IUS12,2020.1.2,Win32,60,l,1,0.21451,0,69,69,92,1,,,,,,,,,,,,,,,,,,,,,,,,,,,,,,,,,,,,,,,,,,,,,,,,
,,,,,,,,,,,,10,same,4,0.14,0.41,magenta,1,0.41,-0.14,black,1,-0.27,-0.27,orange,1,-0.41,0.27,green,1,0.27,0.41,blue,0,0.41,-0.41,yellow,0,-0.41,-0.41,cyan,0,-0.27,0.27,red,0,0.05,0.05,0.15,0.41,-0.14,black,k,00105,23,2020-08-05_00h25.25.119,CDT_GNG_IUS12,2020.1.2,Win32,60,l,0,0.07384,0,70,70,9,1,,,,,,,,,,,,,,,,,,,,,,,,,,,,,,,,,,,,,,,,,,,,,,,,
,,,,,,,,,,,,64,same,8,0.41,0.14,green,1,0.14,-0.41,cyan,1,-0.14,-0.14,yellow,1,-0.14,0.27,red,1,0.27,0.14,blue,1,0.27,-0.27,magenta,1,-0.14,-0.27,orange,1,-0.14,0.41,black,1,0.05,0.05,0.15,-0.14,0.27,red,k,00105,23,2020-08-05_00h25.25.119,CDT_GNG_IUS12,2020.1.2,Win32,60,l,0,0.122815,0,71,71,63,1,,,,,,,,,,,,,,,,,,,,,,,,,,,,,,,,,,,,,,,,,,,,,,,,
,,,,,,,,,,,,115,different,8,0.14,0.27,green,1,0.27,-0.41,orange,1,-0.14,-0.14,yellow,1,-0.27,0.41,magenta,1,0.27,0.14,blue,1,0.14,-0.27,red,1,-0.41,-0.14,cyan,1,-0.41,0.14,black,1,0.05,0.05,0.15,0.14,-0.27,cyan,l,00105,23,2020-08-05_00h25.25.119,CDT_GNG_IUS12,2020.1.2,Win32,60,l,1,0.057725,0,72,72,114,1,,,,,,,,,,,,,,,,,,,,,,,,,,,,,,,,,,,,,,,,,,,,,,,,
,,,,,,,,,,,,18,same,4,0.41,0.27,orange,1,0.14,-0.27,blue,1,-0.27,-0.41,yellow,1,-0.41,0.27,magenta,1,0.14,0.41,red,0,0.14,-0.14,black,0,-0.41,-0.27,green,0,-0.41,0.41,cyan,0,0.05,0.05,0.15,0.14,-0.27,blue,k,00105,23,2020-08-05_00h25.25.119,CDT_GNG_IUS12,2020.1.2,Win32,60,l,0,0.148495,0,73,73,17,1,,,,,,,,,,,,,,,,,,,,,,,,,,,,,,,,,,,,,,,,,,,,,,,,
,,,,,,,,,,,,1,same,4,0.14,0.14,magenta,1,0.27,-0.14,blue,1,-0.27,-0.14,black,1,-0.27,0.27,green,1,0.41,0.41,red,0,0.27,-0.27,cyan,0,-0.14,-0.14,yellow,0,-0.27,0.41,orange,0,0.05,0.05,0.15,0.14,0.14,magenta,k,00105,23,2020-08-05_00h25.25.119,CDT_GNG_IUS12,2020.1.2,Win32,60,l,0,0.185475,0,74,74,0,1,,,,,,,,,,,,,,,,,,,,,,,,,,,,,,,,,,,,,,,,,,,,,,,,
,,,,,,,,,,,,9,same,4,0.27,0.27,red,1,0.14,-0.27,orange,1,-0.14,-0.41,yellow,1,-0.27,0.41,blue,1,0.41,0.41,green,0,0.41,-0.41,cyan,0,-0.27,-0.41,magenta,0,-0.27,0.27,black,0,0.05,0.05,0.15,0.27,0.27,red,k,00105,23,2020-08-05_00h25.25.119,CDT_GNG_IUS12,2020.1.2,Win32,60,l,0,0.116545,0,75,75,8,1,,,,,,,,,,,,,,,,,,,,,,,,,,,,,,,,,,,,,,,,,,,,,,,,
,,,,,,,,,,,,29,same,4,0.14,0.27,black,1,0.41,-0.14,blue,1,-0.41,-0.14,magenta,1,-0.27,0.27,green,1,0.27,0.27,yellow,0,0.41,-0.41,orange,0,-0.41,-0.27,cyan,0,-0.14,0.14,red,0,0.05,0.05,0.15,0.41,-0.14,blue,k,00105,23,2020-08-05_00h25.25.119,CDT_GNG_IUS12,2020.1.2,Win32,60,l,0,0.18334,0,76,76,28,1,,,,,,,,,,,,,,,,,,,,,,,,,,,,,,,,,,,,,,,,,,,,,,,,
,,,,,,,,,,,,116,different,8,0.27,0.14,green,1,0.41,-0.14,black,1,-0.27,-0.41,magenta,1,-0.41,0.14,cyan,1,0.41,0.41,blue,1,0.41,-0.27,yellow,1,-0.41,-0.27,red,1,-0.27,0.14,orange,1,0.05,0.05,0.15,0.41,-0.27,magenta,l,00105,23,2020-08-05_00h25.25.119,CDT_GNG_IUS12,2020.1.2,Win32,60,l,1,0.091035,0,77,77,115,1,,,,,,,,,,,,,,,,,,,,,,,,,,,,,,,,,,,,,,,,,,,,,,,,
,,,,,,,,,,,,51,different,4,0.41,0.41,yellow,1,0.14,-0.27,red,1,-0.14,-0.27,cyan,1,-0.41,0.14,orange,1,0.14,0.41,green,0,0.27,-0.41,black,0,-0.27,-0.14,blue,0,-0.41,0.27,magenta,0,0.05,0.05,0.15,0.41,0.41,red,l,00105,23,2020-08-05_00h25.25.119,CDT_GNG_IUS12,2020.1.2,Win32,60,l,1,0.181885,0,78,78,50,1,,,,,,,,,,,,,,,,,,,,,,,,,,,,,,,,,,,,,,,,,,,,,,,,
,,,,,,,,,,,,3,same,4,0.27,0.14,green,1,0.27,-0.27,orange,1,-0.27,-0.41,yellow,1,-0.41,0.41,magenta,1,0.14,0.41,black,0,0.14,-0.41,red,0,-0.27,-0.14,cyan,0,-0.14,0.14,blue,0,0.05,0.05,0.15,-0.27,-0.41,yellow,k,00105,23,2020-08-05_00h25.25.119,CDT_GNG_IUS12,2020.1.2,Win32,60,l,0,0.001345,0,79,79,2,1,,,,,,,,,,,,,,,,,,,,,,,,,,,,,,,,,,,,,,,,,,,,,,,,
,,,,,,,,,,,,113,different,8,0.41,0.27,magenta,1,0.27,-0.27,red,1,-0.41,-0.41,yellow,1,-0.14,0.27,green,1,0.41,0.14,orange,1,0.14,-0.41,blue,1,-0.14,-0.41,black,1,-0.41,0.27,cyan,1,0.05,0.05,0.15,0.41,0.14,yellow,l,00105,23,2020-08-05_00h25.25.119,CDT_GNG_IUS12,2020.1.2,Win32,60,l,1,0.005755,0,80,80,112,1,,,,,,,,,,,,,,,,,,,,,,,,,,,,,,,,,,,,,,,,,,,,,,,,
,,,,,,,,,,,,105,different,8,0.41,0.27,cyan,1,0.14,-0.14,magenta,1,-0.27,-0.14,blue,1,-0.41,0.41,yellow,1,0.41,0.41,red,1,0.14,-0.41,green,1,-0.27,-0.27,orange,1,-0.27,0.41,black,1,0.05,0.05,0.15,0.41,0.27,orange,l,00105,23,2020-08-05_00h25.25.119,CDT_GNG_IUS12,2020.1.2,Win32,60,l,1,0.117955,0,81,81,104,1,,,,,,,,,,,,,,,,,,,,,,,,,,,,,,,,,,,,,,,,,,,,,,,,
,,,,,,,,,,,,11,same,4,0.27,0.14,red,1,0.14,-0.14,cyan,1,-0.27,-0.41,blue,1,-0.27,0.14,yellow,1,0.27,0.27,green,0,0.41,-0.27,black,0,-0.41,-0.41,magenta,0,-0.41,0.14,orange,0,0.05,0.05,0.15,-0.27,-0.41,blue,k,00105,23,2020-08-05_00h25.25.119,CDT_GNG_IUS12,2020.1.2,Win32,60,l,0,0.09968,0,82,82,10,1,,,,,,,,,,,,,,,,,,,,,,,,,,,,,,,,,,,,,,,,,,,,,,,,
,,,,,,,,,,,,17,same,4,0.41,0.27,cyan,1,0.41,-0.41,black,1,-0.14,-0.27,magenta,1,-0.14,0.41,green,1,0.14,0.14,orange,0,0.14,-0.41,yellow,0,-0.14,-0.41,red,0,-0.27,0.14,blue,0,0.05,0.05,0.15,-0.14,0.41,green,k,00105,23,2020-08-05_00h25.25.119,CDT_GNG_IUS12,2020.1.2,Win32,60,l,0,0.18797,0,83,83,16,1,,,,,,,,,,,,,,,,,,,,,,,,,,,,,,,,,,,,,,,,,,,,,,,,
,,,,,,,,,,,,47,different,4,0.27,0.27,magenta,1,0.41,-0.27,black,1,-0.14,-0.41,red,1,-0.14,0.41,green,1,0.41,0.41,cyan,0,0.27,-0.14,orange,0,-0.27,-0.14,blue,0,-0.27,0.14,yellow,0,0.05,0.05,0.15,0.27,0.27,blue,l,00105,23,2020-08-05_00h25.25.119,CDT_GNG_IUS12,2020.1.2,Win32,60,l,1,0.14278,0,84,84,46,1,,,,,,,,,,,,,,,,,,,,,,,,,,,,,,,,,,,,,,,,,,,,,,,,
,,,,,,,,,,,,61,same,8,0.41,0.41,orange,1,0.41,-0.41,magenta,1,-0.27,-0.41,blue,1,-0.14,0.27,yellow,1,0.14,0.41,red,1,0.14,-0.27,black,1,-0.41,-0.41,cyan,1,-0.27,0.14,green,1,0.05,0.05,0.15,-0.27,-0.41,blue,k,00105,23,2020-08-05_00h25.25.119,CDT_GNG_IUS12,2020.1.2,Win32,60,l,0,0.060845,0,85,85,60,1,,,,,,,,,,,,,,,,,,,,,,,,,,,,,,,,,,,,,,,,,,,,,,,,
,,,,,,,,,,,,49,different,4,0.27,0.14,green,1,0.41,-0.14,yellow,1,-0.27,-0.41,red,1,-0.14,0.14,cyan,1,0.14,0.14,blue,0,0.27,-0.27,black,0,-0.14,-0.41,orange,0,-0.41,0.14,magenta,0,0.05,0.05,0.15,0.27,0.14,yellow,l,00105,23,2020-08-05_00h25.25.119,CDT_GNG_IUS12,2020.1.2,Win32,60,l,1,0.056085,0,86,86,48,1,,,,,,,,,,,,,,,,,,,,,,,,,,,,,,,,,,,,,,,,,,,,,,,,
,,,,,,,,,,,,23,same,4,0.41,0.14,cyan,1,0.14,-0.27,magenta,1,-0.14,-0.27,red,1,-0.14,0.27,green,1,0.41,0.27,blue,0,0.14,-0.41,yellow,0,-0.41,-0.27,orange,0,-0.27,0.41,black,0,0.05,0.05,0.15,-0.14,0.27,green,k,00105,23,2020-08-05_00h25.25.119,CDT_GNG_IUS12,2020.1.2,Win32,60,l,0,0.049835,0,87,87,22,1,,,,,,,,,,,,,,,,,,,,,,,,,,,,,,,,,,,,,,,,,,,,,,,,
,,,,,,,,,,,,57,different,4,0.14,0.41,black,1,0.14,-0.14,blue,1,-0.41,-0.14,red,1,-0.41,0.14,orange,1,0.41,0.41,magenta,0,0.41,-0.14,cyan,0,-0.14,-0.27,yellow,0,-0.27,0.41,green,0,0.05,0.05,0.15,-0.41,0.14,blue,l,00105,23,2020-08-05_00h25.25.119,CDT_GNG_IUS12,2020.1.2,Win32,60,l,1,0.000965,0,88,88,56,1,,,,,,,,,,,,,,,,,,,,,,,,,,,,,,,,,,,,,,,,,,,,,,,,
,,,,,,,,,,,,78,same,8,0.41,0.14,green,1,0.14,-0.27,magenta,1,-0.41,-0.27,blue,1,-0.41,0.41,black,1,0.41,0.27,cyan,1,0.41,-0.14,orange,1,-0.14,-0.41,yellow,1,-0.14,0.41,red,1,0.05,0.05,0.15,-0.41,-0.27,blue,k,00105,23,2020-08-05_00h25.25.119,CDT_GNG_IUS12,2020.1.2,Win32,60,l,0,0.135015,0,89,89,77,1,,,,,,,,,,,,,,,,,,,,,,,,,,,,,,,,,,,,,,,,,,,,,,,,
,,,,,,,,,,,,31,different,4,0.27,0.41,orange,1,0.14,-0.14,black,1,-0.41,-0.41,yellow,1,-0.41,0.27,cyan,1,0.27,0.14,green,0,0.41,-0.27,blue,0,-0.14,-0.41,red,0,-0.41,0.14,magenta,0,0.05,0.05,0.15,-0.41,0.27,yellow,l,00105,23,2020-08-05_00h25.25.119,CDT_GNG_IUS12,2020.1.2,Win32,60,l,1,0.06621,0,90,90,30,1,,,,,,,,,,,,,,,,,,,,,,,,,,,,,,,,,,,,,,,,,,,,,,,,
,,,,,,,,,,,,117,different,8,0.14,0.41,black,1,0.14,-0.41,cyan,1,-0.41,-0.27,magenta,1,-0.27,0.41,yellow,1,0.41,0.27,orange,1,0.41,-0.14,red,1,-0.27,-0.27,green,1,-0.14,0.14,blue,1,0.05,0.05,0.15,0.41,-0.14,black,l,00105,23,2020-08-05_00h25.25.119,CDT_GNG_IUS12,2020.1.2,Win32,60,l,1,0.15815,0,91,91,116,1,,,,,,,,,,,,,,,,,,,,,,,,,,,,,,,,,,,,,,,,,,,,,,,,
,,,,,,,,,,,,39,different,4,0.41,0.27,green,1,0.41,-0.27,yellow,1,-0.27,-0.27,orange,1,-0.14,0.14,cyan,1,0.14,0.14,magenta,0,0.27,-0.41,blue,0,-0.14,-0.27,red,0,-0.41,0.27,black,0,0.05,0.05,0.15,-0.14,0.14,green,l,00105,23,2020-08-05_00h25.25.119,CDT_GNG_IUS12,2020.1.2,Win32,60,l,1,0.3233,0,92,92,38,1,,,,,,,,,,,,,,,,,,,,,,,,,,,,,,,,,,,,,,,,,,,,,,,,
,,,,,,,,,,,,50,different,4,0.41,0.14,black,1,0.14,-0.14,blue,1,-0.41,-0.41,red,1,-0.27,0.14,green,1,0.14,0.41,cyan,0,0.41,-0.14,magenta,0,-0.14,-0.27,yellow,0,-0.27,0.41,orange,0,0.05,0.05,0.15,-0.41,-0.41,orange,l,00105,23,2020-08-05_00h25.25.119,CDT_GNG_IUS12,2020.1.2,Win32,60,l,1,0.05635,0,93,93,49,1,,,,,,,,,,,,,,,,,,,,,,,,,,,,,,,,,,,,,,,,,,,,,,,,
,,,,,,,,,,,,89,same,8,0.14,0.14,blue,1,0.14,-0.27,orange,1,-0.14,-0.27,yellow,1,-0.41,0.27,red,1,0.27,0.27,cyan,1,0.14,-0.14,green,1,-0.14,-0.41,magenta,1,-0.41,0.41,black,1,0.05,0.05,0.15,0.14,-0.27,orange,k,00105,23,2020-08-05_00h25.25.119,CDT_GNG_IUS12,2020.1.2,Win32,60,l,0,0.10087,0,94,94,88,1,,,,,,,,,,,,,,,,,,,,,,,,,,,,,,,,,,,,,,,,,,,,,,,,
,,,,,,,,,,,,55,different,4,0.14,0.14,black,1,0.41,-0.14,cyan,1,-0.27,-0.27,magenta,1,-0.14,0.41,blue,1,0.27,0.14,yellow,0,0.14,-0.27,red,0,-0.27,-0.41,orange,0,-0.27,0.41,green,0,0.05,0.05,0.15,0.14,0.14,yellow,l,00105,23,2020-08-05_00h25.25.119,CDT_GNG_IUS12,2020.1.2,Win32,60,l,1,0.11662,0,95,95,54,1,,,,,,,,,,,,,,,,,,,,,,,,,,,,,,,,,,,,,,,,,,,,,,,,
,,,,,,,,,,,,110,different,8,0.41,0.14,orange,1,0.27,-0.27,black,1,-0.14,-0.27,blue,1,-0.27,0.27,cyan,1,0.27,0.41,magenta,1,0.27,-0.41,red,1,-0.27,-0.41,yellow,1,-0.27,0.41,green,1,0.05,0.05,0.15,-0.27,-0.41,red,l,00105,23,2020-08-05_00h25.25.119,CDT_GNG_IUS12,2020.1.2,Win32,60,l,1,0.09795,0,96,96,109,1,,,,,,,,,,,,,,,,,,,,,,,,,,,,,,,,,,,,,,,,,,,,,,,,
,,,,,,,,,,,,25,same,4,0.41,0.27,cyan,1,0.27,-0.27,yellow,1,-0.41,-0.14,black,1,-0.14,0.27,blue,1,0.41,0.14,green,0,0.14,-0.41,magenta,0,-0.41,-0.41,orange,0,-0.27,0.41,red,0,0.05,0.05,0.15,0.27,-0.27,yellow,k,00105,23,2020-08-05_00h25.25.119,CDT_GNG_IUS12,2020.1.2,Win32,60,l,0,0.179285,0,97,97,24,1,,,,,,,,,,,,,,,,,,,,,,,,,,,,,,,,,,,,,,,,,,,,,,,,
,,,,,,,,,,,,112,different,8,0.27,0.41,magenta,1,0.14,-0.41,green,1,-0.14,-0.14,black,1,-0.27,0.27,cyan,1,0.41,0.41,red,1,0.14,-0.27,blue,1,-0.41,-0.14,orange,1,-0.14,0.14,yellow,1,0.05,0.05,0.15,0.41,0.41,blue,l,00105,23,2020-08-05_00h25.25.119,CDT_GNG_IUS12,2020.1.2,Win32,60,l,1,0.06557,0,98,98,111,1,,,,,,,,,,,,,,,,,,,,,,,,,,,,,,,,,,,,,,,,,,,,,,,,
,,,,,,,,,,,,82,same,8,0.27,0.41,yellow,1,0.14,-0.14,magenta,1,-0.14,-0.14,orange,1,-0.14,0.41,black,1,0.14,0.41,red,1,0.27,-0.14,green,1,-0.27,-0.27,cyan,1,-0.41,0.41,blue,1,0.05,0.05,0.15,0.14,-0.14,magenta,k,00105,23,2020-08-05_00h25.25.119,CDT_GNG_IUS12,2020.1.2,Win32,60,l,0,0.405205,0,99,99,81,1,,,,,,,,,,,,,,,,,,,,,,,,,,,,,,,,,,,,,,,,,,,,,,,,
,,,,,,,,,,,,81,same,8,0.27,0.14,yellow,1,0.41,-0.14,blue,1,-0.41,-0.14,green,1,-0.41,0.14,orange,1,0.14,0.41,red,1,0.14,-0.27,magenta,1,-0.14,-0.27,cyan,1,-0.14,0.14,black,1,0.05,0.05,0.15,-0.41,0.14,orange,k,00105,23,2020-08-05_00h25.25.119,CDT_GNG_IUS12,2020.1.2,Win32,60,l,0,0.70964,0,100,100,80,1,,,,,,,,,,,,,,,,,,,,,,,,,,,,,,,,,,,,,,,,,,,,,,,,
,,,,,,,,,,,,66,same,8,0.27,0.27,magenta,1,0.14,-0.41,green,1,-0.27,-0.14,yellow,1,-0.14,0.27,orange,1,0.41,0.41,red,1,0.14,-0.14,cyan,1,-0.14,-0.27,black,1,-0.27,0.41,blue,1,0.05,0.05,0.15,0.41,0.41,red,k,00105,23,2020-08-05_00h25.25.119,CDT_GNG_IUS12,2020.1.2,Win32,60,l,0,0.15136,0,101,101,65,1,,,,,,,,,,,,,,,,,,,,,,,,,,,,,,,,,,,,,,,,,,,,,,,,
,,,,,,,,,,,,120,different,8,0.41,0.41,blue,1,0.14,-0.14,magenta,1,-0.27,-0.27,cyan,1,-0.27,0.41,orange,1,0.27,0.41,yellow,1,0.14,-0.41,red,1,-0.14,-0.27,green,1,-0.14,0.41,black,1,0.05,0.05,0.15,-0.14,0.41,orange,l,00105,23,2020-08-05_00h25.25.119,CDT_GNG_IUS12,2020.1.2,Win32,60,l,1,0.15752,0,102,102,119,1,,,,,,,,,,,,,,,,,,,,,,,,,,,,,,,,,,,,,,,,,,,,,,,,
,,,,,,,,,,,,8,same,4,0.27,0.41,orange,1,0.41,-0.14,cyan,1,-0.14,-0.41,green,1,-0.14,0.41,black,1,0.41,0.41,blue,0,0.27,-0.41,yellow,0,-0.41,-0.27,red,0,-0.41,0.41,magenta,0,0.05,0.05,0.15,-0.14,-0.41,green,k,00105,23,2020-08-05_00h25.25.119,CDT_GNG_IUS12,2020.1.2,Win32,60,l,0,0.011805,0,103,103,7,1,,,,,,,,,,,,,,,,,,,,,,,,,,,,,,,,,,,,,,,,,,,,,,,,
,,,,,,,,,,,,106,different,8,0.41,0.41,black,1,0.14,-0.41,yellow,1,-0.41,-0.14,orange,1,-0.27,0.27,blue,1,0.14,0.41,red,1,0.41,-0.27,green,1,-0.14,-0.14,cyan,1,-0.14,0.14,magenta,1,0.05,0.05,0.15,-0.41,-0.14,green,l,00105,23,2020-08-05_00h25.25.119,CDT_GNG_IUS12,2020.1.2,Win32,60,l,1,0.1997,0,104,104,105,1,,,,,,,,,,,,,,,,,,,,,,,,,,,,,,,,,,,,,,,,,,,,,,,,
,,,,,,,,,,,,63,same,8,0.27,0.27,magenta,1,0.27,-0.27,yellow,1,-0.27,-0.14,orange,1,-0.14,0.14,green,1,0.41,0.27,blue,1,0.41,-0.27,cyan,1,-0.41,-0.41,red,1,-0.41,0.27,black,1,0.05,0.05,0.15,0.27,0.27,magenta,k,00105,23,2020-08-05_00h25.25.119,CDT_GNG_IUS12,2020.1.2,Win32,60,l,0,0.161875,0,105,105,62,1,,,,,,,,,,,,,,,,,,,,,,,,,,,,,,,,,,,,,,,,,,,,,,,,
,,,,,,,,,,,,42,different,4,0.41,0.41,green,1,0.14,-0.14,red,1,-0.27,-0.14,cyan,1,-0.27,0.27,blue,1,0.27,0.27,orange,0,0.14,-0.27,black,0,-0.27,-0.41,yellow,0,-0.27,0.41,magenta,0,0.05,0.05,0.15,-0.27,0.27,red,l,00105,23,2020-08-05_00h25.25.119,CDT_GNG_IUS12,2020.1.2,Win32,60,l,1,0.00862,0,106,106,41,1,,,,,,,,,,,,,,,,,,,,,,,,,,,,,,,,,,,,,,,,,,,,,,,,
,,,,,,,,,,,,90,same,8,0.27,0.14,orange,1,0.14,-0.27,green,1,-0.14,-0.41,magenta,1,-0.14,0.27,cyan,1,0.41,0.41,blue,1,0.14,-0.14,black,1,-0.14,-0.14,yellow,1,-0.27,0.27,red,1,0.05,0.05,0.15,0.14,-0.14,black,k,00105,23,2020-08-05_00h25.25.119,CDT_GNG_IUS12,2020.1.2,Win32,60,l,0,0.16036,0,107,107,89,1,,,,,,,,,,,,,,,,,,,,,,,,,,,,,,,,,,,,,,,,,,,,,,,,
,,,,,,,,,,,,19,same,4,0.27,0.41,blue,1,0.14,-0.41,red,1,-0.14,-0.27,black,1,-0.14,0.27,magenta,1,0.27,0.14,yellow,0,0.27,-0.14,orange,0,-0.14,-0.41,green,0,-0.14,0.14,cyan,0,0.05,0.05,0.15,0.27,0.41,blue,k,00105,23,2020-08-05_00h25.25.119,CDT_GNG_IUS12,2020.1.2,Win32,60,l,0,0.040865,0,108,108,18,1,,,,,,,,,,,,,,,,,,,,,,,,,,,,,,,,,,,,,,,,,,,,,,,,
,,,,,,,,,,,,70,same,8,0.41,0.41,black,1,0.14,-0.27,red,1,-0.41,-0.41,magenta,1,-0.27,0.41,green,1,0.27,0.14,yellow,1,0.41,-0.41,orange,1,-0.27,-0.14,blue,1,-0.27,0.27,cyan,1,0.05,0.05,0.15,0.14,-0.27,red,k,00105,23,2020-08-05_00h25.25.119,CDT_GNG_IUS12,2020.1.2,Win32,60,l,0,0.16589,0,109,109,69,1,,,,,,,,,,,,,,,,,,,,,,,,,,,,,,,,,,,,,,,,,,,,,,,,
,,,,,,,,,,,,58,different,4,0.14,0.41,blue,1,0.14,-0.14,black,1,-0.14,-0.14,yellow,1,-0.27,0.41,magenta,1,0.27,0.41,red,0,0.14,-0.27,cyan,0,-0.41,-0.27,orange,0,-0.27,0.27,green,0,0.05,0.05,0.15,0.14,0.41,yellow,l,00105,23,2020-08-05_00h25.25.119,CDT_GNG_IUS12,2020.1.2,Win32,60,l,1,0.058545,0,110,110,57,1,,,,,,,,,,,,,,,,,,,,,,,,,,,,,,,,,,,,,,,,,,,,,,,,
,,,,,,,,,,,,46,different,4,0.14,0.14,red,1,0.14,-0.14,green,1,-0.14,-0.41,orange,1,-0.27,0.41,blue,1,0.41,0.27,cyan,0,0.14,-0.27,magenta,0,-0.14,-0.14,black,0,-0.41,0.27,yellow,0,0.05,0.05,0.15,-0.14,-0.41,blue,l,00105,23,2020-08-05_00h25.25.119,CDT_GNG_IUS12,2020.1.2,Win32,60,l,1,0.160845,0,111,111,45,1,,,,,,,,,,,,,,,,,,,,,,,,,,,,,,,,,,,,,,,,,,,,,,,,
,,,,,,,,,,,,2,same,4,0.27,0.41,magenta,1,0.41,-0.14,red,1,-0.27,-0.14,orange,1,-0.27,0.14,blue,1,0.14,0.14,cyan,0,0.14,-0.14,green,0,-0.14,-0.14,black,0,-0.14,0.41,yellow,0,0.05,0.05,0.15,-0.27,-0.14,orange,k,00105,23,2020-08-05_00h25.25.119,CDT_GNG_IUS12,2020.1.2,Win32,60,l,0,0.01647,0,112,112,1,1,,,,,,,,,,,,,,,,,,,,,,,,,,,,,,,,,,,,,,,,,,,,,,,,
,,,,,,,,,,,,97,different,8,0.27,0.27,blue,1,0.14,-0.27,orange,1,-0.14,-0.14,black,1,-0.27,0.14,cyan,1,0.14,0.14,magenta,1,0.27,-0.41,yellow,1,-0.27,-0.41,green,1,-0.41,0.14,red,1,0.05,0.05,0.15,-0.27,0.14,black,l,00105,23,2020-08-05_00h25.25.119,CDT_GNG_IUS12,2020.1.2,Win32,60,l,1,0.18952,0,113,113,96,1,,,,,,,,,,,,,,,,,,,,,,,,,,,,,,,,,,,,,,,,,,,,,,,,
,,,,,,,,,,,,98,different,8,0.41,0.27,black,1,0.14,-0.27,yellow,1,-0.14,-0.27,cyan,1,-0.27,0.14,red,1,0.27,0.27,green,1,0.41,-0.41,magenta,1,-0.41,-0.14,blue,1,-0.41,0.41,orange,1,0.05,0.05,0.15,0.41,0.27,red,l,00105,23,2020-08-05_00h25.25.119,CDT_GNG_IUS12,2020.1.2,Win32,60,l,1,0.755285,0,114,114,97,1,,,,,,,,,,,,,,,,,,,,,,,,,,,,,,,,,,,,,,,,,,,,,,,,
,,,,,,,,,,,,95,different,8,0.41,0.41,black,1,0.14,-0.14,cyan,1,-0.14,-0.41,orange,1,-0.14,0.27,blue,1,0.41,0.27,magenta,1,0.14,-0.41,green,1,-0.27,-0.27,red,1,-0.41,0.14,yellow,1,0.05,0.05,0.15,-0.14,0.27,green,l,00105,23,2020-08-05_00h25.25.119,CDT_GNG_IUS12,2020.1.2,Win32,60,l,1,0.04093,0,115,115,94,1,,,,,,,,,,,,,,,,,,,,,,,,,,,,,,,,,,,,,,,,,,,,,,,,
,,,,,,,,,,,,73,same,8,0.14,0.14,blue,1,0.14,-0.41,yellow,1,-0.41,-0.41,red,1,-0.41,0.27,orange,1,0.27,0.41,magenta,1,0.14,-0.27,green,1,-0.41,-0.27,black,1,-0.27,0.27,cyan,1,0.05,0.05,0.15,0.27,0.41,magenta,k,00105,23,2020-08-05_00h25.25.119,CDT_GNG_IUS12,2020.1.2,Win32,60,l,0,0.152305,0,116,116,72,1,,,,,,,,,,,,,,,,,,,,,,,,,,,,,,,,,,,,,,,,,,,,,,,,
,,,,,,,,,,,,6,same,4,0.41,0.27,orange,1,0.41,-0.14,magenta,1,-0.14,-0.27,black,1,-0.27,0.41,cyan,1,0.14,0.41,red,0,0.14,-0.41,blue,0,-0.14,-0.14,green,0,-0.41,0.41,yellow,0,0.05,0.05,0.15,-0.14,-0.27,black,k,00105,23,2020-08-05_00h25.25.119,CDT_GNG_IUS12,2020.1.2,Win32,60,l,0,0.16688,0,117,117,5,1,,,,,,,,,,,,,,,,,,,,,,,,,,,,,,,,,,,,,,,,,,,,,,,,
,,,,,,,,,,,,60,different,4,0.41,0.14,cyan,1,0.14,-0.41,green,1,-0.41,-0.41,yellow,1,-0.41,0.41,magenta,1,0.14,0.14,orange,0,0.41,-0.41,red,0,-0.14,-0.41,black,0,-0.27,0.27,blue,0,0.05,0.05,0.15,0.41,0.14,blue,l,00105,23,2020-08-05_00h25.25.119,CDT_GNG_IUS12,2020.1.2,Win32,60,l,1,0.160875,0,118,118,59,1,,,,,,,,,,,,,,,,,,,,,,,,,,,,,,,,,,,,,,,,,,,,,,,,
,,,,,,,,,,,,100,different,8,0.41,0.27,black,1,0.41,-0.27,red,1,-0.14,-0.27,magenta,1,-0.14,0.27,orange,1,0.14,0.27,blue,1,0.27,-0.14,yellow,1,-0.41,-0.14,cyan,1,-0.41,0.14,green,1,0.05,0.05,0.15,0.41,0.27,orange,l,00105,23,2020-08-05_00h25.25.119,CDT_GNG_IUS12,2020.1.2,Win32,60,l,1,0.071775,0,119,119,99,1,,,,,,,,,,,,,,,,,,,,,,,,,,,,,,,,,,,,,,,,,,,,,,,,
,,,,,,,,,,,,,,,,,,,,,,,,,,,,,,,,,,,,,,,,,,,,,,,,,,,,,,00105,23,2020-08-05_00h25.25.119,CDT_GNG_IUS12,2020.1.2,Win32,60,,,,,,,,,,1,0,0,0,3,1,1,0,,,,,,,,,,,,,,,,,,,,,,,,,,,,,,,,,,,,,,,
,,,,,,,,,,,,,,,,,,,,,,,,,,,,,,,,,,,,,,,,,,,,,,,,,,,,,space,00105,23,2020-08-05_00h25.25.119,CDT_GNG_IUS12,2020.1.2,Win32,60,,,,,,,,,space,1,0,1,1,5,1,0,1,0.353485,,,,,,,,,,,,,,,,,,,,,,,,,,,,,,,,,,,,,,
,,,,,,,,,,,,,,,,,,,,,,,,,,,,,,,,,,,,,,,,,,,,,,,,,,,,,space,00105,23,2020-08-05_00h25.25.119,CDT_GNG_IUS12,2020.1.2,Win32,60,,,,,,,,,space,1,0,2,2,7,1,0,1,0.3065,,,,,,,,,,,,,,,,,,,,,,,,,,,,,,,,,,,,,,
,,,,,,,,,,,,,,,,,,,,,,,,,,,,,,,,,,,,,,,,,,,,,,,,,,,,,,00105,23,2020-08-05_00h25.25.119,CDT_GNG_IUS12,2020.1.2,Win32,60,,,,,,,,,space,0,0,3,3,2,1,1,0,0.219995,,,,,,,,,,,,,,,,,,,,,,,,,,,,,,,,,,,,,,
,,,,,,,,,,,,,,,,,,,,,,,,,,,,,,,,,,,,,,,,,,,,,,,,,,,,,space,00105,23,2020-08-05_00h25.25.119,CDT_GNG_IUS12,2020.1.2,Win32,60,,,,,,,,,space,1,0,4,4,4,1,0,1,0.31675,,,,,,,,,,,,,,,,,,,,,,,,,,,,,,,,,,,,,,
,,,,,,,,,,,,,,,,,,,,,,,,,,,,,,,,,,,,,,,,,,,,,,,,,,,,,space,00105,23,2020-08-05_00h25.25.119,CDT_GNG_IUS12,2020.1.2,Win32,60,,,,,,,,,space,1,0,5,5,6,1,0,1,0.336755,,,,,,,,,,,,,,,,,,,,,,,,,,,,,,,,,,,,,,
,,,,,,,,,,,,,,,,,,,,,,,,,,,,,,,,,,,,,,,,,,,,,,,,,,,,,,00105,23,2020-08-05_00h25.25.119,CDT_GNG_IUS12,2020.1.2,Win32,60,,,,,,,,,,1,0,6,6,0,1,1,0,,,,,,,,,,,,,,,,,,,,,,,,,,,,,,,,,,,,,,,
,,,,,,,,,,,,,,,,,,,,,,,,,,,,,,,,,,,,,,,,,,,,,,,,,,,,,,00105,23,2020-08-05_00h25.25.119,CDT_GNG_IUS12,2020.1.2,Win32,60,,,,,,,,,,1,0,7,7,1,1,1,0,,,,,,,,,,,,,,,,,,,,,,,,,,,,,,,,,,,,,,,
,,,,,,,,,,,,,,,,,,,,,,,,,,,,,,,,,,,,,,,,,,,,,,,,,,,,,space,00105,23,2020-08-05_00h25.25.119,CDT_GNG_IUS12,2020.1.2,Win32,60,,,,,,,,,,,,,,,,0,1,,space,1,0.23583,0,0,0,10,1,,,,,,,,,,,,,,,,,,,,,,,,,,,,,,
,,,,,,,,,,,,,,,,,,,,,,,,,,,,,,,,,,,,,,,,,,,,,,,,,,,,,,00105,23,2020-08-05_00h25.25.119,CDT_GNG_IUS12,2020.1.2,Win32,60,,,,,,,,,,,,,,,,1,0,,space,0,0.222705,0,1,1,4,1,,,,,,,,,,,,,,,,,,,,,,,,,,,,,,
,,,,,,,,,,,,,,,,,,,,,,,,,,,,,,,,,,,,,,,,,,,,,,,,,,,,,space,00105,23,2020-08-05_00h25.25.119,CDT_GNG_IUS12,2020.1.2,Win32,60,,,,,,,,,,,,,,,,0,1,,space,1,0.210905,0,2,2,16,1,,,,,,,,,,,,,,,,,,,,,,,,,,,,,,
,,,,,,,,,,,,,,,,,,,,,,,,,,,,,,,,,,,,,,,,,,,,,,,,,,,,,space,00105,23,2020-08-05_00h25.25.119,CDT_GNG_IUS12,2020.1.2,Win32,60,,,,,,,,,,,,,,,,0,1,,space,1,0.135825,0,3,3,46,1,,,,,,,,,,,,,,,,,,,,,,,,,,,,,,
,,,,,,,,,,,,,,,,,,,,,,,,,,,,,,,,,,,,,,,,,,,,,,,,,,,,,space,00105,23,2020-08-05_00h25.25.119,CDT_GNG_IUS12,2020.1.2,Win32,60,,,,,,,,,,,,,,,,0,1,,space,1,0.15411,0,4,4,24,1,,,,,,,,,,,,,,,,,,,,,,,,,,,,,,
,,,,,,,,,,,,,,,,,,,,,,,,,,,,,,,,,,,,,,,,,,,,,,,,,,,,,space,00105,23,2020-08-05_00h25.25.119,CDT_GNG_IUS12,2020.1.2,Win32,60,,,,,,,,,,,,,,,,0,1,,space,1,0.14553,0,5,5,35,1,,,,,,,,,,,,,,,,,,,,,,,,,,,,,,
,,,,,,,,,,,,,,,,,,,,,,,,,,,,,,,,,,,,,,,,,,,,,,,,,,,,,space,00105,23,2020-08-05_00h25.25.119,CDT_GNG_IUS12,2020.1.2,Win32,60,,,,,,,,,,,,,,,,0,1,,space,1,0.167335,0,6,6,12,1,,,,,,,,,,,,,,,,,,,,,,,,,,,,,,
,,,,,,,,,,,,,,,,,,,,,,,,,,,,,,,,,,,,,,,,,,,,,,,,,,,,,space,00105,23,2020-08-05_00h25.25.119,CDT_GNG_IUS12,2020.1.2,Win32,60,,,,,,,,,,,,,,,,0,1,,space,1,0.165455,0,7,7,44,1,,,,,,,,,,,,,,,,,,,,,,,,,,,,,,
,,,,,,,,,,,,,,,,,,,,,,,,,,,,,,,,,,,,,,,,,,,,,,,,,,,,,,00105,23,2020-08-05_00h25.25.119,CDT_GNG_IUS12,2020.1.2,Win32,60,,,,,,,,,,,,,,,,1,0,,space,0,0.16902,0,8,8,5,1,,,,,,,,,,,,,,,,,,,,,,,,,,,,,,
,,,,,,,,,,,,,,,,,,,,,,,,,,,,,,,,,,,,,,,,,,,,,,,,,,,,,space,00105,23,2020-08-05_00h25.25.119,CDT_GNG_IUS12,2020.1.2,Win32,60,,,,,,,,,,,,,,,,0,1,,space,1,0.24652,0,9,9,28,1,,,,,,,,,,,,,,,,,,,,,,,,,,,,,,
,,,,,,,,,,,,,,,,,,,,,,,,,,,,,,,,,,,,,,,,,,,,,,,,,,,,,space,00105,23,2020-08-05_00h25.25.119,CDT_GNG_IUS12,2020.1.2,Win32,60,,,,,,,,,,,,,,,,0,1,,space,1,0.237405,0,10,10,40,1,,,,,,,,,,,,,,,,,,,,,,,,,,,,,,
,,,,,,,,,,,,,,,,,,,,,,,,,,,,,,,,,,,,,,,,,,,,,,,,,,,,,space,00105,23,2020-08-05_00h25.25.119,CDT_GNG_IUS12,2020.1.2,Win32,60,,,,,,,,,,,,,,,,0,1,,space,1,0.28228,0,11,11,17,1,,,,,,,,,,,,,,,,,,,,,,,,,,,,,,
,,,,,,,,,,,,,,,,,,,,,,,,,,,,,,,,,,,,,,,,,,,,,,,,,,,,,,00105,23,2020-08-05_00h25.25.119,CDT_GNG_IUS12,2020.1.2,Win32,60,,,,,,,,,,,,,,,,1,0,,space,0,0.21717,0,12,12,6,1,,,,,,,,,,,,,,,,,,,,,,,,,,,,,,
,,,,,,,,,,,,,,,,,,,,,,,,,,,,,,,,,,,,,,,,,,,,,,,,,,,,,space,00105,23,2020-08-05_00h25.25.119,CDT_GNG_IUS12,2020.1.2,Win32,60,,,,,,,,,,,,,,,,0,1,,space,1,0.233775,0,13,13,26,1,,,,,,,,,,,,,,,,,,,,,,,,,,,,,,
,,,,,,,,,,,,,,,,,,,,,,,,,,,,,,,,,,,,,,,,,,,,,,,,,,,,,space,00105,23,2020-08-05_00h25.25.119,CDT_GNG_IUS12,2020.1.2,Win32,60,,,,,,,,,,,,,,,,0,1,,space,1,0.15175,0,14,14,11,1,,,,,,,,,,,,,,,,,,,,,,,,,,,,,,
,,,,,,,,,,,,,,,,,,,,,,,,,,,,,,,,,,,,,,,,,,,,,,,,,,,,,space,00105,23,2020-08-05_00h25.25.119,CDT_GNG_IUS12,2020.1.2,Win32,60,,,,,,,,,,,,,,,,0,1,,space,1,0.00211,0,15,15,23,1,,,,,,,,,,,,,,,,,,,,,,,,,,,,,,
,,,,,,,,,,,,,,,,,,,,,,,,,,,,,,,,,,,,,,,,,,,,,,,,,,,,,space,00105,23,2020-08-05_00h25.25.119,CDT_GNG_IUS12,2020.1.2,Win32,60,,,,,,,,,,,,,,,,0,1,,space,1,0.05081,0,16,16,18,1,,,,,,,,,,,,,,,,,,,,,,,,,,,,,,
,,,,,,,,,,,,,,,,,,,,,,,,,,,,,,,,,,,,,,,,,,,,,,,,,,,,,,00105,23,2020-08-05_00h25.25.119,CDT_GNG_IUS12,2020.1.2,Win32,60,,,,,,,,,,,,,,,,1,0,,space,0,0.068965,0,17,17,7,1,,,,,,,,,,,,,,,,,,,,,,,,,,,,,,
,,,,,,,,,,,,,,,,,,,,,,,,,,,,,,,,,,,,,,,,,,,,,,,,,,,,,space,00105,23,2020-08-05_00h25.25.119,CDT_GNG_IUS12,2020.1.2,Win32,60,,,,,,,,,,,,,,,,0,1,,space,1,0.114195,0,18,18,31,1,,,,,,,,,,,,,,,,,,,,,,,,,,,,,,
,,,,,,,,,,,,,,,,,,,,,,,,,,,,,,,,,,,,,,,,,,,,,,,,,,,,,,00105,23,2020-08-05_00h25.25.119,CDT_GNG_IUS12,2020.1.2,Win32,60,,,,,,,,,,,,,,,,1,0,,space,0,0.11308,0,19,19,3,1,,,,,,,,,,,,,,,,,,,,,,,,,,,,,,
,,,,,,,,,,,,,,,,,,,,,,,,,,,,,,,,,,,,,,,,,,,,,,,,,,,,,,00105,23,2020-08-05_00h25.25.119,CDT_GNG_IUS12,2020.1.2,Win32,60,,,,,,,,,,,,,,,,1,0,,space,0,0.05913,0,20,20,0,1,,,,,,,,,,,,,,,,,,,,,,,,,,,,,,
,,,,,,,,,,,,,,,,,,,,,,,,,,,,,,,,,,,,,,,,,,,,,,,,,,,,,space,00105,23,2020-08-05_00h25.25.119,CDT_GNG_IUS12,2020.1.2,Win32,60,,,,,,,,,,,,,,,,0,1,,space,1,0.09882,0,21,21,21,1,,,,,,,,,,,,,,,,,,,,,,,,,,,,,,
,,,,,,,,,,,,,,,,,,,,,,,,,,,,,,,,,,,,,,,,,,,,,,,,,,,,,space,00105,23,2020-08-05_00h25.25.119,CDT_GNG_IUS12,2020.1.2,Win32,60,,,,,,,,,,,,,,,,0,1,,space,1,0.066755,0,22,22,49,1,,,,,,,,,,,,,,,,,,,,,,,,,,,,,,
,,,,,,,,,,,,,,,,,,,,,,,,,,,,,,,,,,,,,,,,,,,,,,,,,,,,,,00105,23,2020-08-05_00h25.25.119,CDT_GNG_IUS12,2020.1.2,Win32,60,,,,,,,,,,,,,,,,1,0,,space,0,0.052845,0,23,23,2,1,,,,,,,,,,,,,,,,,,,,,,,,,,,,,,
,,,,,,,,,,,,,,,,,,,,,,,,,,,,,,,,,,,,,,,,,,,,,,,,,,,,,space,00105,23,2020-08-05_00h25.25.119,CDT_GNG_IUS12,2020.1.2,Win32,60,,,,,,,,,,,,,,,,0,1,,space,1,0.0978,0,24,24,37,1,,,,,,,,,,,,,,,,,,,,,,,,,,,,,,
,,,,,,,,,,,,,,,,,,,,,,,,,,,,,,,,,,,,,,,,,,,,,,,,,,,,,space,00105,23,2020-08-05_00h25.25.119,CDT_GNG_IUS12,2020.1.2,Win32,60,,,,,,,,,,,,,,,,0,1,,space,1,0.03475,0,25,25,15,1,,,,,,,,,,,,,,,,,,,,,,,,,,,,,,
,,,,,,,,,,,,,,,,,,,,,,,,,,,,,,,,,,,,,,,,,,,,,,,,,,,,,space,00105,23,2020-08-05_00h25.25.119,CDT_GNG_IUS12,2020.1.2,Win32,60,,,,,,,,,,,,,,,,0,1,,space,1,0.082455,0,26,26,47,1,,,,,,,,,,,,,,,,,,,,,,,,,,,,,,
,,,,,,,,,,,,,,,,,,,,,,,,,,,,,,,,,,,,,,,,,,,,,,,,,,,,,space,00105,23,2020-08-05_00h25.25.119,CDT_GNG_IUS12,2020.1.2,Win32,60,,,,,,,,,,,,,,,,0,1,,space,1,0.13017,0,27,27,42,1,,,,,,,,,,,,,,,,,,,,,,,,,,,,,,
,,,,,,,,,,,,,,,,,,,,,,,,,,,,,,,,,,,,,,,,,,,,,,,,,,,,,space,00105,23,2020-08-05_00h25.25.119,CDT_GNG_IUS12,2020.1.2,Win32,60,,,,,,,,,,,,,,,,0,1,,space,1,0.153215,0,28,28,41,1,,,,,,,,,,,,,,,,,,,,,,,,,,,,,,
,,,,,,,,,,,,,,,,,,,,,,,,,,,,,,,,,,,,,,,,,,,,,,,,,,,,,,00105,23,2020-08-05_00h25.25.119,CDT_GNG_IUS12,2020.1.2,Win32,60,,,,,,,,,,,,,,,,1,0,,space,0,0.11399,0,29,29,8,1,,,,,,,,,,,,,,,,,,,,,,,,,,,,,,
,,,,,,,,,,,,,,,,,,,,,,,,,,,,,,,,,,,,,,,,,,,,,,,,,,,,,space,00105,23,2020-08-05_00h25.25.119,CDT_GNG_IUS12,2020.1.2,Win32,60,,,,,,,,,,,,,,,,0,1,,space,1,0.11555,0,30,30,13,1,,,,,,,,,,,,,,,,,,,,,,,,,,,,,,
,,,,,,,,,,,,,,,,,,,,,,,,,,,,,,,,,,,,,,,,,,,,,,,,,,,,,space,00105,23,2020-08-05_00h25.25.119,CDT_GNG_IUS12,2020.1.2,Win32,60,,,,,,,,,,,,,,,,0,1,,space,1,0.11598,0,31,31,22,1,,,,,,,,,,,,,,,,,,,,,,,,,,,,,,
,,,,,,,,,,,,,,,,,,,,,,,,,,,,,,,,,,,,,,,,,,,,,,,,,,,,,space,00105,23,2020-08-05_00h25.25.119,CDT_GNG_IUS12,2020.1.2,Win32,60,,,,,,,,,,,,,,,,0,1,,space,1,0.136575,0,32,32,38,1,,,,,,,,,,,,,,,,,,,,,,,,,,,,,,
,,,,,,,,,,,,,,,,,,,,,,,,,,,,,,,,,,,,,,,,,,,,,,,,,,,,,space,00105,23,2020-08-05_00h25.25.119,CDT_GNG_IUS12,2020.1.2,Win32,60,,,,,,,,,,,,,,,,0,1,,space,1,0.12912,0,33,33,30,1,,,,,,,,,,,,,,,,,,,,,,,,,,,,,,
,,,,,,,,,,,,,,,,,,,,,,,,,,,,,,,,,,,,,,,,,,,,,,,,,,,,,space,00105,23,2020-08-05_00h25.25.119,CDT_GNG_IUS12,2020.1.2,Win32,60,,,,,,,,,,,,,,,,0,1,,space,1,0.078305,0,34,34,36,1,,,,,,,,,,,,,,,,,,,,,,,,,,,,,,
,,,,,,,,,,,,,,,,,,,,,,,,,,,,,,,,,,,,,,,,,,,,,,,,,,,,,,00105,23,2020-08-05_00h25.25.119,CDT_GNG_IUS12,2020.1.2,Win32,60,,,,,,,,,,,,,,,,1,0,,space,0,0.063985,0,35,35,9,1,,,,,,,,,,,,,,,,,,,,,,,,,,,,,,
,,,,,,,,,,,,,,,,,,,,,,,,,,,,,,,,,,,,,,,,,,,,,,,,,,,,,space,00105,23,2020-08-05_00h25.25.119,CDT_GNG_IUS12,2020.1.2,Win32,60,,,,,,,,,,,,,,,,0,1,,space,1,0.08674,0,36,36,45,1,,,,,,,,,,,,,,,,,,,,,,,,,,,,,,
,,,,,,,,,,,,,,,,,,,,,,,,,,,,,,,,,,,,,,,,,,,,,,,,,,,,,space,00105,23,2020-08-05_00h25.25.119,CDT_GNG_IUS12,2020.1.2,Win32,60,,,,,,,,,,,,,,,,0,1,,space,1,0.01498,0,37,37,43,1,,,,,,,,,,,,,,,,,,,,,,,,,,,,,,
,,,,,,,,,,,,,,,,,,,,,,,,,,,,,,,,,,,,,,,,,,,,,,,,,,,,,space,00105,23,2020-08-05_00h25.25.119,CDT_GNG_IUS12,2020.1.2,Win32,60,,,,,,,,,,,,,,,,0,1,,space,1,0.04705,0,38,38,48,1,,,,,,,,,,,,,,,,,,,,,,,,,,,,,,
,,,,,,,,,,,,,,,,,,,,,,,,,,,,,,,,,,,,,,,,,,,,,,,,,,,,,space,00105,23,2020-08-05_00h25.25.119,CDT_GNG_IUS12,2020.1.2,Win32,60,,,,,,,,,,,,,,,,0,1,,space,1,0.00093,0,39,39,32,1,,,,,,,,,,,,,,,,,,,,,,,,,,,,,,
,,,,,,,,,,,,,,,,,,,,,,,,,,,,,,,,,,,,,,,,,,,,,,,,,,,,,space,00105,23,2020-08-05_00h25.25.119,CDT_GNG_IUS12,2020.1.2,Win32,60,,,,,,,,,,,,,,,,0,1,,space,1,0.004775,0,40,40,39,1,,,,,,,,,,,,,,,,,,,,,,,,,,,,,,
,,,,,,,,,,,,,,,,,,,,,,,,,,,,,,,,,,,,,,,,,,,,,,,,,,,,,space,00105,23,2020-08-05_00h25.25.119,CDT_GNG_IUS12,2020.1.2,Win32,60,,,,,,,,,,,,,,,,0,1,,space,1,0.52969,0,41,41,14,1,,,,,,,,,,,,,,,,,,,,,,,,,,,,,,
,,,,,,,,,,,,,,,,,,,,,,,,,,,,,,,,,,,,,,,,,,,,,,,,,,,,,space,00105,23,2020-08-05_00h25.25.119,CDT_GNG_IUS12,2020.1.2,Win32,60,,,,,,,,,,,,,,,,0,1,,space,1,0.51698,0,42,42,19,1,,,,,,,,,,,,,,,,,,,,,,,,,,,,,,
,,,,,,,,,,,,,,,,,,,,,,,,,,,,,,,,,,,,,,,,,,,,,,,,,,,,,space,00105,23,2020-08-05_00h25.25.119,CDT_GNG_IUS12,2020.1.2,Win32,60,,,,,,,,,,,,,,,,0,1,,space,1,0.536255,0,43,43,33,1,,,,,,,,,,,,,,,,,,,,,,,,,,,,,,
,,,,,,,,,,,,,,,,,,,,,,,,,,,,,,,,,,,,,,,,,,,,,,,,,,,,,space,00105,23,2020-08-05_00h25.25.119,CDT_GNG_IUS12,2020.1.2,Win32,60,,,,,,,,,,,,,,,,0,1,,space,1,0.47606,0,44,44,25,1,,,,,,,,,,,,,,,,,,,,,,,,,,,,,,
,,,,,,,,,,,,,,,,,,,,,,,,,,,,,,,,,,,,,,,,,,,,,,,,,,,,,,00105,23,2020-08-05_00h25.25.119,CDT_GNG_IUS12,2020.1.2,Win32,60,,,,,,,,,,,,,,,,1,0,,,1,,0,45,45,1,1,,,,,,,,,,,,,,,,,,,,,,,,,,,,,,
,,,,,,,,,,,,,,,,,,,,,,,,,,,,,,,,,,,,,,,,,,,,,,,,,,,,,space,00105,23,2020-08-05_00h25.25.119,CDT_GNG_IUS12,2020.1.2,Win32,60,,,,,,,,,,,,,,,,0,1,,space,1,0.11641,0,46,46,34,1,,,,,,,,,,,,,,,,,,,,,,,,,,,,,,
,,,,,,,,,,,,,,,,,,,,,,,,,,,,,,,,,,,,,,,,,,,,,,,,,,,,,space,00105,23,2020-08-05_00h25.25.119,CDT_GNG_IUS12,2020.1.2,Win32,60,,,,,,,,,,,,,,,,0,1,,space,1,0.080945,0,47,47,20,1,,,,,,,,,,,,,,,,,,,,,,,,,,,,,,
,,,,,,,,,,,,,,,,,,,,,,,,,,,,,,,,,,,,,,,,,,,,,,,,,,,,,space,00105,23,2020-08-05_00h25.25.119,CDT_GNG_IUS12,2020.1.2,Win32,60,,,,,,,,,,,,,,,,0,1,,space,1,0.17809,0,48,48,29,1,,,,,,,,,,,,,,,,,,,,,,,,,,,,,,
,,,,,,,,,,,,,,,,,,,,,,,,,,,,,,,,,,,,,,,,,,,,,,,,,,,,,space,00105,23,2020-08-05_00h25.25.119,CDT_GNG_IUS12,2020.1.2,Win32,60,,,,,,,,,,,,,,,,0,1,,space,1,0.09518,0,49,49,27,1,,,,,,,,,,,,,,,,,,,,,,,,,,,,,,
,,,,,,,,,,,,,,,,,,,,,,,,,,,,,,,,,,,,,,,,,,,,,,,,,,,,,space,00105,23,2020-08-05_00h25.25.119,CDT_GNG_IUS12,2020.1.2,Win32,60,,,,,,,,,,,,,,,,0,1,,space,1,0.202955,,,,,,0,0,0,26,1,,,,,,,,,,,,,,,,,,,,,,,,,
,,,,,,,,,,,,,,,,,,,,,,,,,,,,,,,,,,,,,,,,,,,,,,,,,,,,,space,00105,23,2020-08-05_00h25.25.119,CDT_GNG_IUS12,2020.1.2,Win32,60,,,,,,,,,,,,,,,,0,1,,space,1,0.165445,,,,,,0,1,1,38,1,,,,,,,,,,,,,,,,,,,,,,,,,
,,,,,,,,,,,,,,,,,,,,,,,,,,,,,,,,,,,,,,,,,,,,,,,,,,,,,space,00105,23,2020-08-05_00h25.25.119,CDT_GNG_IUS12,2020.1.2,Win32,60,,,,,,,,,,,,,,,,0,1,,space,1,0.210015,,,,,,0,2,2,37,1,,,,,,,,,,,,,,,,,,,,,,,,,
,,,,,,,,,,,,,,,,,,,,,,,,,,,,,,,,,,,,,,,,,,,,,,,,,,,,,space,00105,23,2020-08-05_00h25.25.119,CDT_GNG_IUS12,2020.1.2,Win32,60,,,,,,,,,,,,,,,,0,1,,space,1,0.17687,,,,,,0,3,3,12,1,,,,,,,,,,,,,,,,,,,,,,,,,
,,,,,,,,,,,,,,,,,,,,,,,,,,,,,,,,,,,,,,,,,,,,,,,,,,,,,space,00105,23,2020-08-05_00h25.25.119,CDT_GNG_IUS12,2020.1.2,Win32,60,,,,,,,,,,,,,,,,0,1,,space,1,0.18926,,,,,,0,4,4,39,1,,,,,,,,,,,,,,,,,,,,,,,,,
,,,,,,,,,,,,,,,,,,,,,,,,,,,,,,,,,,,,,,,,,,,,,,,,,,,,,space,00105,23,2020-08-05_00h25.25.119,CDT_GNG_IUS12,2020.1.2,Win32,60,,,,,,,,,,,,,,,,0,1,,space,1,0.199285,,,,,,0,5,5,48,1,,,,,,,,,,,,,,,,,,,,,,,,,
,,,,,,,,,,,,,,,,,,,,,,,,,,,,,,,,,,,,,,,,,,,,,,,,,,,,,space,00105,23,2020-08-05_00h25.25.119,CDT_GNG_IUS12,2020.1.2,Win32,60,,,,,,,,,,,,,,,,0,1,,space,1,0.22583,,,,,,0,6,6,14,1,,,,,,,,,,,,,,,,,,,,,,,,,
,,,,,,,,,,,,,,,,,,,,,,,,,,,,,,,,,,,,,,,,,,,,,,,,,,,,,space,00105,23,2020-08-05_00h25.25.119,CDT_GNG_IUS12,2020.1.2,Win32,60,,,,,,,,,,,,,,,,0,1,,space,1,0.192835,,,,,,0,7,7,10,1,,,,,,,,,,,,,,,,,,,,,,,,,
,,,,,,,,,,,,,,,,,,,,,,,,,,,,,,,,,,,,,,,,,,,,,,,,,,,,,space,00105,23,2020-08-05_00h25.25.119,CDT_GNG_IUS12,2020.1.2,Win32,60,,,,,,,,,,,,,,,,0,1,,space,1,0.173355,,,,,,0,8,8,43,1,,,,,,,,,,,,,,,,,,,,,,,,,
,,,,,,,,,,,,,,,,,,,,,,,,,,,,,,,,,,,,,,,,,,,,,,,,,,,,,space,00105,23,2020-08-05_00h25.25.119,CDT_GNG_IUS12,2020.1.2,Win32,60,,,,,,,,,,,,,,,,0,1,,space,1,0.15717,,,,,,0,9,9,34,1,,,,,,,,,,,,,,,,,,,,,,,,,
,,,,,,,,,,,,,,,,,,,,,,,,,,,,,,,,,,,,,,,,,,,,,,,,,,,,,,00105,23,2020-08-05_00h25.25.119,CDT_GNG_IUS12,2020.1.2,Win32,60,,,,,,,,,,,,,,,,1,0,,space,0,0.17106,,,,,,0,10,10,3,1,,,,,,,,,,,,,,,,,,,,,,,,,
,,,,,,,,,,,,,,,,,,,,,,,,,,,,,,,,,,,,,,,,,,,,,,,,,,,,,space,00105,23,2020-08-05_00h25.25.119,CDT_GNG_IUS12,2020.1.2,Win32,60,,,,,,,,,,,,,,,,0,1,,space,1,0.1319,,,,,,0,11,11,24,1,,,,,,,,,,,,,,,,,,,,,,,,,
,,,,,,,,,,,,,,,,,,,,,,,,,,,,,,,,,,,,,,,,,,,,,,,,,,,,,space,00105,23,2020-08-05_00h25.25.119,CDT_GNG_IUS12,2020.1.2,Win32,60,,,,,,,,,,,,,,,,0,1,,space,1,0.099845,,,,,,0,12,12,23,1,,,,,,,,,,,,,,,,,,,,,,,,,
,,,,,,,,,,,,,,,,,,,,,,,,,,,,,,,,,,,,,,,,,,,,,,,,,,,,,space,00105,23,2020-08-05_00h25.25.119,CDT_GNG_IUS12,2020.1.2,Win32,60,,,,,,,,,,,,,,,,0,1,,space,1,0.0932,,,,,,0,13,13,45,1,,,,,,,,,,,,,,,,,,,,,,,,,
,,,,,,,,,,,,,,,,,,,,,,,,,,,,,,,,,,,,,,,,,,,,,,,,,,,,,space,00105,23,2020-08-05_00h25.25.119,CDT_GNG_IUS12,2020.1.2,Win32,60,,,,,,,,,,,,,,,,0,1,,space,1,0.03875,,,,,,0,14,14,28,1,,,,,,,,,,,,,,,,,,,,,,,,,
,,,,,,,,,,,,,,,,,,,,,,,,,,,,,,,,,,,,,,,,,,,,,,,,,,,,,space,00105,23,2020-08-05_00h25.25.119,CDT_GNG_IUS12,2020.1.2,Win32,60,,,,,,,,,,,,,,,,0,1,,space,1,0.01495,,,,,,0,15,15,40,1,,,,,,,,,,,,,,,,,,,,,,,,,
,,,,,,,,,,,,,,,,,,,,,,,,,,,,,,,,,,,,,,,,,,,,,,,,,,,,,space,00105,23,2020-08-05_00h25.25.119,CDT_GNG_IUS12,2020.1.2,Win32,60,,,,,,,,,,,,,,,,0,1,,space,1,0.458265,,,,,,0,16,16,32,1,,,,,,,,,,,,,,,,,,,,,,,,,
,,,,,,,,,,,,,,,,,,,,,,,,,,,,,,,,,,,,,,,,,,,,,,,,,,,,,space,00105,23,2020-08-05_00h25.25.119,CDT_GNG_IUS12,2020.1.2,Win32,60,,,,,,,,,,,,,,,,0,1,,space,1,0.425945,,,,,,0,17,17,27,1,,,,,,,,,,,,,,,,,,,,,,,,,
,,,,,,,,,,,,,,,,,,,,,,,,,,,,,,,,,,,,,,,,,,,,,,,,,,,,,,00105,23,2020-08-05_00h25.25.119,CDT_GNG_IUS12,2020.1.2,Win32,60,,,,,,,,,,,,,,,,1,0,,space,0,0.3741,,,,,,0,18,18,1,1,,,,,,,,,,,,,,,,,,,,,,,,,
,,,,,,,,,,,,,,,,,,,,,,,,,,,,,,,,,,,,,,,,,,,,,,,,,,,,,space,00105,23,2020-08-05_00h25.25.119,CDT_GNG_IUS12,2020.1.2,Win32,60,,,,,,,,,,,,,,,,0,1,,space,1,0.35099,,,,,,0,19,19,22,1,,,,,,,,,,,,,,,,,,,,,,,,,
,,,,,,,,,,,,,,,,,,,,,,,,,,,,,,,,,,,,,,,,,,,,,,,,,,,,,space,00105,23,2020-08-05_00h25.25.119,CDT_GNG_IUS12,2020.1.2,Win32,60,,,,,,,,,,,,,,,,0,1,,space,1,0.291285,,,,,,0,20,20,46,1,,,,,,,,,,,,,,,,,,,,,,,,,
,,,,,,,,,,,,,,,,,,,,,,,,,,,,,,,,,,,,,,,,,,,,,,,,,,,,,,00105,23,2020-08-05_00h25.25.119,CDT_GNG_IUS12,2020.1.2,Win32,60,,,,,,,,,,,,,,,,1,0,,space,0,0.2495,,,,,,0,21,21,4,1,,,,,,,,,,,,,,,,,,,,,,,,,
,,,,,,,,,,,,,,,,,,,,,,,,,,,,,,,,,,,,,,,,,,,,,,,,,,,,,space,00105,23,2020-08-05_00h25.25.119,CDT_GNG_IUS12,2020.1.2,Win32,60,,,,,,,,,,,,,,,,0,1,,space,1,0.234945,,,,,,0,22,22,35,1,,,,,,,,,,,,,,,,,,,,,,,,,
,,,,,,,,,,,,,,,,,,,,,,,,,,,,,,,,,,,,,,,,,,,,,,,,,,,,,space,00105,23,2020-08-05_00h25.25.119,CDT_GNG_IUS12,2020.1.2,Win32,60,,,,,,,,,,,,,,,,0,1,,space,1,0.21628,,,,,,0,23,23,33,1,,,,,,,,,,,,,,,,,,,,,,,,,
,,,,,,,,,,,,,,,,,,,,,,,,,,,,,,,,,,,,,,,,,,,,,,,,,,,,,space,00105,23,2020-08-05_00h25.25.119,CDT_GNG_IUS12,2020.1.2,Win32,60,,,,,,,,,,,,,,,,0,1,,space,1,0.17041,,,,,,0,24,24,21,1,,,,,,,,,,,,,,,,,,,,,,,,,
,,,,,,,,,,,,,,,,,,,,,,,,,,,,,,,,,,,,,,,,,,,,,,,,,,,,,space,00105,23,2020-08-05_00h25.25.119,CDT_GNG_IUS12,2020.1.2,Win32,60,,,,,,,,,,,,,,,,0,1,,space,1,0.162005,,,,,,0,25,25,19,1,,,,,,,,,,,,,,,,,,,,,,,,,
,,,,,,,,,,,,,,,,,,,,,,,,,,,,,,,,,,,,,,,,,,,,,,,,,,,,,space,00105,23,2020-08-05_00h25.25.119,CDT_GNG_IUS12,2020.1.2,Win32,60,,,,,,,,,,,,,,,,0,1,,space,1,0.15017,,,,,,0,26,26,11,1,,,,,,,,,,,,,,,,,,,,,,,,,
,,,,,,,,,,,,,,,,,,,,,,,,,,,,,,,,,,,,,,,,,,,,,,,,,,,,,,00105,23,2020-08-05_00h25.25.119,CDT_GNG_IUS12,2020.1.2,Win32,60,,,,,,,,,,,,,,,,1,0,,space,0,0.108315,,,,,,0,27,27,7,1,,,,,,,,,,,,,,,,,,,,,,,,,
,,,,,,,,,,,,,,,,,,,,,,,,,,,,,,,,,,,,,,,,,,,,,,,,,,,,,space,00105,23,2020-08-05_00h25.25.119,CDT_GNG_IUS12,2020.1.2,Win32,60,,,,,,,,,,,,,,,,0,1,,space,1,0.105205,,,,,,0,28,28,30,1,,,,,,,,,,,,,,,,,,,,,,,,,
,,,,,,,,,,,,,,,,,,,,,,,,,,,,,,,,,,,,,,,,,,,,,,,,,,,,,space,00105,23,2020-08-05_00h25.25.119,CDT_GNG_IUS12,2020.1.2,Win32,60,,,,,,,,,,,,,,,,0,1,,space,1,0.0615,,,,,,0,29,29,31,1,,,,,,,,,,,,,,,,,,,,,,,,,
,,,,,,,,,,,,,,,,,,,,,,,,,,,,,,,,,,,,,,,,,,,,,,,,,,,,,space,00105,23,2020-08-05_00h25.25.119,CDT_GNG_IUS12,2020.1.2,Win32,60,,,,,,,,,,,,,,,,0,1,,,0,,,,,,,0,30,30,29,1,,,,,,,,,,,,,,,,,,,,,,,,,
,,,,,,,,,,,,,,,,,,,,,,,,,,,,,,,,,,,,,,,,,,,,,,,,,,,,,space,00105,23,2020-08-05_00h25.25.119,CDT_GNG_IUS12,2020.1.2,Win32,60,,,,,,,,,,,,,,,,0,1,,space,1,0.001025,,,,,,0,31,31,15,1,,,,,,,,,,,,,,,,,,,,,,,,,
,,,,,,,,,,,,,,,,,,,,,,,,,,,,,,,,,,,,,,,,,,,,,,,,,,,,,space,00105,23,2020-08-05_00h25.25.119,CDT_GNG_IUS12,2020.1.2,Win32,60,,,,,,,,,,,,,,,,0,1,,space,1,0.56249,,,,,,0,32,32,20,1,,,,,,,,,,,,,,,,,,,,,,,,,
,,,,,,,,,,,,,,,,,,,,,,,,,,,,,,,,,,,,,,,,,,,,,,,,,,,,,space,00105,23,2020-08-05_00h25.25.119,CDT_GNG_IUS12,2020.1.2,Win32,60,,,,,,,,,,,,,,,,0,1,,space,1,0.483225,,,,,,0,33,33,17,1,,,,,,,,,,,,,,,,,,,,,,,,,
,,,,,,,,,,,,,,,,,,,,,,,,,,,,,,,,,,,,,,,,,,,,,,,,,,,,,space,00105,23,2020-08-05_00h25.25.119,CDT_GNG_IUS12,2020.1.2,Win32,60,,,,,,,,,,,,,,,,0,1,,space,1,0.426595,,,,,,0,34,34,44,1,,,,,,,,,,,,,,,,,,,,,,,,,
,,,,,,,,,,,,,,,,,,,,,,,,,,,,,,,,,,,,,,,,,,,,,,,,,,,,,space,00105,23,2020-08-05_00h25.25.119,CDT_GNG_IUS12,2020.1.2,Win32,60,,,,,,,,,,,,,,,,0,1,,space,1,0.40465,,,,,,0,35,35,49,1,,,,,,,,,,,,,,,,,,,,,,,,,
,,,,,,,,,,,,,,,,,,,,,,,,,,,,,,,,,,,,,,,,,,,,,,,,,,,,,,00105,23,2020-08-05_00h25.25.119,CDT_GNG_IUS12,2020.1.2,Win32,60,,,,,,,,,,,,,,,,1,0,,space,0,0.403765,,,,,,0,36,36,0,1,,,,,,,,,,,,,,,,,,,,,,,,,
,,,,,,,,,,,,,,,,,,,,,,,,,,,,,,,,,,,,,,,,,,,,,,,,,,,,,space,00105,23,2020-08-05_00h25.25.119,CDT_GNG_IUS12,2020.1.2,Win32,60,,,,,,,,,,,,,,,,0,1,,space,1,0.38617,,,,,,0,37,37,25,1,,,,,,,,,,,,,,,,,,,,,,,,,
,,,,,,,,,,,,,,,,,,,,,,,,,,,,,,,,,,,,,,,,,,,,,,,,,,,,,space,00105,23,2020-08-05_00h25.25.119,CDT_GNG_IUS12,2020.1.2,Win32,60,,,,,,,,,,,,,,,,0,1,,space,1,0.32265,,,,,,0,38,38,16,1,,,,,,,,,,,,,,,,,,,,,,,,,
,,,,,,,,,,,,,,,,,,,,,,,,,,,,,,,,,,,,,,,,,,,,,,,,,,,,,,00105,23,2020-08-05_00h25.25.119,CDT_GNG_IUS12,2020.1.2,Win32,60,,,,,,,,,,,,,,,,1,0,,space,0,0.278585,,,,,,0,39,39,6,1,,,,,,,,,,,,,,,,,,,,,,,,,
,,,,,,,,,,,,,,,,,,,,,,,,,,,,,,,,,,,,,,,,,,,,,,,,,,,,,space,00105,23,2020-08-05_00h25.25.119,CDT_GNG_IUS12,2020.1.2,Win32,60,,,,,,,,,,,,,,,,0,1,,space,1,0.24323,,,,,,0,40,40,42,1,,,,,,,,,,,,,,,,,,,,,,,,,
,,,,,,,,,,,,,,,,,,,,,,,,,,,,,,,,,,,,,,,,,,,,,,,,,,,,,space,00105,23,2020-08-05_00h25.25.119,CDT_GNG_IUS12,2020.1.2,Win32,60,,,,,,,,,,,,,,,,0,1,,space,1,0.217885,,,,,,0,41,41,18,1,,,,,,,,,,,,,,,,,,,,,,,,,
,,,,,,,,,,,,,,,,,,,,,,,,,,,,,,,,,,,,,,,,,,,,,,,,,,,,,,00105,23,2020-08-05_00h25.25.119,CDT_GNG_IUS12,2020.1.2,Win32,60,,,,,,,,,,,,,,,,1,0,,space,0,0.216715,,,,,,0,42,42,2,1,,,,,,,,,,,,,,,,,,,,,,,,,
,,,,,,,,,,,,,,,,,,,,,,,,,,,,,,,,,,,,,,,,,,,,,,,,,,,,,,00105,23,2020-08-05_00h25.25.119,CDT_GNG_IUS12,2020.1.2,Win32,60,,,,,,,,,,,,,,,,1,0,,space,0,0.189825,,,,,,0,43,43,5,1,,,,,,,,,,,,,,,,,,,,,,,,,
,,,,,,,,,,,,,,,,,,,,,,,,,,,,,,,,,,,,,,,,,,,,,,,,,,,,,,00105,23,2020-08-05_00h25.25.119,CDT_GNG_IUS12,2020.1.2,Win32,60,,,,,,,,,,,,,,,,1,0,,space,0,0.132155,,,,,,0,44,44,9,1,,,,,,,,,,,,,,,,,,,,,,,,,
,,,,,,,,,,,,,,,,,,,,,,,,,,,,,,,,,,,,,,,,,,,,,,,,,,,,,space,00105,23,2020-08-05_00h25.25.119,CDT_GNG_IUS12,2020.1.2,Win32,60,,,,,,,,,,,,,,,,0,1,,space,1,0.08337,,,,,,0,45,45,47,1,,,,,,,,,,,,,,,,,,,,,,,,,
,,,,,,,,,,,,,,,,,,,,,,,,,,,,,,,,,,,,,,,,,,,,,,,,,,,,,,00105,23,2020-08-05_00h25.25.119,CDT_GNG_IUS12,2020.1.2,Win32,60,,,,,,,,,,,,,,,,1,0,,space,0,0.56459,,,,,,0,46,46,8,1,,,,,,,,,,,,,,,,,,,,,,,,,
,,,,,,,,,,,,,,,,,,,,,,,,,,,,,,,,,,,,,,,,,,,,,,,,,,,,,space,00105,23,2020-08-05_00h25.25.119,CDT_GNG_IUS12,2020.1.2,Win32,60,,,,,,,,,,,,,,,,0,1,,space,1,0.5189,,,,,,0,47,47,41,1,,,,,,,,,,,,,,,,,,,,,,,,,
,,,,,,,,,,,,,,,,,,,,,,,,,,,,,,,,,,,,,,,,,,,,,,,,,,,,,space,00105,23,2020-08-05_00h25.25.119,CDT_GNG_IUS12,2020.1.2,Win32,60,,,,,,,,,,,,,,,,0,1,,space,1,0.45416,,,,,,0,48,48,36,1,,,,,,,,,,,,,,,,,,,,,,,,,
,,,,,,,,,,,,,,,,,,,,,,,,,,,,,,,,,,,,,,,,,,,,,,,,,,,,,space,00105,23,2020-08-05_00h25.25.119,CDT_GNG_IUS12,2020.1.2,Win32,60,,,,,,,,,,,,,,,,0,1,,space,1,0.47111,,,,,,0,49,49,13,1,,,,,,,,,,,,,,,,,,,,,,,,,
,,,,,,,,,,,,,,,,,,,,,,,,,,,,,,,,,,,,,,,,,,,,,,,,,,,,,space,00105,23,2020-08-05_00h25.25.119,CDT_GNG_IUS12,2020.1.2,Win32,60,,,,,,,,,,,,,,,,0,1,,space,1,0.56418,,,,,,,,,,,0,0,0,39,1,,,,,,,,,,,,,,,,,,,,
,,,,,,,,,,,,,,,,,,,,,,,,,,,,,,,,,,,,,,,,,,,,,,,,,,,,,,00105,23,2020-08-05_00h25.25.119,CDT_GNG_IUS12,2020.1.2,Win32,60,,,,,,,,,,,,,,,,1,0,,,1,,,,,,,,,,,,0,1,1,9,1,,,,,,,,,,,,,,,,,,,,
,,,,,,,,,,,,,,,,,,,,,,,,,,,,,,,,,,,,,,,,,,,,,,,,,,,,,,00105,23,2020-08-05_00h25.25.119,CDT_GNG_IUS12,2020.1.2,Win32,60,,,,,,,,,,,,,,,,1,0,,space,0,0.008795,,,,,,,,,,,0,2,2,3,1,,,,,,,,,,,,,,,,,,,,
,,,,,,,,,,,,,,,,,,,,,,,,,,,,,,,,,,,,,,,,,,,,,,,,,,,,,space,00105,23,2020-08-05_00h25.25.119,CDT_GNG_IUS12,2020.1.2,Win32,60,,,,,,,,,,,,,,,,0,1,,space,1,0.556505,,,,,,,,,,,0,3,3,43,1,,,,,,,,,,,,,,,,,,,,
,,,,,,,,,,,,,,,,,,,,,,,,,,,,,,,,,,,,,,,,,,,,,,,,,,,,,space,00105,23,2020-08-05_00h25.25.119,CDT_GNG_IUS12,2020.1.2,Win32,60,,,,,,,,,,,,,,,,0,1,,space,1,0.52025,,,,,,,,,,,0,4,4,36,1,,,,,,,,,,,,,,,,,,,,
,,,,,,,,,,,,,,,,,,,,,,,,,,,,,,,,,,,,,,,,,,,,,,,,,,,,,space,00105,23,2020-08-05_00h25.25.119,CDT_GNG_IUS12,2020.1.2,Win32,60,,,,,,,,,,,,,,,,0,1,,space,1,0.484495,,,,,,,,,,,0,5,5,47,1,,,,,,,,,,,,,,,,,,,,
,,,,,,,,,,,,,,,,,,,,,,,,,,,,,,,,,,,,,,,,,,,,,,,,,,,,,space,00105,23,2020-08-05_00h25.25.119,CDT_GNG_IUS12,2020.1.2,Win32,60,,,,,,,,,,,,,,,,0,1,,space,1,0.44281,,,,,,,,,,,0,6,6,27,1,,,,,,,,,,,,,,,,,,,,
,,,,,,,,,,,,,,,,,,,,,,,,,,,,,,,,,,,,,,,,,,,,,,,,,,,,,,00105,23,2020-08-05_00h25.25.119,CDT_GNG_IUS12,2020.1.2,Win32,60,,,,,,,,,,,,,,,,1,0,,space,0,0.44823,,,,,,,,,,,0,7,7,0,1,,,,,,,,,,,,,,,,,,,,
,,,,,,,,,,,,,,,,,,,,,,,,,,,,,,,,,,,,,,,,,,,,,,,,,,,,,,00105,23,2020-08-05_00h25.25.119,CDT_GNG_IUS12,2020.1.2,Win32,60,,,,,,,,,,,,,,,,1,0,,space,0,0.417535,,,,,,,,,,,0,8,8,1,1,,,,,,,,,,,,,,,,,,,,
,,,,,,,,,,,,,,,,,,,,,,,,,,,,,,,,,,,,,,,,,,,,,,,,,,,,,space,00105,23,2020-08-05_00h25.25.119,CDT_GNG_IUS12,2020.1.2,Win32,60,,,,,,,,,,,,,,,,0,1,,space,1,0.363345,,,,,,,,,,,0,9,9,35,1,,,,,,,,,,,,,,,,,,,,
,,,,,,,,,,,,,,,,,,,,,,,,,,,,,,,,,,,,,,,,,,,,,,,,,,,,,space,00105,23,2020-08-05_00h25.25.119,CDT_GNG_IUS12,2020.1.2,Win32,60,,,,,,,,,,,,,,,,0,1,,space,1,0.358725,,,,,,,,,,,0,10,10,41,1,,,,,,,,,,,,,,,,,,,,
,,,,,,,,,,,,,,,,,,,,,,,,,,,,,,,,,,,,,,,,,,,,,,,,,,,,,,00105,23,2020-08-05_00h25.25.119,CDT_GNG_IUS12,2020.1.2,Win32,60,,,,,,,,,,,,,,,,1,0,,space,0,0.28985,,,,,,,,,,,0,11,11,2,1,,,,,,,,,,,,,,,,,,,,
,,,,,,,,,,,,,,,,,,,,,,,,,,,,,,,,,,,,,,,,,,,,,,,,,,,,,space,00105,23,2020-08-05_00h25.25.119,CDT_GNG_IUS12,2020.1.2,Win32,60,,,,,,,,,,,,,,,,0,1,,space,1,0.26232,,,,,,,,,,,0,12,12,13,1,,,,,,,,,,,,,,,,,,,,
,,,,,,,,,,,,,,,,,,,,,,,,,,,,,,,,,,,,,,,,,,,,,,,,,,,,,space,00105,23,2020-08-05_00h25.25.119,CDT_GNG_IUS12,2020.1.2,Win32,60,,,,,,,,,,,,,,,,0,1,,space,1,0.2497,,,,,,,,,,,0,13,13,49,1,,,,,,,,,,,,,,,,,,,,
,,,,,,,,,,,,,,,,,,,,,,,,,,,,,,,,,,,,,,,,,,,,,,,,,,,,,,00105,23,2020-08-05_00h25.25.119,CDT_GNG_IUS12,2020.1.2,Win32,60,,,,,,,,,,,,,,,,1,0,,space,0,0.17359,,,,,,,,,,,0,14,14,6,1,,,,,,,,,,,,,,,,,,,,
,,,,,,,,,,,,,,,,,,,,,,,,,,,,,,,,,,,,,,,,,,,,,,,,,,,,,space,00105,23,2020-08-05_00h25.25.119,CDT_GNG_IUS12,2020.1.2,Win32,60,,,,,,,,,,,,,,,,0,1,,space,1,0.10534,,,,,,,,,,,0,15,15,22,1,,,,,,,,,,,,,,,,,,,,
,,,,,,,,,,,,,,,,,,,,,,,,,,,,,,,,,,,,,,,,,,,,,,,,,,,,,space,00105,23,2020-08-05_00h25.25.119,CDT_GNG_IUS12,2020.1.2,Win32,60,,,,,,,,,,,,,,,,0,1,,space,1,0.087405,,,,,,,,,,,0,16,16,19,1,,,,,,,,,,,,,,,,,,,,
,,,,,,,,,,,,,,,,,,,,,,,,,,,,,,,,,,,,,,,,,,,,,,,,,,,,,,00105,23,2020-08-05_00h25.25.119,CDT_GNG_IUS12,2020.1.2,Win32,60,,,,,,,,,,,,,,,,1,0,,space,0,0.070215,,,,,,,,,,,0,17,17,7,1,,,,,,,,,,,,,,,,,,,,
,,,,,,,,,,,,,,,,,,,,,,,,,,,,,,,,,,,,,,,,,,,,,,,,,,,,,space,00105,23,2020-08-05_00h25.25.119,CDT_GNG_IUS12,2020.1.2,Win32,60,,,,,,,,,,,,,,,,0,1,,space,1,0.03104,,,,,,,,,,,0,18,18,40,1,,,,,,,,,,,,,,,,,,,,
,,,,,,,,,,,,,,,,,,,,,,,,,,,,,,,,,,,,,,,,,,,,,,,,,,,,,space,00105,23,2020-08-05_00h25.25.119,CDT_GNG_IUS12,2020.1.2,Win32,60,,,,,,,,,,,,,,,,0,1,,space,1,0.03842,,,,,,,,,,,0,19,19,44,1,,,,,,,,,,,,,,,,,,,,
,,,,,,,,,,,,,,,,,,,,,,,,,,,,,,,,,,,,,,,,,,,,,,,,,,,,,space,00105,23,2020-08-05_00h25.25.119,CDT_GNG_IUS12,2020.1.2,Win32,60,,,,,,,,,,,,,,,,0,1,,space,1,0.023835,,,,,,,,,,,0,20,20,38,1,,,,,,,,,,,,,,,,,,,,
,,,,,,,,,,,,,,,,,,,,,,,,,,,,,,,,,,,,,,,,,,,,,,,,,,,,,,00105,23,2020-08-05_00h25.25.119,CDT_GNG_IUS12,2020.1.2,Win32,60,,,,,,,,,,,,,,,,1,0,,space,0,0.55655,,,,,,,,,,,0,21,21,8,1,,,,,,,,,,,,,,,,,,,,
,,,,,,,,,,,,,,,,,,,,,,,,,,,,,,,,,,,,,,,,,,,,,,,,,,,,,space,00105,23,2020-08-05_00h25.25.119,CDT_GNG_IUS12,2020.1.2,Win32,60,,,,,,,,,,,,,,,,0,1,,space,1,0.51054,,,,,,,,,,,0,22,22,37,1,,,,,,,,,,,,,,,,,,,,
,,,,,,,,,,,,,,,,,,,,,,,,,,,,,,,,,,,,,,,,,,,,,,,,,,,,,space,00105,23,2020-08-05_00h25.25.119,CDT_GNG_IUS12,2020.1.2,Win32,60,,,,,,,,,,,,,,,,0,1,,space,1,0.548565,,,,,,,,,,,0,23,23,45,1,,,,,,,,,,,,,,,,,,,,
,,,,,,,,,,,,,,,,,,,,,,,,,,,,,,,,,,,,,,,,,,,,,,,,,,,,,space,00105,23,2020-08-05_00h25.25.119,CDT_GNG_IUS12,2020.1.2,Win32,60,,,,,,,,,,,,,,,,0,1,,space,1,0.47287,,,,,,,,,,,0,24,24,32,1,,,,,,,,,,,,,,,,,,,,
,,,,,,,,,,,,,,,,,,,,,,,,,,,,,,,,,,,,,,,,,,,,,,,,,,,,,space,00105,23,2020-08-05_00h25.25.119,CDT_GNG_IUS12,2020.1.2,Win32,60,,,,,,,,,,,,,,,,0,1,,space,1,0.4354,,,,,,,,,,,0,25,25,26,1,,,,,,,,,,,,,,,,,,,,
,,,,,,,,,,,,,,,,,,,,,,,,,,,,,,,,,,,,,,,,,,,,,,,,,,,,,space,00105,23,2020-08-05_00h25.25.119,CDT_GNG_IUS12,2020.1.2,Win32,60,,,,,,,,,,,,,,,,0,1,,space,1,0.38757,,,,,,,,,,,0,26,26,10,1,,,,,,,,,,,,,,,,,,,,
,,,,,,,,,,,,,,,,,,,,,,,,,,,,,,,,,,,,,,,,,,,,,,,,,,,,,space,00105,23,2020-08-05_00h25.25.119,CDT_GNG_IUS12,2020.1.2,Win32,60,,,,,,,,,,,,,,,,0,1,,space,1,0.34331,,,,,,,,,,,0,27,27,11,1,,,,,,,,,,,,,,,,,,,,
,,,,,,,,,,,,,,,,,,,,,,,,,,,,,,,,,,,,,,,,,,,,,,,,,,,,,space,00105,23,2020-08-05_00h25.25.119,CDT_GNG_IUS12,2020.1.2,Win32,60,,,,,,,,,,,,,,,,0,1,,space,1,0.31775,,,,,,,,,,,0,28,28,29,1,,,,,,,,,,,,,,,,,,,,
,,,,,,,,,,,,,,,,,,,,,,,,,,,,,,,,,,,,,,,,,,,,,,,,,,,,,space,00105,23,2020-08-05_00h25.25.119,CDT_GNG_IUS12,2020.1.2,Win32,60,,,,,,,,,,,,,,,,0,1,,space,1,0.23652,,,,,,,,,,,0,29,29,42,1,,,,,,,,,,,,,,,,,,,,
,,,,,,,,,,,,,,,,,,,,,,,,,,,,,,,,,,,,,,,,,,,,,,,,,,,,,space,00105,23,2020-08-05_00h25.25.119,CDT_GNG_IUS12,2020.1.2,Win32,60,,,,,,,,,,,,,,,,0,1,,space,1,0.238175,,,,,,,,,,,0,30,30,16,1,,,,,,,,,,,,,,,,,,,,
,,,,,,,,,,,,,,,,,,,,,,,,,,,,,,,,,,,,,,,,,,,,,,,,,,,,,space,00105,23,2020-08-05_00h25.25.119,CDT_GNG_IUS12,2020.1.2,Win32,60,,,,,,,,,,,,,,,,0,1,,space,1,0.24886,,,,,,,,,,,0,31,31,21,1,,,,,,,,,,,,,,,,,,,,
,,,,,,,,,,,,,,,,,,,,,,,,,,,,,,,,,,,,,,,,,,,,,,,,,,,,,space,00105,23,2020-08-05_00h25.25.119,CDT_GNG_IUS12,2020.1.2,Win32,60,,,,,,,,,,,,,,,,0,1,,space,1,0.224,,,,,,,,,,,0,32,32,24,1,,,,,,,,,,,,,,,,,,,,
,,,,,,,,,,,,,,,,,,,,,,,,,,,,,,,,,,,,,,,,,,,,,,,,,,,,,space,00105,23,2020-08-05_00h25.25.119,CDT_GNG_IUS12,2020.1.2,Win32,60,,,,,,,,,,,,,,,,0,1,,space,1,0.185295,,,,,,,,,,,0,33,33,28,1,,,,,,,,,,,,,,,,,,,,
,,,,,,,,,,,,,,,,,,,,,,,,,,,,,,,,,,,,,,,,,,,,,,,,,,,,,,00105,23,2020-08-05_00h25.25.119,CDT_GNG_IUS12,2020.1.2,Win32,60,,,,,,,,,,,,,,,,1,0,,space,0,0.151295,,,,,,,,,,,0,34,34,4,1,,,,,,,,,,,,,,,,,,,,
,,,,,,,,,,,,,,,,,,,,,,,,,,,,,,,,,,,,,,,,,,,,,,,,,,,,,space,00105,23,2020-08-05_00h25.25.119,CDT_GNG_IUS12,2020.1.2,Win32,60,,,,,,,,,,,,,,,,0,1,,space,1,0.140685,,,,,,,,,,,0,35,35,15,1,,,,,,,,,,,,,,,,,,,,
,,,,,,,,,,,,,,,,,,,,,,,,,,,,,,,,,,,,,,,,,,,,,,,,,,,,,space,00105,23,2020-08-05_00h25.25.119,CDT_GNG_IUS12,2020.1.2,Win32,60,,,,,,,,,,,,,,,,0,1,,space,1,0.066375,,,,,,,,,,,0,36,36,17,1,,,,,,,,,,,,,,,,,,,,
,,,,,,,,,,,,,,,,,,,,,,,,,,,,,,,,,,,,,,,,,,,,,,,,,,,,,space,00105,23,2020-08-05_00h25.25.119,CDT_GNG_IUS12,2020.1.2,Win32,60,,,,,,,,,,,,,,,,0,1,,space,1,0.0402,,,,,,,,,,,0,37,37,12,1,,,,,,,,,,,,,,,,,,,,
,,,,,,,,,,,,,,,,,,,,,,,,,,,,,,,,,,,,,,,,,,,,,,,,,,,,,space,00105,23,2020-08-05_00h25.25.119,CDT_GNG_IUS12,2020.1.2,Win32,60,,,,,,,,,,,,,,,,0,1,,space,1,0.03297,,,,,,,,,,,0,38,38,18,1,,,,,,,,,,,,,,,,,,,,
,,,,,,,,,,,,,,,,,,,,,,,,,,,,,,,,,,,,,,,,,,,,,,,,,,,,,space,00105,23,2020-08-05_00h25.25.119,CDT_GNG_IUS12,2020.1.2,Win32,60,,,,,,,,,,,,,,,,0,1,,,0,,,,,,,,,,,,0,39,39,34,1,,,,,,,,,,,,,,,,,,,,
,,,,,,,,,,,,,,,,,,,,,,,,,,,,,,,,,,,,,,,,,,,,,,,,,,,,,space,00105,23,2020-08-05_00h25.25.119,CDT_GNG_IUS12,2020.1.2,Win32,60,,,,,,,,,,,,,,,,0,1,,space,1,0.00087,,,,,,,,,,,0,40,40,25,1,,,,,,,,,,,,,,,,,,,,
,,,,,,,,,,,,,,,,,,,,,,,,,,,,,,,,,,,,,,,,,,,,,,,,,,,,,space,00105,23,2020-08-05_00h25.25.119,CDT_GNG_IUS12,2020.1.2,Win32,60,,,,,,,,,,,,,,,,0,1,,space,1,0.53948,,,,,,,,,,,0,41,41,46,1,,,,,,,,,,,,,,,,,,,,
,,,,,,,,,,,,,,,,,,,,,,,,,,,,,,,,,,,,,,,,,,,,,,,,,,,,,space,00105,23,2020-08-05_00h25.25.119,CDT_GNG_IUS12,2020.1.2,Win32,60,,,,,,,,,,,,,,,,0,1,,space,1,0.51271,,,,,,,,,,,0,42,42,48,1,,,,,,,,,,,,,,,,,,,,
,,,,,,,,,,,,,,,,,,,,,,,,,,,,,,,,,,,,,,,,,,,,,,,,,,,,,space,00105,23,2020-08-05_00h25.25.119,CDT_GNG_IUS12,2020.1.2,Win32,60,,,,,,,,,,,,,,,,0,1,,space,1,0.56335,,,,,,,,,,,0,43,43,23,1,,,,,,,,,,,,,,,,,,,,
,,,,,,,,,,,,,,,,,,,,,,,,,,,,,,,,,,,,,,,,,,,,,,,,,,,,,space,00105,23,2020-08-05_00h25.25.119,CDT_GNG_IUS12,2020.1.2,Win32,60,,,,,,,,,,,,,,,,0,1,,space,1,0.516995,,,,,,,,,,,0,44,44,14,1,,,,,,,,,,,,,,,,,,,,
,,,,,,,,,,,,,,,,,,,,,,,,,,,,,,,,,,,,,,,,,,,,,,,,,,,,,space,00105,23,2020-08-05_00h25.25.119,CDT_GNG_IUS12,2020.1.2,Win32,60,,,,,,,,,,,,,,,,0,1,,space,1,0.484585,,,,,,,,,,,0,45,45,20,1,,,,,,,,,,,,,,,,,,,,
,,,,,,,,,,,,,,,,,,,,,,,,,,,,,,,,,,,,,,,,,,,,,,,,,,,,,space,00105,23,2020-08-05_00h25.25.119,CDT_GNG_IUS12,2020.1.2,Win32,60,,,,,,,,,,,,,,,,0,1,,space,1,0.4711,,,,,,,,,,,0,46,46,33,1,,,,,,,,,,,,,,,,,,,,
,,,,,,,,,,,,,,,,,,,,,,,,,,,,,,,,,,,,,,,,,,,,,,,,,,,,,,00105,23,2020-08-05_00h25.25.119,CDT_GNG_IUS12,2020.1.2,Win32,60,,,,,,,,,,,,,,,,1,0,,space,0,0.360435,,,,,,,,,,,0,47,47,5,1,,,,,,,,,,,,,,,,,,,,
,,,,,,,,,,,,,,,,,,,,,,,,,,,,,,,,,,,,,,,,,,,,,,,,,,,,,space,00105,23,2020-08-05_00h25.25.119,CDT_GNG_IUS12,2020.1.2,Win32,60,,,,,,,,,,,,,,,,0,1,,space,1,0.34146,,,,,,,,,,,0,48,48,31,1,,,,,,,,,,,,,,,,,,,,
,,,,,,,,,,,,,,,,,,,,,,,,,,,,,,,,,,,,,,,,,,,,,,,,,,,,,space,00105,23,2020-08-05_00h25.25.119,CDT_GNG_IUS12,2020.1.2,Win32,60,,,,,,,,,,,,,,,,0,1,,space,1,0.364005,,,,,,,,,,,0,49,49,30,1,,,,,,,,,,,,,,,,,,,,
,,,,,,,,,,,,,,,,,,,,,,,,,,,,,,,,,,,,,,,,,,,,,,,,,,,,,,00105,23,2020-08-05_00h25.25.119,CDT_GNG_IUS12,2020.1.2,Win32,60,,,,,,,,,,,,,,,,,,,,,,,,,,,,,,,,,,,,,7.037037037,5.80868,0,0,0,0,1,1,"On a scale from 0 to 10, indicate your personal perception of your proficiency level for English (10 being the highest score)",,,,,,,,,,,
,,,,,,,,,,,,,,,,,,,,,,,,,,,,,,,,,,,,,,,,,,,,,,,,,,,,,,00105,23,2020-08-05_00h25.25.119,CDT_GNG_IUS12,2020.1.2,Win32,60,,,,,,,,,,,,,,,,,,,,,,,,,,,,,,,,,,,,,7.027777919,2.26958,0,1,1,1,1,2,"On a scale from 0 to 10, indicate how frequently you are exposed to English (10 being 'always', 0 being 'never')",,,,,,,,,,,
,,,,,,,,,,,,,,,,,,,,,,,,,,,,,,,,,,,,,,,,,,,,,,,,,,,,,,00105,23,2020-08-05_00h25.25.119,CDT_GNG_IUS12,2020.1.2,Win32,60,,,,,,,,,,,,,,,,,,,,,,,,,,,,,,,,,,,,,,,,,,,,,"On a scale from 0 to 10, indicate your personal perception of your proficiency level for English (10 being the highest score)",3.03333339,7.322305,0,0,0,0,1,1,Unforeseen events upset me greatly.,,
,,,,,,,,,,,,,,,,,,,,,,,,,,,,,,,,,,,,,,,,,,,,,,,,,,,,,,00105,23,2020-08-05_00h25.25.119,CDT_GNG_IUS12,2020.1.2,Win32,60,,,,,,,,,,,,,,,,,,,,,,,,,,,,,,,,,,,,,,,,,,,,,"On a scale from 0 to 10, indicate how frequently you are exposed to English (10 being 'always', 0 being 'never')",3.029629743,0.661045,0,1,1,1,1,2,It frustrates me not having all the information I need.,,
,,,,,,,,,,,,,,,,,,,,,,,,,,,,,,,,,,,,,,,,,,,,,,,,,,,,,,00105,23,2020-08-05_00h25.25.119,CDT_GNG_IUS12,2020.1.2,Win32,60,,,,,,,,,,,,,,,,,,,,,,,,,,,,,,,,,,,,,,,,,,,,,,3.029629743,0.435,0,2,2,2,1,3,One should always look ahead so as to avoid surprises.,,
,,,,,,,,,,,,,,,,,,,,,,,,,,,,,,,,,,,,,,,,,,,,,,,,,,,,,,00105,23,2020-08-05_00h25.25.119,CDT_GNG_IUS12,2020.1.2,Win32,60,,,,,,,,,,,,,,,,,,,,,,,,,,,,,,,,,,,,,,,,,,,,,,3.029629743,1.42436,0,3,3,3,1,4,"A small, unforeseen event can spoil everything, even with the best of planning. ",,
,,,,,,,,,,,,,,,,,,,,,,,,,,,,,,,,,,,,,,,,,,,,,,,,,,,,,,00105,23,2020-08-05_00h25.25.119,CDT_GNG_IUS12,2020.1.2,Win32,60,,,,,,,,,,,,,,,,,,,,,,,,,,,,,,,,,,,,,,,,,,,,,,3.029629743,0.406155,0,4,4,4,1,5,I always want to know what the future has in store for me.,,
,,,,,,,,,,,,,,,,,,,,,,,,,,,,,,,,,,,,,,,,,,,,,,,,,,,,,,00105,23,2020-08-05_00h25.25.119,CDT_GNG_IUS12,2020.1.2,Win32,60,,,,,,,,,,,,,,,,,,,,,,,,,,,,,,,,,,,,,,,,,,,,,,3.029629743,0.651585,0,5,5,5,1,6,I can't stand being taken by surprise.,,
,,,,,,,,,,,,,,,,,,,,,,,,,,,,,,,,,,,,,,,,,,,,,,,,,,,,,,00105,23,2020-08-05_00h25.25.119,CDT_GNG_IUS12,2020.1.2,Win32,60,,,,,,,,,,,,,,,,,,,,,,,,,,,,,,,,,,,,,,,,,,,,,,3.029629743,1.291955,0,6,6,6,1,7,I should be able to organize everything in advance,,
,,,,,,,,,,,,,,,,,,,,,,,,,,,,,,,,,,,,,,,,,,,,,,,,,,,,,,00105,23,2020-08-05_00h25.25.119,CDT_GNG_IUS12,2020.1.2,Win32,60,,,,,,,,,,,,,,,,,,,,,,,,,,,,,,,,,,,,,,,,,,,,,,3.029629743,0.751375,0,7,7,7,1,8,Uncertainty keeps me from living a full life.,,
,,,,,,,,,,,,,,,,,,,,,,,,,,,,,,,,,,,,,,,,,,,,,,,,,,,,,,00105,23,2020-08-05_00h25.25.119,CDT_GNG_IUS12,2020.1.2,Win32,60,,,,,,,,,,,,,,,,,,,,,,,,,,,,,,,,,,,,,,,,,,,,,,3.029629743,1.22373,0,8,8,8,1,9,"When it's time to act, uncertainty paralyses me. ",,
,,,,,,,,,,,,,,,,,,,,,,,,,,,,,,,,,,,,,,,,,,,,,,,,,,,,,,00105,23,2020-08-05_00h25.25.119,CDT_GNG_IUS12,2020.1.2,Win32,60,,,,,,,,,,,,,,,,,,,,,,,,,,,,,,,,,,,,,,,,,,,,,,3.029629743,0.412605,0,9,9,9,1,10,"When I am uncertain, I can't function very well. ",,
,,,,,,,,,,,,,,,,,,,,,,,,,,,,,,,,,,,,,,,,,,,,,,,,,,,,,,00105,23,2020-08-05_00h25.25.119,CDT_GNG_IUS12,2020.1.2,Win32,60,,,,,,,,,,,,,,,,,,,,,,,,,,,,,,,,,,,,,,,,,,,,,,3.029629743,0.445275,0,10,10,10,1,11,The smallest doubt can stop me from acting. ,,
,,,,,,,,,,,,,,,,,,,,,,,,,,,,,,,,,,,,,,,,,,,,,,,,,,,,,,00105,23,2020-08-05_00h25.25.119,CDT_GNG_IUS12,2020.1.2,Win32,60,,,,,,,,,,,,,,,,,,,,,,,,,,,,,,,,,,,,,,,,,,,,,,3.029629743,0.450865,0,11,11,11,1,12,I must get away from all uncertain situations. ,,
,,,,,,,,,,,,,,,,,,,,,,,,,,,,,,,,,,,,,,,,,,,,,,,,,,,,,,00105,23,2020-08-05_00h25.25.119,CDT_GNG_IUS12,2020.1.2,Win32,60,,,,,,,,,,,,,,,,,,,,,,,,,,,,,,,,,,,,,,,,,,,,,,,,,,,,,,,x,18.918685
