key_resp_6.keys,key_resp_6.rt,Gender.keys,Gender.rt,key_resp_2.keys,key_resp_2.corr,key_resp_2.rt,CDT_trials_train.thisRepN,CDT_trials_train.thisTrialN,CDT_trials_train.thisN,CDT_trials_train.thisIndex,CDT_trials_train.ran,trialnum,condit,stimamt,stim1posx,stim1posy,stim1col,stim1opa,stim2posx,stim2posy,stim2col,stim2opa,stim3posx,stim3posy,stim3col,stim3opa,stim4posx,stim4posy,stim4col,stim4opa,stim5posx,stim5posy,stim5col,stim5opa,stim6posx,stim6posy,stim6col,stim6opa,stim7posx,stim7posy,stim7col,stim7opa,stim8posx,stim8posy,stim8col,stim8opa,stimsizex,stimsizey,stimdur,targetposx,targetposy,targetcol,corrAns,participant,age,date,expName,psychopyVersion,OS,frameRate,key_resp.keys,key_resp.corr,key_resp.rt,CDT_trials.thisRepN,CDT_trials.thisTrialN,CDT_trials.thisN,CDT_trials.thisIndex,CDT_trials.ran,trialResp_Train.keys,trialResp_Train.corr,GNGtrials_train.thisRepN,GNGtrials_train.thisTrialN,GNGtrials_train.thisN,GNGtrials_train.thisIndex,GNGtrials_train.ran,orangeOpacity,blueOpacity,trialResp_Train.rt,trialResp.keys,trialResp.corr,GNG_trials_1.thisRepN,GNG_trials_1.thisTrialN,GNG_trials_1.thisN,GNG_trials_1.thisIndex,GNG_trials_1.ran,trialResp.rt,GNG_trials_2.thisRepN,GNG_trials_2.thisTrialN,GNG_trials_2.thisN,GNG_trials_2.thisIndex,GNG_trials_2.ran,GNG_trials_3.thisRepN,GNG_trials_3.thisTrialN,GNG_trials_3.thisN,GNG_trials_3.thisIndex,GNG_trials_3.ran,slider_2.response,slider_2.rt,engprof_trials.thisRepN,engprof_trials.thisTrialN,engprof_trials.thisN,engprof_trials.thisIndex,engprof_trials.ran,qpnumber,qproficiency,slider.response,slider.rt,IUS12_trials.thisRepN,IUS12_trials.thisTrialN,IUS12_trials.thisN,IUS12_trials.thisIndex,IUS12_trials.ran,qnumber,qenglish,key_resp_end.keys,key_resp_end.rt
y,1.47303,w,2.20201,k,1,1.59173,0,0,0,0,1,1,same,4,0.14,0.14,orange,1,0.14,-0.41,blue,1,-0.14,-0.27,cyan,1,-0.41,0.14,red,1,0.14,0.41,black,0,0.27,-0.27,green,0,-0.41,-0.27,magenta,0,-0.41,0.41,yellow,0,0.05,0.05,0.15,0.14,-0.41,blue,k,101913,26,2020-08-05_23h02.53.540,CDT_GNG_IUS12,2020.1.2,Win32,60,,,,,,,,,,,,,,,,,,,,,,,,,,,,,,,,,,,,,,,,,,,,,,,,,,,,,,,,
,,,,l,1,1.333635,0,1,1,1,1,2,different,4,0.14,0.41,black,1,0.14,-0.41,green,1,-0.41,-0.27,orange,1,-0.27,0.41,magenta,1,0.14,0.27,red,0,0.41,-0.27,cyan,0,-0.27,-0.41,yellow,0,-0.27,0.27,blue,0,0.05,0.05,0.15,-0.27,0.41,red,l,101913,26,2020-08-05_23h02.53.540,CDT_GNG_IUS12,2020.1.2,Win32,60,,,,,,,,,,,,,,,,,,,,,,,,,,,,,,,,,,,,,,,,,,,,,,,,,,,,,,,,
,,,,l,0,2.516495,0,2,2,2,1,3,same,8,0.27,0.41,yellow,1,0.14,-0.41,cyan,1,-0.14,-0.27,blue,1,-0.14,0.27,green,1,0.14,0.14,red,1,0.27,-0.27,black,1,-0.27,-0.27,magenta,1,-0.27,0.14,orange,1,0.05,0.05,0.15,-0.14,0.27,green,k,101913,26,2020-08-05_23h02.53.540,CDT_GNG_IUS12,2020.1.2,Win32,60,,,,,,,,,,,,,,,,,,,,,,,,,,,,,,,,,,,,,,,,,,,,,,,,,,,,,,,,
,,,,l,1,1.833635,0,3,3,3,1,4,different,8,0.14,0.41,green,1,0.27,-0.14,red,1,-0.27,-0.14,black,1,-0.14,0.41,orange,1,0.41,0.27,blue,1,0.41,-0.27,magenta,1,-0.14,-0.14,cyan,1,-0.27,0.14,yellow,1,0.05,0.05,0.15,0.27,-0.14,cyan,l,101913,26,2020-08-05_23h02.53.540,CDT_GNG_IUS12,2020.1.2,Win32,60,,,,,,,,,,,,,,,,,,,,,,,,,,,,,,,,,,,,,,,,,,,,,,,,,,,,,,,,
,,,,,,,,,,,,16,same,4,0.27,0.27,magenta,1,0.14,-0.14,orange,1,-0.14,-0.41,blue,1,-0.27,0.14,red,1,0.14,0.14,black,0,0.14,-0.27,green,0,-0.27,-0.27,yellow,0,-0.27,0.27,cyan,0,0.05,0.05,0.15,-0.27,0.14,red,k,101913,26,2020-08-05_23h02.53.540,CDT_GNG_IUS12,2020.1.2,Win32,60,k,1,1.068065,0,0,0,15,1,,,,,,,,,,,,,,,,,,,,,,,,,,,,,,,,,,,,,,,,,,,,,,,,
,,,,,,,,,,,,73,same,8,0.14,0.14,blue,1,0.14,-0.41,yellow,1,-0.41,-0.41,red,1,-0.41,0.27,orange,1,0.27,0.41,magenta,1,0.14,-0.27,green,1,-0.41,-0.27,black,1,-0.27,0.27,cyan,1,0.05,0.05,0.15,0.27,0.41,magenta,k,101913,26,2020-08-05_23h02.53.540,CDT_GNG_IUS12,2020.1.2,Win32,60,l,0,1.19134,0,1,1,72,1,,,,,,,,,,,,,,,,,,,,,,,,,,,,,,,,,,,,,,,,,,,,,,,,
,,,,,,,,,,,,3,same,4,0.27,0.14,green,1,0.27,-0.27,orange,1,-0.27,-0.41,yellow,1,-0.41,0.41,magenta,1,0.14,0.41,black,0,0.14,-0.41,red,0,-0.27,-0.14,cyan,0,-0.14,0.14,blue,0,0.05,0.05,0.15,-0.27,-0.41,yellow,k,101913,26,2020-08-05_23h02.53.540,CDT_GNG_IUS12,2020.1.2,Win32,60,l,0,1.137365,0,2,2,2,1,,,,,,,,,,,,,,,,,,,,,,,,,,,,,,,,,,,,,,,,,,,,,,,,
,,,,,,,,,,,,38,different,4,0.27,0.27,black,1,0.14,-0.27,green,1,-0.14,-0.27,magenta,1,-0.41,0.14,blue,1,0.14,0.41,orange,0,0.27,-0.41,yellow,0,-0.41,-0.14,cyan,0,-0.27,0.41,red,0,0.05,0.05,0.15,-0.14,-0.27,orange,l,101913,26,2020-08-05_23h02.53.540,CDT_GNG_IUS12,2020.1.2,Win32,60,l,1,1.090095,0,3,3,37,1,,,,,,,,,,,,,,,,,,,,,,,,,,,,,,,,,,,,,,,,,,,,,,,,
,,,,,,,,,,,,95,different,8,0.41,0.41,black,1,0.14,-0.14,cyan,1,-0.14,-0.41,orange,1,-0.14,0.27,blue,1,0.41,0.27,magenta,1,0.14,-0.41,green,1,-0.27,-0.27,red,1,-0.41,0.14,yellow,1,0.05,0.05,0.15,-0.14,0.27,green,l,101913,26,2020-08-05_23h02.53.540,CDT_GNG_IUS12,2020.1.2,Win32,60,l,1,0.890405,0,4,4,94,1,,,,,,,,,,,,,,,,,,,,,,,,,,,,,,,,,,,,,,,,,,,,,,,,
,,,,,,,,,,,,77,same,8,0.41,0.41,black,1,0.14,-0.14,cyan,1,-0.27,-0.41,yellow,1,-0.14,0.27,orange,1,0.41,0.14,blue,1,0.41,-0.14,magenta,1,-0.14,-0.27,green,1,-0.27,0.14,red,1,0.05,0.05,0.15,0.41,-0.14,magenta,k,101913,26,2020-08-05_23h02.53.540,CDT_GNG_IUS12,2020.1.2,Win32,60,l,0,2.093745,0,5,5,76,1,,,,,,,,,,,,,,,,,,,,,,,,,,,,,,,,,,,,,,,,,,,,,,,,
,,,,,,,,,,,,17,same,4,0.41,0.27,cyan,1,0.41,-0.41,black,1,-0.14,-0.27,magenta,1,-0.14,0.41,green,1,0.14,0.14,orange,0,0.14,-0.41,yellow,0,-0.14,-0.41,red,0,-0.27,0.14,blue,0,0.05,0.05,0.15,-0.14,0.41,green,k,101913,26,2020-08-05_23h02.53.540,CDT_GNG_IUS12,2020.1.2,Win32,60,k,1,0.920795,0,6,6,16,1,,,,,,,,,,,,,,,,,,,,,,,,,,,,,,,,,,,,,,,,,,,,,,,,
,,,,,,,,,,,,93,different,8,0.14,0.41,blue,1,0.14,-0.27,red,1,-0.41,-0.14,magenta,1,-0.14,0.27,black,1,0.41,0.27,yellow,1,0.41,-0.14,orange,1,-0.27,-0.14,green,1,-0.14,0.41,cyan,1,0.05,0.05,0.15,0.41,-0.14,blue,l,101913,26,2020-08-05_23h02.53.540,CDT_GNG_IUS12,2020.1.2,Win32,60,l,1,3.082495,0,7,7,92,1,,,,,,,,,,,,,,,,,,,,,,,,,,,,,,,,,,,,,,,,,,,,,,,,
,,,,,,,,,,,,40,different,4,0.41,0.41,magenta,1,0.41,-0.27,cyan,1,-0.27,-0.41,yellow,1,-0.14,0.41,black,1,0.27,0.27,blue,0,0.41,-0.41,green,0,-0.14,-0.27,red,0,-0.27,0.27,orange,0,0.05,0.05,0.15,-0.27,-0.41,orange,l,101913,26,2020-08-05_23h02.53.540,CDT_GNG_IUS12,2020.1.2,Win32,60,l,1,2.81741,0,8,8,39,1,,,,,,,,,,,,,,,,,,,,,,,,,,,,,,,,,,,,,,,,,,,,,,,,
,,,,,,,,,,,,86,same,8,0.41,0.27,magenta,1,0.14,-0.14,green,1,-0.14,-0.41,orange,1,-0.14,0.41,red,1,0.27,0.14,black,1,0.14,-0.41,cyan,1,-0.41,-0.27,yellow,1,-0.27,0.14,blue,1,0.05,0.05,0.15,0.14,-0.41,cyan,k,101913,26,2020-08-05_23h02.53.540,CDT_GNG_IUS12,2020.1.2,Win32,60,l,0,1.783015,0,9,9,85,1,,,,,,,,,,,,,,,,,,,,,,,,,,,,,,,,,,,,,,,,,,,,,,,,
,,,,,,,,,,,,112,different,8,0.27,0.41,magenta,1,0.14,-0.41,green,1,-0.14,-0.14,black,1,-0.27,0.27,cyan,1,0.41,0.41,red,1,0.14,-0.27,blue,1,-0.41,-0.14,orange,1,-0.14,0.14,yellow,1,0.05,0.05,0.15,0.41,0.41,blue,l,101913,26,2020-08-05_23h02.53.540,CDT_GNG_IUS12,2020.1.2,Win32,60,k,0,1.000575,0,10,10,111,1,,,,,,,,,,,,,,,,,,,,,,,,,,,,,,,,,,,,,,,,,,,,,,,,
,,,,,,,,,,,,66,same,8,0.27,0.27,magenta,1,0.14,-0.41,green,1,-0.27,-0.14,yellow,1,-0.14,0.27,orange,1,0.41,0.41,red,1,0.14,-0.14,cyan,1,-0.14,-0.27,black,1,-0.27,0.41,blue,1,0.05,0.05,0.15,0.41,0.41,red,k,101913,26,2020-08-05_23h02.53.540,CDT_GNG_IUS12,2020.1.2,Win32,60,l,0,2.06346,0,11,11,65,1,,,,,,,,,,,,,,,,,,,,,,,,,,,,,,,,,,,,,,,,,,,,,,,,
,,,,,,,,,,,,39,different,4,0.41,0.27,green,1,0.41,-0.27,yellow,1,-0.27,-0.27,orange,1,-0.14,0.14,cyan,1,0.14,0.14,magenta,0,0.27,-0.41,blue,0,-0.14,-0.27,red,0,-0.41,0.27,black,0,0.05,0.05,0.15,-0.14,0.14,green,l,101913,26,2020-08-05_23h02.53.540,CDT_GNG_IUS12,2020.1.2,Win32,60,l,1,0.91731,0,12,12,38,1,,,,,,,,,,,,,,,,,,,,,,,,,,,,,,,,,,,,,,,,,,,,,,,,
,,,,,,,,,,,,99,different,8,0.14,0.27,blue,1,0.41,-0.41,yellow,1,-0.14,-0.14,green,1,-0.41,0.14,black,1,0.41,0.27,red,1,0.27,-0.27,magenta,1,-0.27,-0.27,orange,1,-0.27,0.27,cyan,1,0.05,0.05,0.15,0.14,0.27,black,l,101913,26,2020-08-05_23h02.53.540,CDT_GNG_IUS12,2020.1.2,Win32,60,l,1,0.96686,0,13,13,98,1,,,,,,,,,,,,,,,,,,,,,,,,,,,,,,,,,,,,,,,,,,,,,,,,
,,,,,,,,,,,,47,different,4,0.27,0.27,magenta,1,0.41,-0.27,black,1,-0.14,-0.41,red,1,-0.14,0.41,green,1,0.41,0.41,cyan,0,0.27,-0.14,orange,0,-0.27,-0.14,blue,0,-0.27,0.14,yellow,0,0.05,0.05,0.15,0.27,0.27,blue,l,101913,26,2020-08-05_23h02.53.540,CDT_GNG_IUS12,2020.1.2,Win32,60,l,1,0.872605,0,14,14,46,1,,,,,,,,,,,,,,,,,,,,,,,,,,,,,,,,,,,,,,,,,,,,,,,,
,,,,,,,,,,,,115,different,8,0.14,0.27,green,1,0.27,-0.41,orange,1,-0.14,-0.14,yellow,1,-0.27,0.41,magenta,1,0.27,0.14,blue,1,0.14,-0.27,red,1,-0.41,-0.14,cyan,1,-0.41,0.14,black,1,0.05,0.05,0.15,0.14,-0.27,cyan,l,101913,26,2020-08-05_23h02.53.540,CDT_GNG_IUS12,2020.1.2,Win32,60,l,1,0.82588,0,15,15,114,1,,,,,,,,,,,,,,,,,,,,,,,,,,,,,,,,,,,,,,,,,,,,,,,,
,,,,,,,,,,,,96,different,8,0.14,0.14,yellow,1,0.14,-0.41,black,1,-0.27,-0.27,orange,1,-0.14,0.41,blue,1,0.14,0.27,magenta,1,0.41,-0.27,cyan,1,-0.41,-0.41,red,1,-0.41,0.41,green,1,0.05,0.05,0.15,0.41,-0.27,magenta,l,101913,26,2020-08-05_23h02.53.540,CDT_GNG_IUS12,2020.1.2,Win32,60,l,1,0.85778,0,16,16,95,1,,,,,,,,,,,,,,,,,,,,,,,,,,,,,,,,,,,,,,,,,,,,,,,,
,,,,,,,,,,,,21,same,4,0.41,0.27,magenta,1,0.27,-0.41,black,1,-0.27,-0.14,orange,1,-0.41,0.41,green,1,0.27,0.14,yellow,0,0.27,-0.14,cyan,0,-0.27,-0.27,red,0,-0.41,0.27,blue,0,0.05,0.05,0.15,0.27,-0.41,black,k,101913,26,2020-08-05_23h02.53.540,CDT_GNG_IUS12,2020.1.2,Win32,60,l,0,1.26024,0,17,17,20,1,,,,,,,,,,,,,,,,,,,,,,,,,,,,,,,,,,,,,,,,,,,,,,,,
,,,,,,,,,,,,88,same,8,0.27,0.41,red,1,0.41,-0.14,cyan,1,-0.14,-0.14,green,1,-0.41,0.41,orange,1,0.14,0.27,magenta,1,0.27,-0.27,yellow,1,-0.41,-0.41,black,1,-0.27,0.41,blue,1,0.05,0.05,0.15,-0.41,0.41,orange,k,101913,26,2020-08-05_23h02.53.540,CDT_GNG_IUS12,2020.1.2,Win32,60,l,0,1.142395,0,18,18,87,1,,,,,,,,,,,,,,,,,,,,,,,,,,,,,,,,,,,,,,,,,,,,,,,,
,,,,,,,,,,,,15,same,4,0.41,0.14,magenta,1,0.41,-0.27,blue,1,-0.27,-0.14,yellow,1,-0.14,0.41,green,1,0.41,0.27,red,0,0.14,-0.14,orange,0,-0.14,-0.14,cyan,0,-0.27,0.27,black,0,0.05,0.05,0.15,-0.14,0.41,green,k,101913,26,2020-08-05_23h02.53.540,CDT_GNG_IUS12,2020.1.2,Win32,60,k,1,0.96151,0,19,19,14,1,,,,,,,,,,,,,,,,,,,,,,,,,,,,,,,,,,,,,,,,,,,,,,,,
,,,,,,,,,,,,10,same,4,0.14,0.41,magenta,1,0.41,-0.14,black,1,-0.27,-0.27,orange,1,-0.41,0.27,green,1,0.27,0.41,blue,0,0.41,-0.41,yellow,0,-0.41,-0.41,cyan,0,-0.27,0.27,red,0,0.05,0.05,0.15,0.41,-0.14,black,k,101913,26,2020-08-05_23h02.53.540,CDT_GNG_IUS12,2020.1.2,Win32,60,l,0,0.58632,0,20,20,9,1,,,,,,,,,,,,,,,,,,,,,,,,,,,,,,,,,,,,,,,,,,,,,,,,
,,,,,,,,,,,,22,same,4,0.41,0.27,green,1,0.27,-0.14,black,1,-0.27,-0.41,cyan,1,-0.41,0.14,blue,1,0.14,0.14,magenta,0,0.41,-0.41,orange,0,-0.14,-0.27,red,0,-0.41,0.41,yellow,0,0.05,0.05,0.15,0.27,-0.14,black,k,101913,26,2020-08-05_23h02.53.540,CDT_GNG_IUS12,2020.1.2,Win32,60,k,1,0.483745,0,21,21,21,1,,,,,,,,,,,,,,,,,,,,,,,,,,,,,,,,,,,,,,,,,,,,,,,,
,,,,,,,,,,,,44,different,4,0.27,0.27,black,1,0.41,-0.14,red,1,-0.41,-0.27,magenta,1,-0.14,0.14,green,1,0.41,0.41,cyan,0,0.14,-0.14,yellow,0,-0.27,-0.41,blue,0,-0.27,0.14,orange,0,0.05,0.05,0.15,0.41,-0.14,magenta,l,101913,26,2020-08-05_23h02.53.540,CDT_GNG_IUS12,2020.1.2,Win32,60,k,0,1.640565,0,22,22,43,1,,,,,,,,,,,,,,,,,,,,,,,,,,,,,,,,,,,,,,,,,,,,,,,,
,,,,,,,,,,,,92,different,8,0.27,0.27,yellow,1,0.14,-0.27,green,1,-0.41,-0.14,blue,1,-0.41,0.41,red,1,0.14,0.27,magenta,1,0.27,-0.14,cyan,1,-0.14,-0.14,orange,1,-0.27,0.27,black,1,0.05,0.05,0.15,-0.41,-0.14,magenta,l,101913,26,2020-08-05_23h02.53.540,CDT_GNG_IUS12,2020.1.2,Win32,60,l,1,1.60467,0,23,23,91,1,,,,,,,,,,,,,,,,,,,,,,,,,,,,,,,,,,,,,,,,,,,,,,,,
,,,,,,,,,,,,68,same,8,0.14,0.27,green,1,0.41,-0.27,magenta,1,-0.14,-0.27,cyan,1,-0.41,0.14,red,1,0.41,0.14,yellow,1,0.27,-0.14,blue,1,-0.14,-0.41,orange,1,-0.14,0.14,black,1,0.05,0.05,0.15,0.27,-0.14,blue,k,101913,26,2020-08-05_23h02.53.540,CDT_GNG_IUS12,2020.1.2,Win32,60,l,0,1.384615,0,24,24,67,1,,,,,,,,,,,,,,,,,,,,,,,,,,,,,,,,,,,,,,,,,,,,,,,,
,,,,,,,,,,,,116,different,8,0.27,0.14,green,1,0.41,-0.14,black,1,-0.27,-0.41,magenta,1,-0.41,0.14,cyan,1,0.41,0.41,blue,1,0.41,-0.27,yellow,1,-0.41,-0.27,red,1,-0.27,0.14,orange,1,0.05,0.05,0.15,0.41,-0.27,magenta,l,101913,26,2020-08-05_23h02.53.540,CDT_GNG_IUS12,2020.1.2,Win32,60,l,1,2.50796,0,25,25,115,1,,,,,,,,,,,,,,,,,,,,,,,,,,,,,,,,,,,,,,,,,,,,,,,,
,,,,,,,,,,,,43,different,4,0.27,0.27,red,1,0.14,-0.27,orange,1,-0.41,-0.14,green,1,-0.27,0.27,cyan,1,0.41,0.41,black,0,0.27,-0.14,magenta,0,-0.41,-0.41,yellow,0,-0.41,0.41,blue,0,0.05,0.05,0.15,-0.41,-0.14,magenta,l,101913,26,2020-08-05_23h02.53.540,CDT_GNG_IUS12,2020.1.2,Win32,60,k,0,2.86685,0,26,26,42,1,,,,,,,,,,,,,,,,,,,,,,,,,,,,,,,,,,,,,,,,,,,,,,,,
,,,,,,,,,,,,59,different,4,0.27,0.41,black,1,0.41,-0.14,blue,1,-0.27,-0.27,cyan,1,-0.14,0.41,green,1,0.14,0.27,red,0,0.41,-0.41,magenta,0,-0.14,-0.27,orange,0,-0.41,0.27,yellow,0,0.05,0.05,0.15,0.27,0.41,yellow,l,101913,26,2020-08-05_23h02.53.540,CDT_GNG_IUS12,2020.1.2,Win32,60,l,1,0.96796,0,27,27,58,1,,,,,,,,,,,,,,,,,,,,,,,,,,,,,,,,,,,,,,,,,,,,,,,,
,,,,,,,,,,,,14,same,4,0.27,0.41,cyan,1,0.27,-0.41,black,1,-0.27,-0.27,yellow,1,-0.27,0.27,green,1,0.41,0.41,blue,0,0.14,-0.27,red,0,-0.14,-0.14,orange,0,-0.41,0.41,magenta,0,0.05,0.05,0.15,0.27,-0.41,black,k,101913,26,2020-08-05_23h02.53.540,CDT_GNG_IUS12,2020.1.2,Win32,60,k,1,1.07771,0,28,28,13,1,,,,,,,,,,,,,,,,,,,,,,,,,,,,,,,,,,,,,,,,,,,,,,,,
,,,,,,,,,,,,64,same,8,0.41,0.14,green,1,0.14,-0.41,cyan,1,-0.14,-0.14,yellow,1,-0.14,0.27,red,1,0.27,0.14,blue,1,0.27,-0.27,magenta,1,-0.14,-0.27,orange,1,-0.14,0.41,black,1,0.05,0.05,0.15,-0.14,0.27,red,k,101913,26,2020-08-05_23h02.53.540,CDT_GNG_IUS12,2020.1.2,Win32,60,k,1,0.78643,0,29,29,63,1,,,,,,,,,,,,,,,,,,,,,,,,,,,,,,,,,,,,,,,,,,,,,,,,
,,,,,,,,,,,,1,same,4,0.14,0.14,magenta,1,0.27,-0.14,blue,1,-0.27,-0.14,black,1,-0.27,0.27,green,1,0.41,0.41,red,0,0.27,-0.27,cyan,0,-0.14,-0.14,yellow,0,-0.27,0.41,orange,0,0.05,0.05,0.15,0.14,0.14,magenta,k,101913,26,2020-08-05_23h02.53.540,CDT_GNG_IUS12,2020.1.2,Win32,60,l,0,1.539325,0,30,30,0,1,,,,,,,,,,,,,,,,,,,,,,,,,,,,,,,,,,,,,,,,,,,,,,,,
,,,,,,,,,,,,97,different,8,0.27,0.27,blue,1,0.14,-0.27,orange,1,-0.14,-0.14,black,1,-0.27,0.14,cyan,1,0.14,0.14,magenta,1,0.27,-0.41,yellow,1,-0.27,-0.41,green,1,-0.41,0.14,red,1,0.05,0.05,0.15,-0.27,0.14,black,l,101913,26,2020-08-05_23h02.53.540,CDT_GNG_IUS12,2020.1.2,Win32,60,l,1,0.76853,0,31,31,96,1,,,,,,,,,,,,,,,,,,,,,,,,,,,,,,,,,,,,,,,,,,,,,,,,
,,,,,,,,,,,,114,different,8,0.41,0.41,yellow,1,0.14,-0.41,red,1,-0.41,-0.41,blue,1,-0.27,0.14,cyan,1,0.41,0.27,black,1,0.27,-0.41,green,1,-0.14,-0.41,orange,1,-0.14,0.41,magenta,1,0.05,0.05,0.15,-0.14,0.41,orange,l,101913,26,2020-08-05_23h02.53.540,CDT_GNG_IUS12,2020.1.2,Win32,60,l,1,1.342975,0,32,32,113,1,,,,,,,,,,,,,,,,,,,,,,,,,,,,,,,,,,,,,,,,,,,,,,,,
,,,,,,,,,,,,72,same,8,0.27,0.41,blue,1,0.41,-0.27,magenta,1,-0.41,-0.41,yellow,1,-0.27,0.41,black,1,0.41,0.41,cyan,1,0.27,-0.41,green,1,-0.41,-0.27,orange,1,-0.14,0.27,red,1,0.05,0.05,0.15,-0.14,0.27,red,k,101913,26,2020-08-05_23h02.53.540,CDT_GNG_IUS12,2020.1.2,Win32,60,l,0,1.335355,0,33,33,71,1,,,,,,,,,,,,,,,,,,,,,,,,,,,,,,,,,,,,,,,,,,,,,,,,
,,,,,,,,,,,,103,different,8,0.14,0.14,black,1,0.14,-0.27,cyan,1,-0.41,-0.41,green,1,-0.41,0.27,red,1,0.27,0.41,orange,1,0.27,-0.27,blue,1,-0.41,-0.14,magenta,1,-0.41,0.41,yellow,1,0.05,0.05,0.15,0.27,-0.27,magenta,l,101913,26,2020-08-05_23h02.53.540,CDT_GNG_IUS12,2020.1.2,Win32,60,l,1,0.96933,0,34,34,102,1,,,,,,,,,,,,,,,,,,,,,,,,,,,,,,,,,,,,,,,,,,,,,,,,
,,,,,,,,,,,,24,same,4,0.41,0.27,green,1,0.14,-0.27,black,1,-0.27,-0.27,yellow,1,-0.14,0.14,orange,1,0.41,0.14,blue,0,0.14,-0.14,cyan,0,-0.41,-0.14,red,0,-0.27,0.41,magenta,0,0.05,0.05,0.15,-0.14,0.14,orange,k,101913,26,2020-08-05_23h02.53.540,CDT_GNG_IUS12,2020.1.2,Win32,60,k,1,0.80027,0,35,35,23,1,,,,,,,,,,,,,,,,,,,,,,,,,,,,,,,,,,,,,,,,,,,,,,,,
,,,,,,,,,,,,113,different,8,0.41,0.27,magenta,1,0.27,-0.27,red,1,-0.41,-0.41,yellow,1,-0.14,0.27,green,1,0.41,0.14,orange,1,0.14,-0.41,blue,1,-0.14,-0.41,black,1,-0.41,0.27,cyan,1,0.05,0.05,0.15,0.41,0.14,yellow,l,101913,26,2020-08-05_23h02.53.540,CDT_GNG_IUS12,2020.1.2,Win32,60,k,0,1.18513,0,36,36,112,1,,,,,,,,,,,,,,,,,,,,,,,,,,,,,,,,,,,,,,,,,,,,,,,,
,,,,,,,,,,,,51,different,4,0.41,0.41,yellow,1,0.14,-0.27,red,1,-0.14,-0.27,cyan,1,-0.41,0.14,orange,1,0.14,0.41,green,0,0.27,-0.41,black,0,-0.27,-0.14,blue,0,-0.41,0.27,magenta,0,0.05,0.05,0.15,0.41,0.41,red,l,101913,26,2020-08-05_23h02.53.540,CDT_GNG_IUS12,2020.1.2,Win32,60,l,1,0.70323,0,37,37,50,1,,,,,,,,,,,,,,,,,,,,,,,,,,,,,,,,,,,,,,,,,,,,,,,,
,,,,,,,,,,,,8,same,4,0.27,0.41,orange,1,0.41,-0.14,cyan,1,-0.14,-0.41,green,1,-0.14,0.41,black,1,0.41,0.41,blue,0,0.27,-0.41,yellow,0,-0.41,-0.27,red,0,-0.41,0.41,magenta,0,0.05,0.05,0.15,-0.14,-0.41,green,k,101913,26,2020-08-05_23h02.53.540,CDT_GNG_IUS12,2020.1.2,Win32,60,l,0,1.60035,0,38,38,7,1,,,,,,,,,,,,,,,,,,,,,,,,,,,,,,,,,,,,,,,,,,,,,,,,
,,,,,,,,,,,,105,different,8,0.41,0.27,cyan,1,0.14,-0.14,magenta,1,-0.27,-0.14,blue,1,-0.41,0.41,yellow,1,0.41,0.41,red,1,0.14,-0.41,green,1,-0.27,-0.27,orange,1,-0.27,0.41,black,1,0.05,0.05,0.15,0.41,0.27,orange,l,101913,26,2020-08-05_23h02.53.540,CDT_GNG_IUS12,2020.1.2,Win32,60,l,1,1.21324,0,39,39,104,1,,,,,,,,,,,,,,,,,,,,,,,,,,,,,,,,,,,,,,,,,,,,,,,,
,,,,,,,,,,,,25,same,4,0.41,0.27,cyan,1,0.27,-0.27,yellow,1,-0.41,-0.14,black,1,-0.14,0.27,blue,1,0.41,0.14,green,0,0.14,-0.41,magenta,0,-0.41,-0.41,orange,0,-0.27,0.41,red,0,0.05,0.05,0.15,0.27,-0.27,yellow,k,101913,26,2020-08-05_23h02.53.540,CDT_GNG_IUS12,2020.1.2,Win32,60,k,1,2.294675,0,40,40,24,1,,,,,,,,,,,,,,,,,,,,,,,,,,,,,,,,,,,,,,,,,,,,,,,,
,,,,,,,,,,,,41,different,4,0.41,0.41,green,1,0.27,-0.41,orange,1,-0.27,-0.41,black,1,-0.27,0.41,magenta,1,0.14,0.41,cyan,0,0.41,-0.27,blue,0,-0.14,-0.27,red,0,-0.27,0.14,yellow,0,0.05,0.05,0.15,-0.27,-0.41,cyan,l,101913,26,2020-08-05_23h02.53.540,CDT_GNG_IUS12,2020.1.2,Win32,60,l,1,0.63355,0,41,41,40,1,,,,,,,,,,,,,,,,,,,,,,,,,,,,,,,,,,,,,,,,,,,,,,,,
,,,,,,,,,,,,82,same,8,0.27,0.41,yellow,1,0.14,-0.14,magenta,1,-0.14,-0.14,orange,1,-0.14,0.41,black,1,0.14,0.41,red,1,0.27,-0.14,green,1,-0.27,-0.27,cyan,1,-0.41,0.41,blue,1,0.05,0.05,0.15,0.14,-0.14,magenta,k,101913,26,2020-08-05_23h02.53.540,CDT_GNG_IUS12,2020.1.2,Win32,60,k,1,1.63374,0,42,42,81,1,,,,,,,,,,,,,,,,,,,,,,,,,,,,,,,,,,,,,,,,,,,,,,,,
,,,,,,,,,,,,111,different,8,0.27,0.14,red,1,0.41,-0.27,green,1,-0.27,-0.14,yellow,1,-0.14,0.14,orange,1,0.41,0.41,black,1,0.27,-0.27,cyan,1,-0.27,-0.41,blue,1,-0.27,0.14,magenta,1,0.05,0.05,0.15,-0.27,-0.41,red,l,101913,26,2020-08-05_23h02.53.540,CDT_GNG_IUS12,2020.1.2,Win32,60,l,1,2.33508,0,43,43,110,1,,,,,,,,,,,,,,,,,,,,,,,,,,,,,,,,,,,,,,,,,,,,,,,,
,,,,,,,,,,,,12,same,4,0.14,0.41,red,1,0.14,-0.41,green,1,-0.41,-0.41,black,1,-0.27,0.27,cyan,1,0.27,0.41,magenta,0,0.41,-0.14,orange,0,-0.27,-0.41,yellow,0,-0.41,0.27,blue,0,0.05,0.05,0.15,-0.41,-0.41,black,k,101913,26,2020-08-05_23h02.53.540,CDT_GNG_IUS12,2020.1.2,Win32,60,k,1,0.817415,0,44,44,11,1,,,,,,,,,,,,,,,,,,,,,,,,,,,,,,,,,,,,,,,,,,,,,,,,
,,,,,,,,,,,,34,different,4,0.14,0.14,cyan,1,0.14,-0.14,magenta,1,-0.41,-0.41,black,1,-0.41,0.14,yellow,1,0.27,0.27,orange,0,0.14,-0.41,green,0,-0.41,-0.14,red,0,-0.14,0.14,blue,0,0.05,0.05,0.15,0.14,-0.14,cyan,l,101913,26,2020-08-05_23h02.53.540,CDT_GNG_IUS12,2020.1.2,Win32,60,l,1,2.588945,0,45,45,33,1,,,,,,,,,,,,,,,,,,,,,,,,,,,,,,,,,,,,,,,,,,,,,,,,
,,,,,,,,,,,,120,different,8,0.41,0.41,blue,1,0.14,-0.14,magenta,1,-0.27,-0.27,cyan,1,-0.27,0.41,orange,1,0.27,0.41,yellow,1,0.14,-0.41,red,1,-0.14,-0.27,green,1,-0.14,0.41,black,1,0.05,0.05,0.15,-0.14,0.41,orange,l,101913,26,2020-08-05_23h02.53.540,CDT_GNG_IUS12,2020.1.2,Win32,60,l,1,1.692745,0,46,46,119,1,,,,,,,,,,,,,,,,,,,,,,,,,,,,,,,,,,,,,,,,,,,,,,,,
,,,,,,,,,,,,78,same,8,0.41,0.14,green,1,0.14,-0.27,magenta,1,-0.41,-0.27,blue,1,-0.41,0.41,black,1,0.41,0.27,cyan,1,0.41,-0.14,orange,1,-0.14,-0.41,yellow,1,-0.14,0.41,red,1,0.05,0.05,0.15,-0.41,-0.27,blue,k,101913,26,2020-08-05_23h02.53.540,CDT_GNG_IUS12,2020.1.2,Win32,60,l,0,2.229045,0,47,47,77,1,,,,,,,,,,,,,,,,,,,,,,,,,,,,,,,,,,,,,,,,,,,,,,,,
,,,,,,,,,,,,53,different,4,0.14,0.27,cyan,1,0.41,-0.14,yellow,1,-0.41,-0.41,green,1,-0.14,0.41,black,1,0.41,0.27,red,0,0.14,-0.14,magenta,0,-0.27,-0.27,blue,0,-0.27,0.27,orange,0,0.05,0.05,0.15,0.14,0.27,blue,l,101913,26,2020-08-05_23h02.53.540,CDT_GNG_IUS12,2020.1.2,Win32,60,k,0,2.540715,0,48,48,52,1,,,,,,,,,,,,,,,,,,,,,,,,,,,,,,,,,,,,,,,,,,,,,,,,
,,,,,,,,,,,,48,different,4,0.14,0.27,red,1,0.27,-0.14,yellow,1,-0.27,-0.41,magenta,1,-0.41,0.14,green,1,0.14,0.14,orange,0,0.41,-0.14,cyan,0,-0.27,-0.27,black,0,-0.41,0.41,blue,0,0.05,0.05,0.15,0.14,0.27,blue,l,101913,26,2020-08-05_23h02.53.540,CDT_GNG_IUS12,2020.1.2,Win32,60,l,1,2.479565,0,49,49,47,1,,,,,,,,,,,,,,,,,,,,,,,,,,,,,,,,,,,,,,,,,,,,,,,,
,,,,,,,,,,,,85,same,8,0.14,0.41,green,1,0.14,-0.41,magenta,1,-0.41,-0.14,black,1,-0.14,0.27,blue,1,0.27,0.27,orange,1,0.41,-0.41,red,1,-0.27,-0.14,cyan,1,-0.41,0.27,yellow,1,0.05,0.05,0.15,0.27,0.27,orange,k,101913,26,2020-08-05_23h02.53.540,CDT_GNG_IUS12,2020.1.2,Win32,60,k,1,1.92288,0,50,50,84,1,,,,,,,,,,,,,,,,,,,,,,,,,,,,,,,,,,,,,,,,,,,,,,,,
,,,,,,,,,,,,58,different,4,0.14,0.41,blue,1,0.14,-0.14,black,1,-0.14,-0.14,yellow,1,-0.27,0.41,magenta,1,0.27,0.41,red,0,0.14,-0.27,cyan,0,-0.41,-0.27,orange,0,-0.27,0.27,green,0,0.05,0.05,0.15,0.14,0.41,yellow,l,101913,26,2020-08-05_23h02.53.540,CDT_GNG_IUS12,2020.1.2,Win32,60,l,1,1.312175,0,51,51,57,1,,,,,,,,,,,,,,,,,,,,,,,,,,,,,,,,,,,,,,,,,,,,,,,,
,,,,,,,,,,,,107,different,8,0.27,0.41,green,1,0.27,-0.41,cyan,1,-0.41,-0.41,black,1,-0.14,0.41,blue,1,0.14,0.14,red,1,0.27,-0.27,yellow,1,-0.14,-0.41,magenta,1,-0.14,0.14,orange,1,0.05,0.05,0.15,-0.14,0.14,black,l,101913,26,2020-08-05_23h02.53.540,CDT_GNG_IUS12,2020.1.2,Win32,60,l,1,1.337805,0,52,52,106,1,,,,,,,,,,,,,,,,,,,,,,,,,,,,,,,,,,,,,,,,,,,,,,,,
,,,,,,,,,,,,37,different,4,0.41,0.41,yellow,1,0.27,-0.14,black,1,-0.14,-0.14,orange,1,-0.41,0.14,green,1,0.14,0.14,cyan,0,0.27,-0.41,blue,0,-0.14,-0.27,magenta,0,-0.14,0.14,red,0,0.05,0.05,0.15,0.41,0.41,red,l,101913,26,2020-08-05_23h02.53.540,CDT_GNG_IUS12,2020.1.2,Win32,60,l,1,2.3171,0,53,53,36,1,,,,,,,,,,,,,,,,,,,,,,,,,,,,,,,,,,,,,,,,,,,,,,,,
,,,,,,,,,,,,30,same,4,0.14,0.41,black,1,0.41,-0.27,yellow,1,-0.14,-0.27,green,1,-0.41,0.14,orange,1,0.41,0.27,blue,0,0.14,-0.41,magenta,0,-0.27,-0.27,cyan,0,-0.41,0.41,red,0,0.05,0.05,0.15,0.14,0.41,black,k,101913,26,2020-08-05_23h02.53.540,CDT_GNG_IUS12,2020.1.2,Win32,60,k,1,1.715665,0,54,54,29,1,,,,,,,,,,,,,,,,,,,,,,,,,,,,,,,,,,,,,,,,,,,,,,,,
,,,,,,,,,,,,71,same,8,0.14,0.41,red,1,0.27,-0.14,yellow,1,-0.27,-0.41,cyan,1,-0.41,0.27,blue,1,0.41,0.27,magenta,1,0.14,-0.41,orange,1,-0.14,-0.14,black,1,-0.41,0.14,green,1,0.05,0.05,0.15,-0.41,0.27,blue,k,101913,26,2020-08-05_23h02.53.540,CDT_GNG_IUS12,2020.1.2,Win32,60,k,1,1.67527,0,55,55,70,1,,,,,,,,,,,,,,,,,,,,,,,,,,,,,,,,,,,,,,,,,,,,,,,,
,,,,,,,,,,,,42,different,4,0.41,0.41,green,1,0.14,-0.14,red,1,-0.27,-0.14,cyan,1,-0.27,0.27,blue,1,0.27,0.27,orange,0,0.14,-0.27,black,0,-0.27,-0.41,yellow,0,-0.27,0.41,magenta,0,0.05,0.05,0.15,-0.27,0.27,red,l,101913,26,2020-08-05_23h02.53.540,CDT_GNG_IUS12,2020.1.2,Win32,60,l,1,1.77272,0,56,56,41,1,,,,,,,,,,,,,,,,,,,,,,,,,,,,,,,,,,,,,,,,,,,,,,,,
,,,,,,,,,,,,54,different,4,0.14,0.14,yellow,1,0.41,-0.41,magenta,1,-0.14,-0.41,black,1,-0.14,0.27,orange,1,0.41,0.27,cyan,0,0.41,-0.27,red,0,-0.27,-0.14,green,0,-0.27,0.27,blue,0,0.05,0.05,0.15,0.41,-0.41,cyan,l,101913,26,2020-08-05_23h02.53.540,CDT_GNG_IUS12,2020.1.2,Win32,60,l,1,1.543355,0,57,57,53,1,,,,,,,,,,,,,,,,,,,,,,,,,,,,,,,,,,,,,,,,,,,,,,,,
,,,,,,,,,,,,117,different,8,0.14,0.41,black,1,0.14,-0.41,cyan,1,-0.41,-0.27,magenta,1,-0.27,0.41,yellow,1,0.41,0.27,orange,1,0.41,-0.14,red,1,-0.27,-0.27,green,1,-0.14,0.14,blue,1,0.05,0.05,0.15,0.41,-0.14,black,l,101913,26,2020-08-05_23h02.53.540,CDT_GNG_IUS12,2020.1.2,Win32,60,l,1,1.202035,0,58,58,116,1,,,,,,,,,,,,,,,,,,,,,,,,,,,,,,,,,,,,,,,,,,,,,,,,
,,,,,,,,,,,,102,different,8,0.14,0.27,yellow,1,0.14,-0.41,green,1,-0.41,-0.27,red,1,-0.14,0.41,orange,1,0.41,0.41,magenta,1,0.27,-0.41,blue,1,-0.27,-0.41,cyan,1,-0.27,0.27,black,1,0.05,0.05,0.15,-0.27,0.27,yellow,l,101913,26,2020-08-05_23h02.53.540,CDT_GNG_IUS12,2020.1.2,Win32,60,l,1,1.05908,0,59,59,101,1,,,,,,,,,,,,,,,,,,,,,,,,,,,,,,,,,,,,,,,,,,,,,,,,
,,,,,,,,,,,,90,same,8,0.27,0.14,orange,1,0.14,-0.27,green,1,-0.14,-0.41,magenta,1,-0.14,0.27,cyan,1,0.41,0.41,blue,1,0.14,-0.14,black,1,-0.14,-0.14,yellow,1,-0.27,0.27,red,1,0.05,0.05,0.15,0.14,-0.14,black,k,101913,26,2020-08-05_23h02.53.540,CDT_GNG_IUS12,2020.1.2,Win32,60,l,0,3.37926,0,60,60,89,1,,,,,,,,,,,,,,,,,,,,,,,,,,,,,,,,,,,,,,,,,,,,,,,,
,,,,,,,,,,,,23,same,4,0.41,0.14,cyan,1,0.14,-0.27,magenta,1,-0.14,-0.27,red,1,-0.14,0.27,green,1,0.41,0.27,blue,0,0.14,-0.41,yellow,0,-0.41,-0.27,orange,0,-0.27,0.41,black,0,0.05,0.05,0.15,-0.14,0.27,green,k,101913,26,2020-08-05_23h02.53.540,CDT_GNG_IUS12,2020.1.2,Win32,60,k,1,1.236485,0,61,61,22,1,,,,,,,,,,,,,,,,,,,,,,,,,,,,,,,,,,,,,,,,,,,,,,,,
,,,,,,,,,,,,62,same,8,0.41,0.14,red,1,0.14,-0.27,cyan,1,-0.41,-0.27,orange,1,-0.27,0.27,magenta,1,0.14,0.27,green,1,0.14,-0.14,blue,1,-0.27,-0.41,black,1,-0.41,0.14,yellow,1,0.05,0.05,0.15,-0.27,0.27,magenta,k,101913,26,2020-08-05_23h02.53.540,CDT_GNG_IUS12,2020.1.2,Win32,60,l,0,1.51688,0,62,62,61,1,,,,,,,,,,,,,,,,,,,,,,,,,,,,,,,,,,,,,,,,,,,,,,,,
,,,,,,,,,,,,61,same,8,0.41,0.41,orange,1,0.41,-0.41,magenta,1,-0.27,-0.41,blue,1,-0.14,0.27,yellow,1,0.14,0.41,red,1,0.14,-0.27,black,1,-0.41,-0.41,cyan,1,-0.27,0.14,green,1,0.05,0.05,0.15,-0.27,-0.41,blue,k,101913,26,2020-08-05_23h02.53.540,CDT_GNG_IUS12,2020.1.2,Win32,60,l,0,1.13339,0,63,63,60,1,,,,,,,,,,,,,,,,,,,,,,,,,,,,,,,,,,,,,,,,,,,,,,,,
,,,,,,,,,,,,70,same,8,0.41,0.41,black,1,0.14,-0.27,red,1,-0.41,-0.41,magenta,1,-0.27,0.41,green,1,0.27,0.14,yellow,1,0.41,-0.41,orange,1,-0.27,-0.14,blue,1,-0.27,0.27,cyan,1,0.05,0.05,0.15,0.14,-0.27,red,k,101913,26,2020-08-05_23h02.53.540,CDT_GNG_IUS12,2020.1.2,Win32,60,l,0,1.13098,0,64,64,69,1,,,,,,,,,,,,,,,,,,,,,,,,,,,,,,,,,,,,,,,,,,,,,,,,
,,,,,,,,,,,,9,same,4,0.27,0.27,red,1,0.14,-0.27,orange,1,-0.14,-0.41,yellow,1,-0.27,0.41,blue,1,0.41,0.41,green,0,0.41,-0.41,cyan,0,-0.27,-0.41,magenta,0,-0.27,0.27,black,0,0.05,0.05,0.15,0.27,0.27,red,k,101913,26,2020-08-05_23h02.53.540,CDT_GNG_IUS12,2020.1.2,Win32,60,l,0,2.8403,0,65,65,8,1,,,,,,,,,,,,,,,,,,,,,,,,,,,,,,,,,,,,,,,,,,,,,,,,
,,,,,,,,,,,,56,different,4,0.27,0.14,yellow,1,0.41,-0.14,blue,1,-0.14,-0.27,green,1,-0.41,0.14,cyan,1,0.14,0.14,magenta,0,0.41,-0.41,red,0,-0.41,-0.14,orange,0,-0.41,0.27,black,0,0.05,0.05,0.15,-0.14,-0.27,magenta,l,101913,26,2020-08-05_23h02.53.540,CDT_GNG_IUS12,2020.1.2,Win32,60,k,0,1.141245,0,66,66,55,1,,,,,,,,,,,,,,,,,,,,,,,,,,,,,,,,,,,,,,,,,,,,,,,,
,,,,,,,,,,,,19,same,4,0.27,0.41,blue,1,0.14,-0.41,red,1,-0.14,-0.27,black,1,-0.14,0.27,magenta,1,0.27,0.14,yellow,0,0.27,-0.14,orange,0,-0.14,-0.41,green,0,-0.14,0.14,cyan,0,0.05,0.05,0.15,0.27,0.41,blue,k,101913,26,2020-08-05_23h02.53.540,CDT_GNG_IUS12,2020.1.2,Win32,60,k,1,1.489365,0,67,67,18,1,,,,,,,,,,,,,,,,,,,,,,,,,,,,,,,,,,,,,,,,,,,,,,,,
,,,,,,,,,,,,4,same,4,0.41,0.27,magenta,1,0.27,-0.41,orange,1,-0.41,-0.41,red,1,-0.14,0.41,green,1,0.27,0.41,blue,0,0.14,-0.41,black,0,-0.27,-0.14,cyan,0,-0.41,0.27,yellow,0,0.05,0.05,0.15,0.27,-0.41,orange,k,101913,26,2020-08-05_23h02.53.540,CDT_GNG_IUS12,2020.1.2,Win32,60,k,1,1.33343,0,68,68,3,1,,,,,,,,,,,,,,,,,,,,,,,,,,,,,,,,,,,,,,,,,,,,,,,,
,,,,,,,,,,,,5,same,4,0.27,0.27,blue,1,0.14,-0.14,orange,1,-0.27,-0.27,black,1,-0.27,0.41,magenta,1,0.27,0.41,green,0,0.14,-0.41,cyan,0,-0.27,-0.41,yellow,0,-0.27,0.14,red,0,0.05,0.05,0.15,0.14,-0.14,orange,k,101913,26,2020-08-05_23h02.53.540,CDT_GNG_IUS12,2020.1.2,Win32,60,k,1,0.806165,0,69,69,4,1,,,,,,,,,,,,,,,,,,,,,,,,,,,,,,,,,,,,,,,,,,,,,,,,
,,,,,,,,,,,,89,same,8,0.14,0.14,blue,1,0.14,-0.27,orange,1,-0.14,-0.27,yellow,1,-0.41,0.27,red,1,0.27,0.27,cyan,1,0.14,-0.14,green,1,-0.14,-0.41,magenta,1,-0.41,0.41,black,1,0.05,0.05,0.15,0.14,-0.27,orange,k,101913,26,2020-08-05_23h02.53.540,CDT_GNG_IUS12,2020.1.2,Win32,60,l,0,1.554785,0,70,70,88,1,,,,,,,,,,,,,,,,,,,,,,,,,,,,,,,,,,,,,,,,,,,,,,,,
,,,,,,,,,,,,98,different,8,0.41,0.27,black,1,0.14,-0.27,yellow,1,-0.14,-0.27,cyan,1,-0.27,0.14,red,1,0.27,0.27,green,1,0.41,-0.41,magenta,1,-0.41,-0.14,blue,1,-0.41,0.41,orange,1,0.05,0.05,0.15,0.41,0.27,red,l,101913,26,2020-08-05_23h02.53.540,CDT_GNG_IUS12,2020.1.2,Win32,60,l,1,1.41839,0,71,71,97,1,,,,,,,,,,,,,,,,,,,,,,,,,,,,,,,,,,,,,,,,,,,,,,,,
,,,,,,,,,,,,11,same,4,0.27,0.14,red,1,0.14,-0.14,cyan,1,-0.27,-0.41,blue,1,-0.27,0.14,yellow,1,0.27,0.27,green,0,0.41,-0.27,black,0,-0.41,-0.41,magenta,0,-0.41,0.14,orange,0,0.05,0.05,0.15,-0.27,-0.41,blue,k,101913,26,2020-08-05_23h02.53.540,CDT_GNG_IUS12,2020.1.2,Win32,60,l,0,1.989015,0,72,72,10,1,,,,,,,,,,,,,,,,,,,,,,,,,,,,,,,,,,,,,,,,,,,,,,,,
,,,,,,,,,,,,35,different,4,0.27,0.41,orange,1,0.41,-0.14,cyan,1,-0.27,-0.27,green,1,-0.14,0.27,yellow,1,0.41,0.27,black,0,0.41,-0.41,magenta,0,-0.14,-0.14,blue,0,-0.27,0.14,red,0,0.05,0.05,0.15,-0.14,0.27,blue,l,101913,26,2020-08-05_23h02.53.540,CDT_GNG_IUS12,2020.1.2,Win32,60,l,1,0.861915,0,73,73,34,1,,,,,,,,,,,,,,,,,,,,,,,,,,,,,,,,,,,,,,,,,,,,,,,,
,,,,,,,,,,,,83,same,8,0.14,0.27,yellow,1,0.27,-0.41,orange,1,-0.27,-0.41,green,1,-0.41,0.14,cyan,1,0.41,0.27,blue,1,0.14,-0.14,magenta,1,-0.14,-0.14,red,1,-0.41,0.41,black,1,0.05,0.05,0.15,-0.41,0.41,black,k,101913,26,2020-08-05_23h02.53.540,CDT_GNG_IUS12,2020.1.2,Win32,60,l,0,0.78515,0,74,74,82,1,,,,,,,,,,,,,,,,,,,,,,,,,,,,,,,,,,,,,,,,,,,,,,,,
,,,,,,,,,,,,69,same,8,0.27,0.14,magenta,1,0.27,-0.41,yellow,1,-0.14,-0.41,green,1,-0.14,0.41,orange,1,0.14,0.41,red,1,0.14,-0.27,black,1,-0.14,-0.27,blue,1,-0.27,0.14,cyan,1,0.05,0.05,0.15,0.14,-0.27,black,k,101913,26,2020-08-05_23h02.53.540,CDT_GNG_IUS12,2020.1.2,Win32,60,k,1,0.84617,0,75,75,68,1,,,,,,,,,,,,,,,,,,,,,,,,,,,,,,,,,,,,,,,,,,,,,,,,
,,,,,,,,,,,,74,same,8,0.41,0.41,blue,1,0.14,-0.14,orange,1,-0.27,-0.41,cyan,1,-0.27,0.41,yellow,1,0.41,0.27,black,1,0.41,-0.41,red,1,-0.14,-0.27,magenta,1,-0.27,0.14,green,1,0.05,0.05,0.15,0.41,0.27,black,k,101913,26,2020-08-05_23h02.53.540,CDT_GNG_IUS12,2020.1.2,Win32,60,k,1,0.700925,0,76,76,73,1,,,,,,,,,,,,,,,,,,,,,,,,,,,,,,,,,,,,,,,,,,,,,,,,
,,,,,,,,,,,,36,different,4,0.41,0.27,magenta,1,0.27,-0.14,orange,1,-0.41,-0.41,yellow,1,-0.14,0.14,blue,1,0.14,0.41,green,0,0.27,-0.27,black,0,-0.41,-0.27,cyan,0,-0.41,0.41,red,0,0.05,0.05,0.15,0.27,-0.14,black,l,101913,26,2020-08-05_23h02.53.540,CDT_GNG_IUS12,2020.1.2,Win32,60,l,1,2.413475,0,77,77,35,1,,,,,,,,,,,,,,,,,,,,,,,,,,,,,,,,,,,,,,,,,,,,,,,,
,,,,,,,,,,,,75,same,8,0.41,0.27,blue,1,0.41,-0.41,black,1,-0.41,-0.41,red,1,-0.27,0.14,magenta,1,0.27,0.14,yellow,1,0.27,-0.27,cyan,1,-0.14,-0.27,green,1,-0.41,0.27,orange,1,0.05,0.05,0.15,-0.14,-0.27,green,k,101913,26,2020-08-05_23h02.53.540,CDT_GNG_IUS12,2020.1.2,Win32,60,l,0,1.14261,0,78,78,74,1,,,,,,,,,,,,,,,,,,,,,,,,,,,,,,,,,,,,,,,,,,,,,,,,
,,,,,,,,,,,,33,different,4,0.27,0.41,magenta,1,0.41,-0.41,red,1,-0.27,-0.41,yellow,1,-0.14,0.41,black,1,0.14,0.41,blue,0,0.14,-0.41,orange,0,-0.41,-0.14,cyan,0,-0.41,0.27,green,0,0.05,0.05,0.15,0.27,0.41,black,l,101913,26,2020-08-05_23h02.53.540,CDT_GNG_IUS12,2020.1.2,Win32,60,l,1,0.599965,0,79,79,32,1,,,,,,,,,,,,,,,,,,,,,,,,,,,,,,,,,,,,,,,,,,,,,,,,
,,,,,,,,,,,,63,same,8,0.27,0.27,magenta,1,0.27,-0.27,yellow,1,-0.27,-0.14,orange,1,-0.14,0.14,green,1,0.41,0.27,blue,1,0.41,-0.27,cyan,1,-0.41,-0.41,red,1,-0.41,0.27,black,1,0.05,0.05,0.15,0.27,0.27,magenta,k,101913,26,2020-08-05_23h02.53.540,CDT_GNG_IUS12,2020.1.2,Win32,60,l,0,3.53825,0,80,80,62,1,,,,,,,,,,,,,,,,,,,,,,,,,,,,,,,,,,,,,,,,,,,,,,,,
,,,,,,,,,,,,65,same,8,0.41,0.41,blue,1,0.27,-0.41,yellow,1,-0.27,-0.41,red,1,-0.41,0.27,cyan,1,0.14,0.27,black,1,0.27,-0.27,orange,1,-0.41,-0.41,magenta,1,-0.41,0.41,green,1,0.05,0.05,0.15,0.27,-0.27,orange,k,101913,26,2020-08-05_23h02.53.540,CDT_GNG_IUS12,2020.1.2,Win32,60,l,0,1.285855,0,81,81,64,1,,,,,,,,,,,,,,,,,,,,,,,,,,,,,,,,,,,,,,,,,,,,,,,,
,,,,,,,,,,,,100,different,8,0.41,0.27,black,1,0.41,-0.27,red,1,-0.14,-0.27,magenta,1,-0.14,0.27,orange,1,0.14,0.27,blue,1,0.27,-0.14,yellow,1,-0.41,-0.14,cyan,1,-0.41,0.14,green,1,0.05,0.05,0.15,0.41,0.27,orange,l,101913,26,2020-08-05_23h02.53.540,CDT_GNG_IUS12,2020.1.2,Win32,60,l,1,0.93338,0,82,82,99,1,,,,,,,,,,,,,,,,,,,,,,,,,,,,,,,,,,,,,,,,,,,,,,,,
,,,,,,,,,,,,91,different,8,0.27,0.27,red,1,0.41,-0.14,orange,1,-0.14,-0.27,green,1,-0.27,0.27,yellow,1,0.14,0.27,cyan,1,0.14,-0.14,black,1,-0.41,-0.41,blue,1,-0.14,0.41,magenta,1,0.05,0.05,0.15,-0.14,0.41,yellow,l,101913,26,2020-08-05_23h02.53.540,CDT_GNG_IUS12,2020.1.2,Win32,60,l,1,0.900255,0,83,83,90,1,,,,,,,,,,,,,,,,,,,,,,,,,,,,,,,,,,,,,,,,,,,,,,,,
,,,,,,,,,,,,45,different,4,0.14,0.14,red,1,0.27,-0.27,black,1,-0.41,-0.27,cyan,1,-0.41,0.27,blue,1,0.27,0.27,magenta,0,0.14,-0.41,orange,0,-0.14,-0.14,green,0,-0.27,0.14,yellow,0,0.05,0.05,0.15,0.14,0.14,blue,l,101913,26,2020-08-05_23h02.53.540,CDT_GNG_IUS12,2020.1.2,Win32,60,l,1,1.086315,0,84,84,44,1,,,,,,,,,,,,,,,,,,,,,,,,,,,,,,,,,,,,,,,,,,,,,,,,
,,,,,,,,,,,,108,different,8,0.27,0.41,magenta,1,0.27,-0.14,green,1,-0.14,-0.41,yellow,1,-0.41,0.41,red,1,0.41,0.27,blue,1,0.14,-0.27,cyan,1,-0.27,-0.27,orange,1,-0.41,0.14,black,1,0.05,0.05,0.15,0.27,0.41,black,l,101913,26,2020-08-05_23h02.53.540,CDT_GNG_IUS12,2020.1.2,Win32,60,l,1,0.933985,0,85,85,107,1,,,,,,,,,,,,,,,,,,,,,,,,,,,,,,,,,,,,,,,,,,,,,,,,
,,,,,,,,,,,,118,different,8,0.14,0.14,red,1,0.27,-0.27,yellow,1,-0.27,-0.14,orange,1,-0.41,0.41,magenta,1,0.27,0.27,cyan,1,0.14,-0.41,green,1,-0.27,-0.41,blue,1,-0.41,0.14,black,1,0.05,0.05,0.15,-0.27,-0.41,black,l,101913,26,2020-08-05_23h02.53.540,CDT_GNG_IUS12,2020.1.2,Win32,60,k,0,1.252665,0,86,86,117,1,,,,,,,,,,,,,,,,,,,,,,,,,,,,,,,,,,,,,,,,,,,,,,,,
,,,,,,,,,,,,13,same,4,0.41,0.41,black,1,0.14,-0.14,red,1,-0.14,-0.14,orange,1,-0.14,0.14,cyan,1,0.14,0.14,green,0,0.27,-0.27,magenta,0,-0.27,-0.14,yellow,0,-0.14,0.41,blue,0,0.05,0.05,0.15,0.41,0.41,black,k,101913,26,2020-08-05_23h02.53.540,CDT_GNG_IUS12,2020.1.2,Win32,60,k,1,0.968285,0,87,87,12,1,,,,,,,,,,,,,,,,,,,,,,,,,,,,,,,,,,,,,,,,,,,,,,,,
,,,,,,,,,,,,29,same,4,0.14,0.27,black,1,0.41,-0.14,blue,1,-0.41,-0.14,magenta,1,-0.27,0.27,green,1,0.27,0.27,yellow,0,0.41,-0.41,orange,0,-0.41,-0.27,cyan,0,-0.14,0.14,red,0,0.05,0.05,0.15,0.41,-0.14,blue,k,101913,26,2020-08-05_23h02.53.540,CDT_GNG_IUS12,2020.1.2,Win32,60,k,1,0.94072,0,88,88,28,1,,,,,,,,,,,,,,,,,,,,,,,,,,,,,,,,,,,,,,,,,,,,,,,,
,,,,,,,,,,,,6,same,4,0.41,0.27,orange,1,0.41,-0.14,magenta,1,-0.14,-0.27,black,1,-0.27,0.41,cyan,1,0.14,0.41,red,0,0.14,-0.41,blue,0,-0.14,-0.14,green,0,-0.41,0.41,yellow,0,0.05,0.05,0.15,-0.14,-0.27,black,k,101913,26,2020-08-05_23h02.53.540,CDT_GNG_IUS12,2020.1.2,Win32,60,k,1,0.643005,0,89,89,5,1,,,,,,,,,,,,,,,,,,,,,,,,,,,,,,,,,,,,,,,,,,,,,,,,
,,,,,,,,,,,,81,same,8,0.27,0.14,yellow,1,0.41,-0.14,blue,1,-0.41,-0.14,green,1,-0.41,0.14,orange,1,0.14,0.41,red,1,0.14,-0.27,magenta,1,-0.14,-0.27,cyan,1,-0.14,0.14,black,1,0.05,0.05,0.15,-0.41,0.14,orange,k,101913,26,2020-08-05_23h02.53.540,CDT_GNG_IUS12,2020.1.2,Win32,60,l,0,2.03158,0,90,90,80,1,,,,,,,,,,,,,,,,,,,,,,,,,,,,,,,,,,,,,,,,,,,,,,,,
,,,,,,,,,,,,119,different,8,0.27,0.27,green,1,0.27,-0.14,orange,1,-0.41,-0.41,cyan,1,-0.27,0.27,blue,1,0.41,0.27,black,1,0.14,-0.41,red,1,-0.14,-0.41,yellow,1,-0.41,0.27,magenta,1,0.05,0.05,0.15,-0.41,0.27,cyan,l,101913,26,2020-08-05_23h02.53.540,CDT_GNG_IUS12,2020.1.2,Win32,60,l,1,0.942625,0,91,91,118,1,,,,,,,,,,,,,,,,,,,,,,,,,,,,,,,,,,,,,,,,,,,,,,,,
,,,,,,,,,,,,84,same,8,0.27,0.14,magenta,1,0.14,-0.14,yellow,1,-0.14,-0.14,blue,1,-0.27,0.27,red,1,0.41,0.14,cyan,1,0.41,-0.27,orange,1,-0.14,-0.27,black,1,-0.41,0.14,green,1,0.05,0.05,0.15,-0.27,0.27,red,k,101913,26,2020-08-05_23h02.53.540,CDT_GNG_IUS12,2020.1.2,Win32,60,l,0,1.210555,0,92,92,83,1,,,,,,,,,,,,,,,,,,,,,,,,,,,,,,,,,,,,,,,,,,,,,,,,
,,,,,,,,,,,,52,different,4,0.27,0.41,cyan,1,0.14,-0.14,orange,1,-0.41,-0.14,black,1,-0.27,0.41,blue,1,0.14,0.27,magenta,0,0.27,-0.14,green,0,-0.27,-0.14,red,0,-0.14,0.41,yellow,0,0.05,0.05,0.15,0.14,-0.14,green,l,101913,26,2020-08-05_23h02.53.540,CDT_GNG_IUS12,2020.1.2,Win32,60,l,1,1.10657,0,93,93,51,1,,,,,,,,,,,,,,,,,,,,,,,,,,,,,,,,,,,,,,,,,,,,,,,,
,,,,,,,,,,,,104,different,8,0.41,0.41,cyan,1,0.41,-0.41,blue,1,-0.27,-0.14,green,1,-0.27,0.14,orange,1,0.14,0.41,red,1,0.27,-0.27,yellow,1,-0.41,-0.27,magenta,1,-0.14,0.41,black,1,0.05,0.05,0.15,-0.14,0.41,magenta,l,101913,26,2020-08-05_23h02.53.540,CDT_GNG_IUS12,2020.1.2,Win32,60,l,1,1.616465,0,94,94,103,1,,,,,,,,,,,,,,,,,,,,,,,,,,,,,,,,,,,,,,,,,,,,,,,,
,,,,,,,,,,,,67,same,8,0.14,0.27,yellow,1,0.27,-0.14,magenta,1,-0.27,-0.27,black,1,-0.41,0.41,blue,1,0.41,0.14,cyan,1,0.14,-0.14,red,1,-0.41,-0.14,orange,1,-0.41,0.27,green,1,0.05,0.05,0.15,-0.27,-0.27,black,k,101913,26,2020-08-05_23h02.53.540,CDT_GNG_IUS12,2020.1.2,Win32,60,k,1,0.80354,0,95,95,66,1,,,,,,,,,,,,,,,,,,,,,,,,,,,,,,,,,,,,,,,,,,,,,,,,
,,,,,,,,,,,,110,different,8,0.41,0.14,orange,1,0.27,-0.27,black,1,-0.14,-0.27,blue,1,-0.27,0.27,cyan,1,0.27,0.41,magenta,1,0.27,-0.41,red,1,-0.27,-0.41,yellow,1,-0.27,0.41,green,1,0.05,0.05,0.15,-0.27,-0.41,red,l,101913,26,2020-08-05_23h02.53.540,CDT_GNG_IUS12,2020.1.2,Win32,60,l,1,0.821565,0,96,96,109,1,,,,,,,,,,,,,,,,,,,,,,,,,,,,,,,,,,,,,,,,,,,,,,,,
,,,,,,,,,,,,80,same,8,0.41,0.14,red,1,0.41,-0.14,blue,1,-0.41,-0.41,black,1,-0.41,0.14,green,1,0.14,0.41,orange,1,0.27,-0.41,cyan,1,-0.41,-0.14,magenta,1,-0.41,0.41,yellow,1,0.05,0.05,0.15,0.27,-0.41,cyan,k,101913,26,2020-08-05_23h02.53.540,CDT_GNG_IUS12,2020.1.2,Win32,60,l,0,2.05603,0,97,97,79,1,,,,,,,,,,,,,,,,,,,,,,,,,,,,,,,,,,,,,,,,,,,,,,,,
,,,,,,,,,,,,94,different,8,0.41,0.27,yellow,1,0.41,-0.27,blue,1,-0.41,-0.14,magenta,1,-0.41,0.27,orange,1,0.41,0.41,red,1,0.41,-0.41,green,1,-0.14,-0.14,black,1,-0.41,0.14,cyan,1,0.05,0.05,0.15,-0.41,0.14,black,l,101913,26,2020-08-05_23h02.53.540,CDT_GNG_IUS12,2020.1.2,Win32,60,l,1,1.03878,0,98,98,93,1,,,,,,,,,,,,,,,,,,,,,,,,,,,,,,,,,,,,,,,,,,,,,,,,
,,,,,,,,,,,,26,same,4,0.14,0.14,black,1,0.14,-0.14,red,1,-0.41,-0.14,yellow,1,-0.14,0.41,orange,1,0.27,0.14,blue,0,0.14,-0.27,magenta,0,-0.27,-0.41,green,0,-0.14,0.27,cyan,0,0.05,0.05,0.15,-0.41,-0.14,yellow,k,101913,26,2020-08-05_23h02.53.540,CDT_GNG_IUS12,2020.1.2,Win32,60,l,0,2.490715,0,99,99,25,1,,,,,,,,,,,,,,,,,,,,,,,,,,,,,,,,,,,,,,,,,,,,,,,,
,,,,,,,,,,,,27,same,4,0.27,0.27,yellow,1,0.27,-0.27,green,1,-0.27,-0.41,cyan,1,-0.14,0.41,black,1,0.14,0.41,blue,0,0.41,-0.14,red,0,-0.14,-0.14,orange,0,-0.27,0.41,magenta,0,0.05,0.05,0.15,0.27,-0.27,green,k,101913,26,2020-08-05_23h02.53.540,CDT_GNG_IUS12,2020.1.2,Win32,60,k,1,1.111615,0,100,100,26,1,,,,,,,,,,,,,,,,,,,,,,,,,,,,,,,,,,,,,,,,,,,,,,,,
,,,,,,,,,,,,20,same,4,0.27,0.14,cyan,1,0.14,-0.14,orange,1,-0.27,-0.27,green,1,-0.41,0.27,yellow,1,0.14,0.41,black,0,0.41,-0.41,red,0,-0.27,-0.41,magenta,0,-0.27,0.27,blue,0,0.05,0.05,0.15,-0.27,-0.27,green,k,101913,26,2020-08-05_23h02.53.540,CDT_GNG_IUS12,2020.1.2,Win32,60,k,1,0.82104,0,101,101,19,1,,,,,,,,,,,,,,,,,,,,,,,,,,,,,,,,,,,,,,,,,,,,,,,,
,,,,,,,,,,,,101,different,8,0.14,0.27,magenta,1,0.14,-0.27,cyan,1,-0.41,-0.14,yellow,1,-0.41,0.14,black,1,0.14,0.41,red,1,0.41,-0.41,blue,1,-0.14,-0.41,green,1,-0.27,0.27,orange,1,0.05,0.05,0.15,-0.41,0.14,magenta,l,101913,26,2020-08-05_23h02.53.540,CDT_GNG_IUS12,2020.1.2,Win32,60,l,1,0.86911,0,102,102,100,1,,,,,,,,,,,,,,,,,,,,,,,,,,,,,,,,,,,,,,,,,,,,,,,,
,,,,,,,,,,,,106,different,8,0.41,0.41,black,1,0.14,-0.41,yellow,1,-0.41,-0.14,orange,1,-0.27,0.27,blue,1,0.14,0.41,red,1,0.41,-0.27,green,1,-0.14,-0.14,cyan,1,-0.14,0.14,magenta,1,0.05,0.05,0.15,-0.41,-0.14,green,l,101913,26,2020-08-05_23h02.53.540,CDT_GNG_IUS12,2020.1.2,Win32,60,l,1,1.561325,0,103,103,105,1,,,,,,,,,,,,,,,,,,,,,,,,,,,,,,,,,,,,,,,,,,,,,,,,
,,,,,,,,,,,,7,same,4,0.41,0.41,yellow,1,0.41,-0.41,blue,1,-0.14,-0.41,black,1,-0.14,0.14,magenta,1,0.27,0.41,red,0,0.41,-0.27,green,0,-0.41,-0.14,cyan,0,-0.14,0.27,orange,0,0.05,0.05,0.15,-0.14,0.14,magenta,k,101913,26,2020-08-05_23h02.53.540,CDT_GNG_IUS12,2020.1.2,Win32,60,l,0,3.290625,0,104,104,6,1,,,,,,,,,,,,,,,,,,,,,,,,,,,,,,,,,,,,,,,,,,,,,,,,
,,,,,,,,,,,,55,different,4,0.14,0.14,black,1,0.41,-0.14,cyan,1,-0.27,-0.27,magenta,1,-0.14,0.41,blue,1,0.27,0.14,yellow,0,0.14,-0.27,red,0,-0.27,-0.41,orange,0,-0.27,0.41,green,0,0.05,0.05,0.15,0.14,0.14,yellow,l,101913,26,2020-08-05_23h02.53.540,CDT_GNG_IUS12,2020.1.2,Win32,60,l,1,1.91549,0,105,105,54,1,,,,,,,,,,,,,,,,,,,,,,,,,,,,,,,,,,,,,,,,,,,,,,,,
,,,,,,,,,,,,46,different,4,0.14,0.14,red,1,0.14,-0.14,green,1,-0.14,-0.41,orange,1,-0.27,0.41,blue,1,0.41,0.27,cyan,0,0.14,-0.27,magenta,0,-0.14,-0.14,black,0,-0.41,0.27,yellow,0,0.05,0.05,0.15,-0.14,-0.41,blue,l,101913,26,2020-08-05_23h02.53.540,CDT_GNG_IUS12,2020.1.2,Win32,60,l,1,1.607865,0,106,106,45,1,,,,,,,,,,,,,,,,,,,,,,,,,,,,,,,,,,,,,,,,,,,,,,,,
,,,,,,,,,,,,79,same,8,0.27,0.14,green,1,0.41,-0.14,yellow,1,-0.27,-0.41,orange,1,-0.14,0.14,black,1,0.41,0.27,cyan,1,0.14,-0.14,red,1,-0.14,-0.27,blue,1,-0.27,0.41,magenta,1,0.05,0.05,0.15,0.41,0.27,cyan,k,101913,26,2020-08-05_23h02.53.540,CDT_GNG_IUS12,2020.1.2,Win32,60,l,0,2.10357,0,107,107,78,1,,,,,,,,,,,,,,,,,,,,,,,,,,,,,,,,,,,,,,,,,,,,,,,,
,,,,,,,,,,,,28,same,4,0.41,0.41,magenta,1,0.27,-0.14,blue,1,-0.14,-0.14,red,1,-0.14,0.41,orange,1,0.14,0.14,black,0,0.41,-0.14,green,0,-0.27,-0.14,yellow,0,-0.14,0.27,cyan,0,0.05,0.05,0.15,0.27,-0.14,blue,k,101913,26,2020-08-05_23h02.53.540,CDT_GNG_IUS12,2020.1.2,Win32,60,k,1,0.934145,0,108,108,27,1,,,,,,,,,,,,,,,,,,,,,,,,,,,,,,,,,,,,,,,,,,,,,,,,
,,,,,,,,,,,,87,same,8,0.27,0.14,red,1,0.14,-0.14,yellow,1,-0.27,-0.14,orange,1,-0.27,0.27,magenta,1,0.41,0.27,blue,1,0.41,-0.41,green,1,-0.27,-0.27,black,1,-0.14,0.27,cyan,1,0.05,0.05,0.15,0.41,-0.41,green,k,101913,26,2020-08-05_23h02.53.540,CDT_GNG_IUS12,2020.1.2,Win32,60,l,0,1.393595,0,109,109,86,1,,,,,,,,,,,,,,,,,,,,,,,,,,,,,,,,,,,,,,,,,,,,,,,,
,,,,,,,,,,,,31,different,4,0.27,0.41,orange,1,0.14,-0.14,black,1,-0.41,-0.41,yellow,1,-0.41,0.27,cyan,1,0.27,0.14,green,0,0.41,-0.27,blue,0,-0.14,-0.41,red,0,-0.41,0.14,magenta,0,0.05,0.05,0.15,-0.41,0.27,yellow,l,101913,26,2020-08-05_23h02.53.540,CDT_GNG_IUS12,2020.1.2,Win32,60,l,1,0.799425,0,110,110,30,1,,,,,,,,,,,,,,,,,,,,,,,,,,,,,,,,,,,,,,,,,,,,,,,,
,,,,,,,,,,,,18,same,4,0.41,0.27,orange,1,0.14,-0.27,blue,1,-0.27,-0.41,yellow,1,-0.41,0.27,magenta,1,0.14,0.41,red,0,0.14,-0.14,black,0,-0.41,-0.27,green,0,-0.41,0.41,cyan,0,0.05,0.05,0.15,0.14,-0.27,blue,k,101913,26,2020-08-05_23h02.53.540,CDT_GNG_IUS12,2020.1.2,Win32,60,k,1,1.100455,0,111,111,17,1,,,,,,,,,,,,,,,,,,,,,,,,,,,,,,,,,,,,,,,,,,,,,,,,
,,,,,,,,,,,,60,different,4,0.41,0.14,cyan,1,0.14,-0.41,green,1,-0.41,-0.41,yellow,1,-0.41,0.41,magenta,1,0.14,0.14,orange,0,0.41,-0.41,red,0,-0.14,-0.41,black,0,-0.27,0.27,blue,0,0.05,0.05,0.15,0.41,0.14,blue,l,101913,26,2020-08-05_23h02.53.540,CDT_GNG_IUS12,2020.1.2,Win32,60,l,1,1.769795,0,112,112,59,1,,,,,,,,,,,,,,,,,,,,,,,,,,,,,,,,,,,,,,,,,,,,,,,,
,,,,,,,,,,,,57,different,4,0.14,0.41,black,1,0.14,-0.14,blue,1,-0.41,-0.14,red,1,-0.41,0.14,orange,1,0.41,0.41,magenta,0,0.41,-0.14,cyan,0,-0.14,-0.27,yellow,0,-0.27,0.41,green,0,0.05,0.05,0.15,-0.41,0.14,blue,l,101913,26,2020-08-05_23h02.53.540,CDT_GNG_IUS12,2020.1.2,Win32,60,l,1,0.85942,0,113,113,56,1,,,,,,,,,,,,,,,,,,,,,,,,,,,,,,,,,,,,,,,,,,,,,,,,
,,,,,,,,,,,,2,same,4,0.27,0.41,magenta,1,0.41,-0.14,red,1,-0.27,-0.14,orange,1,-0.27,0.14,blue,1,0.14,0.14,cyan,0,0.14,-0.14,green,0,-0.14,-0.14,black,0,-0.14,0.41,yellow,0,0.05,0.05,0.15,-0.27,-0.14,orange,k,101913,26,2020-08-05_23h02.53.540,CDT_GNG_IUS12,2020.1.2,Win32,60,l,0,0.952825,0,114,114,1,1,,,,,,,,,,,,,,,,,,,,,,,,,,,,,,,,,,,,,,,,,,,,,,,,
,,,,,,,,,,,,50,different,4,0.41,0.14,black,1,0.14,-0.14,blue,1,-0.41,-0.41,red,1,-0.27,0.14,green,1,0.14,0.41,cyan,0,0.41,-0.14,magenta,0,-0.14,-0.27,yellow,0,-0.27,0.41,orange,0,0.05,0.05,0.15,-0.41,-0.41,orange,l,101913,26,2020-08-05_23h02.53.540,CDT_GNG_IUS12,2020.1.2,Win32,60,l,1,1.53285,0,115,115,49,1,,,,,,,,,,,,,,,,,,,,,,,,,,,,,,,,,,,,,,,,,,,,,,,,
,,,,,,,,,,,,32,different,4,0.41,0.27,orange,1,0.41,-0.41,green,1,-0.14,-0.14,cyan,1,-0.41,0.41,red,1,0.27,0.41,black,0,0.27,-0.41,magenta,0,-0.27,-0.14,blue,0,-0.14,0.14,yellow,0,0.05,0.05,0.15,-0.14,-0.14,blue,l,101913,26,2020-08-05_23h02.53.540,CDT_GNG_IUS12,2020.1.2,Win32,60,l,1,1.045765,0,116,116,31,1,,,,,,,,,,,,,,,,,,,,,,,,,,,,,,,,,,,,,,,,,,,,,,,,
,,,,,,,,,,,,49,different,4,0.27,0.14,green,1,0.41,-0.14,yellow,1,-0.27,-0.41,red,1,-0.14,0.14,cyan,1,0.14,0.14,blue,0,0.27,-0.27,black,0,-0.14,-0.41,orange,0,-0.41,0.14,magenta,0,0.05,0.05,0.15,0.27,0.14,yellow,l,101913,26,2020-08-05_23h02.53.540,CDT_GNG_IUS12,2020.1.2,Win32,60,l,1,0.98583,0,117,117,48,1,,,,,,,,,,,,,,,,,,,,,,,,,,,,,,,,,,,,,,,,,,,,,,,,
,,,,,,,,,,,,109,different,8,0.41,0.14,yellow,1,0.27,-0.27,cyan,1,-0.14,-0.27,magenta,1,-0.27,0.14,orange,1,0.41,0.41,green,1,0.27,-0.41,red,1,-0.27,-0.41,black,1,-0.27,0.41,blue,1,0.05,0.05,0.15,0.27,-0.27,green,l,101913,26,2020-08-05_23h02.53.540,CDT_GNG_IUS12,2020.1.2,Win32,60,l,1,1.183705,0,118,118,108,1,,,,,,,,,,,,,,,,,,,,,,,,,,,,,,,,,,,,,,,,,,,,,,,,
,,,,,,,,,,,,76,same,8,0.14,0.27,orange,1,0.41,-0.14,cyan,1,-0.27,-0.27,blue,1,-0.14,0.14,black,1,0.27,0.41,green,1,0.27,-0.14,red,1,-0.27,-0.14,yellow,1,-0.27,0.27,magenta,1,0.05,0.05,0.15,0.41,-0.14,cyan,k,101913,26,2020-08-05_23h02.53.540,CDT_GNG_IUS12,2020.1.2,Win32,60,l,0,2.60652,0,119,119,75,1,,,,,,,,,,,,,,,,,,,,,,,,,,,,,,,,,,,,,,,,,,,,,,,,
,,,,,,,,,,,,,,,,,,,,,,,,,,,,,,,,,,,,,,,,,,,,,,,,,,,,,,101913,26,2020-08-05_23h02.53.540,CDT_GNG_IUS12,2020.1.2,Win32,60,,,,,,,,,,1,0,0,0,1,1,1,0,,,,,,,,,,,,,,,,,,,,,,,,,,,,,,,,,,,,,,,
,,,,,,,,,,,,,,,,,,,,,,,,,,,,,,,,,,,,,,,,,,,,,,,,,,,,,space,101913,26,2020-08-05_23h02.53.540,CDT_GNG_IUS12,2020.1.2,Win32,60,,,,,,,,,space,1,0,1,1,4,1,0,1,0.41385,,,,,,,,,,,,,,,,,,,,,,,,,,,,,,,,,,,,,,
,,,,,,,,,,,,,,,,,,,,,,,,,,,,,,,,,,,,,,,,,,,,,,,,,,,,,space,101913,26,2020-08-05_23h02.53.540,CDT_GNG_IUS12,2020.1.2,Win32,60,,,,,,,,,space,1,0,2,2,6,1,0,1,0.386645,,,,,,,,,,,,,,,,,,,,,,,,,,,,,,,,,,,,,,
,,,,,,,,,,,,,,,,,,,,,,,,,,,,,,,,,,,,,,,,,,,,,,,,,,,,,space,101913,26,2020-08-05_23h02.53.540,CDT_GNG_IUS12,2020.1.2,Win32,60,,,,,,,,,space,1,0,3,3,5,1,0,1,0.65473,,,,,,,,,,,,,,,,,,,,,,,,,,,,,,,,,,,,,,
,,,,,,,,,,,,,,,,,,,,,,,,,,,,,,,,,,,,,,,,,,,,,,,,,,,,,space,101913,26,2020-08-05_23h02.53.540,CDT_GNG_IUS12,2020.1.2,Win32,60,,,,,,,,,space,1,0,4,4,7,1,0,1,0.421915,,,,,,,,,,,,,,,,,,,,,,,,,,,,,,,,,,,,,,
,,,,,,,,,,,,,,,,,,,,,,,,,,,,,,,,,,,,,,,,,,,,,,,,,,,,,,101913,26,2020-08-05_23h02.53.540,CDT_GNG_IUS12,2020.1.2,Win32,60,,,,,,,,,,1,0,5,5,3,1,1,0,,,,,,,,,,,,,,,,,,,,,,,,,,,,,,,,,,,,,,,
,,,,,,,,,,,,,,,,,,,,,,,,,,,,,,,,,,,,,,,,,,,,,,,,,,,,,,101913,26,2020-08-05_23h02.53.540,CDT_GNG_IUS12,2020.1.2,Win32,60,,,,,,,,,,1,0,6,6,2,1,1,0,,,,,,,,,,,,,,,,,,,,,,,,,,,,,,,,,,,,,,,
,,,,,,,,,,,,,,,,,,,,,,,,,,,,,,,,,,,,,,,,,,,,,,,,,,,,,,101913,26,2020-08-05_23h02.53.540,CDT_GNG_IUS12,2020.1.2,Win32,60,,,,,,,,,,1,0,7,7,0,1,1,0,,,,,,,,,,,,,,,,,,,,,,,,,,,,,,,,,,,,,,,
,,,,,,,,,,,,,,,,,,,,,,,,,,,,,,,,,,,,,,,,,,,,,,,,,,,,,space,101913,26,2020-08-05_23h02.53.540,CDT_GNG_IUS12,2020.1.2,Win32,60,,,,,,,,,,,,,,,,0,1,,,0,0,0,0,48,1,,,,,,,,,,,,,,,,,,,,,,,,,,,,,,,
,,,,,,,,,,,,,,,,,,,,,,,,,,,,,,,,,,,,,,,,,,,,,,,,,,,,,,101913,26,2020-08-05_23h02.53.540,CDT_GNG_IUS12,2020.1.2,Win32,60,,,,,,,,,,,,,,,,1,0,,space,0,0,1,1,3,1,0.01172,,,,,,,,,,,,,,,,,,,,,,,,,,,,,,
,,,,,,,,,,,,,,,,,,,,,,,,,,,,,,,,,,,,,,,,,,,,,,,,,,,,,space,101913,26,2020-08-05_23h02.53.540,CDT_GNG_IUS12,2020.1.2,Win32,60,,,,,,,,,,,,,,,,0,1,,space,1,0,2,2,35,1,0.414735,,,,,,,,,,,,,,,,,,,,,,,,,,,,,,
,,,,,,,,,,,,,,,,,,,,,,,,,,,,,,,,,,,,,,,,,,,,,,,,,,,,,space,101913,26,2020-08-05_23h02.53.540,CDT_GNG_IUS12,2020.1.2,Win32,60,,,,,,,,,,,,,,,,0,1,,,0,0,3,3,37,1,,,,,,,,,,,,,,,,,,,,,,,,,,,,,,,
,,,,,,,,,,,,,,,,,,,,,,,,,,,,,,,,,,,,,,,,,,,,,,,,,,,,,space,101913,26,2020-08-05_23h02.53.540,CDT_GNG_IUS12,2020.1.2,Win32,60,,,,,,,,,,,,,,,,0,1,,space,1,0,4,4,11,1,0.08379,,,,,,,,,,,,,,,,,,,,,,,,,,,,,,
,,,,,,,,,,,,,,,,,,,,,,,,,,,,,,,,,,,,,,,,,,,,,,,,,,,,,space,101913,26,2020-08-05_23h02.53.540,CDT_GNG_IUS12,2020.1.2,Win32,60,,,,,,,,,,,,,,,,0,1,,space,1,0,5,5,12,1,0.22552,,,,,,,,,,,,,,,,,,,,,,,,,,,,,,
,,,,,,,,,,,,,,,,,,,,,,,,,,,,,,,,,,,,,,,,,,,,,,,,,,,,,space,101913,26,2020-08-05_23h02.53.540,CDT_GNG_IUS12,2020.1.2,Win32,60,,,,,,,,,,,,,,,,0,1,,space,1,0,6,6,26,1,0.38838,,,,,,,,,,,,,,,,,,,,,,,,,,,,,,
,,,,,,,,,,,,,,,,,,,,,,,,,,,,,,,,,,,,,,,,,,,,,,,,,,,,,space,101913,26,2020-08-05_23h02.53.540,CDT_GNG_IUS12,2020.1.2,Win32,60,,,,,,,,,,,,,,,,0,1,,space,1,0,7,7,18,1,0.38778,,,,,,,,,,,,,,,,,,,,,,,,,,,,,,
,,,,,,,,,,,,,,,,,,,,,,,,,,,,,,,,,,,,,,,,,,,,,,,,,,,,,space,101913,26,2020-08-05_23h02.53.540,CDT_GNG_IUS12,2020.1.2,Win32,60,,,,,,,,,,,,,,,,0,1,,space,1,0,8,8,42,1,0.5648,,,,,,,,,,,,,,,,,,,,,,,,,,,,,,
,,,,,,,,,,,,,,,,,,,,,,,,,,,,,,,,,,,,,,,,,,,,,,,,,,,,,space,101913,26,2020-08-05_23h02.53.540,CDT_GNG_IUS12,2020.1.2,Win32,60,,,,,,,,,,,,,,,,0,1,,,0,0,9,9,43,1,,,,,,,,,,,,,,,,,,,,,,,,,,,,,,,
,,,,,,,,,,,,,,,,,,,,,,,,,,,,,,,,,,,,,,,,,,,,,,,,,,,,,,101913,26,2020-08-05_23h02.53.540,CDT_GNG_IUS12,2020.1.2,Win32,60,,,,,,,,,,,,,,,,1,0,,space,0,0,10,10,7,1,0.21822,,,,,,,,,,,,,,,,,,,,,,,,,,,,,,
,,,,,,,,,,,,,,,,,,,,,,,,,,,,,,,,,,,,,,,,,,,,,,,,,,,,,space,101913,26,2020-08-05_23h02.53.540,CDT_GNG_IUS12,2020.1.2,Win32,60,,,,,,,,,,,,,,,,0,1,,,0,0,11,11,24,1,,,,,,,,,,,,,,,,,,,,,,,,,,,,,,,
,,,,,,,,,,,,,,,,,,,,,,,,,,,,,,,,,,,,,,,,,,,,,,,,,,,,,space,101913,26,2020-08-05_23h02.53.540,CDT_GNG_IUS12,2020.1.2,Win32,60,,,,,,,,,,,,,,,,0,1,,space,1,0,12,12,22,1,0.273495,,,,,,,,,,,,,,,,,,,,,,,,,,,,,,
,,,,,,,,,,,,,,,,,,,,,,,,,,,,,,,,,,,,,,,,,,,,,,,,,,,,,space,101913,26,2020-08-05_23h02.53.540,CDT_GNG_IUS12,2020.1.2,Win32,60,,,,,,,,,,,,,,,,0,1,,space,1,0,13,13,20,1,0.35759,,,,,,,,,,,,,,,,,,,,,,,,,,,,,,
,,,,,,,,,,,,,,,,,,,,,,,,,,,,,,,,,,,,,,,,,,,,,,,,,,,,,space,101913,26,2020-08-05_23h02.53.540,CDT_GNG_IUS12,2020.1.2,Win32,60,,,,,,,,,,,,,,,,0,1,,space,1,0,14,14,49,1,0.516845,,,,,,,,,,,,,,,,,,,,,,,,,,,,,,
,,,,,,,,,,,,,,,,,,,,,,,,,,,,,,,,,,,,,,,,,,,,,,,,,,,,,space,101913,26,2020-08-05_23h02.53.540,CDT_GNG_IUS12,2020.1.2,Win32,60,,,,,,,,,,,,,,,,0,1,,,0,0,15,15,17,1,,,,,,,,,,,,,,,,,,,,,,,,,,,,,,,
,,,,,,,,,,,,,,,,,,,,,,,,,,,,,,,,,,,,,,,,,,,,,,,,,,,,,space,101913,26,2020-08-05_23h02.53.540,CDT_GNG_IUS12,2020.1.2,Win32,60,,,,,,,,,,,,,,,,0,1,,space,1,0,16,16,13,1,0.1493,,,,,,,,,,,,,,,,,,,,,,,,,,,,,,
,,,,,,,,,,,,,,,,,,,,,,,,,,,,,,,,,,,,,,,,,,,,,,,,,,,,,space,101913,26,2020-08-05_23h02.53.540,CDT_GNG_IUS12,2020.1.2,Win32,60,,,,,,,,,,,,,,,,0,1,,space,1,0,17,17,30,1,0.23231,,,,,,,,,,,,,,,,,,,,,,,,,,,,,,
,,,,,,,,,,,,,,,,,,,,,,,,,,,,,,,,,,,,,,,,,,,,,,,,,,,,,space,101913,26,2020-08-05_23h02.53.540,CDT_GNG_IUS12,2020.1.2,Win32,60,,,,,,,,,,,,,,,,0,1,,space,1,0,18,18,31,1,0.308035,,,,,,,,,,,,,,,,,,,,,,,,,,,,,,
,,,,,,,,,,,,,,,,,,,,,,,,,,,,,,,,,,,,,,,,,,,,,,,,,,,,,space,101913,26,2020-08-05_23h02.53.540,CDT_GNG_IUS12,2020.1.2,Win32,60,,,,,,,,,,,,,,,,0,1,,space,1,0,19,19,25,1,0.44173,,,,,,,,,,,,,,,,,,,,,,,,,,,,,,
,,,,,,,,,,,,,,,,,,,,,,,,,,,,,,,,,,,,,,,,,,,,,,,,,,,,,space,101913,26,2020-08-05_23h02.53.540,CDT_GNG_IUS12,2020.1.2,Win32,60,,,,,,,,,,,,,,,,0,1,,space,1,0,20,20,32,1,0.38555,,,,,,,,,,,,,,,,,,,,,,,,,,,,,,
,,,,,,,,,,,,,,,,,,,,,,,,,,,,,,,,,,,,,,,,,,,,,,,,,,,,,space,101913,26,2020-08-05_23h02.53.540,CDT_GNG_IUS12,2020.1.2,Win32,60,,,,,,,,,,,,,,,,0,1,,,0,0,21,21,33,1,,,,,,,,,,,,,,,,,,,,,,,,,,,,,,,
,,,,,,,,,,,,,,,,,,,,,,,,,,,,,,,,,,,,,,,,,,,,,,,,,,,,,,101913,26,2020-08-05_23h02.53.540,CDT_GNG_IUS12,2020.1.2,Win32,60,,,,,,,,,,,,,,,,1,0,,space,0,0,22,22,9,1,0.01974,,,,,,,,,,,,,,,,,,,,,,,,,,,,,,
,,,,,,,,,,,,,,,,,,,,,,,,,,,,,,,,,,,,,,,,,,,,,,,,,,,,,,101913,26,2020-08-05_23h02.53.540,CDT_GNG_IUS12,2020.1.2,Win32,60,,,,,,,,,,,,,,,,1,0,,,1,0,23,23,2,1,,,,,,,,,,,,,,,,,,,,,,,,,,,,,,,
,,,,,,,,,,,,,,,,,,,,,,,,,,,,,,,,,,,,,,,,,,,,,,,,,,,,,,101913,26,2020-08-05_23h02.53.540,CDT_GNG_IUS12,2020.1.2,Win32,60,,,,,,,,,,,,,,,,1,0,,,1,0,24,24,8,1,,,,,,,,,,,,,,,,,,,,,,,,,,,,,,,
,,,,,,,,,,,,,,,,,,,,,,,,,,,,,,,,,,,,,,,,,,,,,,,,,,,,,space,101913,26,2020-08-05_23h02.53.540,CDT_GNG_IUS12,2020.1.2,Win32,60,,,,,,,,,,,,,,,,0,1,,,0,0,25,25,47,1,,,,,,,,,,,,,,,,,,,,,,,,,,,,,,,
,,,,,,,,,,,,,,,,,,,,,,,,,,,,,,,,,,,,,,,,,,,,,,,,,,,,,space,101913,26,2020-08-05_23h02.53.540,CDT_GNG_IUS12,2020.1.2,Win32,60,,,,,,,,,,,,,,,,0,1,,space,1,0,26,26,14,1,0.52583,,,,,,,,,,,,,,,,,,,,,,,,,,,,,,
,,,,,,,,,,,,,,,,,,,,,,,,,,,,,,,,,,,,,,,,,,,,,,,,,,,,,space,101913,26,2020-08-05_23h02.53.540,CDT_GNG_IUS12,2020.1.2,Win32,60,,,,,,,,,,,,,,,,0,1,,space,1,0,27,27,16,1,0.52016,,,,,,,,,,,,,,,,,,,,,,,,,,,,,,
,,,,,,,,,,,,,,,,,,,,,,,,,,,,,,,,,,,,,,,,,,,,,,,,,,,,,space,101913,26,2020-08-05_23h02.53.540,CDT_GNG_IUS12,2020.1.2,Win32,60,,,,,,,,,,,,,,,,0,1,,,0,0,28,28,19,1,,,,,,,,,,,,,,,,,,,,,,,,,,,,,,,
,,,,,,,,,,,,,,,,,,,,,,,,,,,,,,,,,,,,,,,,,,,,,,,,,,,,,,101913,26,2020-08-05_23h02.53.540,CDT_GNG_IUS12,2020.1.2,Win32,60,,,,,,,,,,,,,,,,1,0,,space,0,0,29,29,0,1,0.09899,,,,,,,,,,,,,,,,,,,,,,,,,,,,,,
,,,,,,,,,,,,,,,,,,,,,,,,,,,,,,,,,,,,,,,,,,,,,,,,,,,,,space,101913,26,2020-08-05_23h02.53.540,CDT_GNG_IUS12,2020.1.2,Win32,60,,,,,,,,,,,,,,,,0,1,,,0,0,30,30,29,1,,,,,,,,,,,,,,,,,,,,,,,,,,,,,,,
,,,,,,,,,,,,,,,,,,,,,,,,,,,,,,,,,,,,,,,,,,,,,,,,,,,,,,101913,26,2020-08-05_23h02.53.540,CDT_GNG_IUS12,2020.1.2,Win32,60,,,,,,,,,,,,,,,,1,0,,,1,0,31,31,1,1,,,,,,,,,,,,,,,,,,,,,,,,,,,,,,,
,,,,,,,,,,,,,,,,,,,,,,,,,,,,,,,,,,,,,,,,,,,,,,,,,,,,,space,101913,26,2020-08-05_23h02.53.540,CDT_GNG_IUS12,2020.1.2,Win32,60,,,,,,,,,,,,,,,,0,1,,space,1,0,32,32,10,1,0.215625,,,,,,,,,,,,,,,,,,,,,,,,,,,,,,
,,,,,,,,,,,,,,,,,,,,,,,,,,,,,,,,,,,,,,,,,,,,,,,,,,,,,space,101913,26,2020-08-05_23h02.53.540,CDT_GNG_IUS12,2020.1.2,Win32,60,,,,,,,,,,,,,,,,0,1,,,0,0,33,33,21,1,,,,,,,,,,,,,,,,,,,,,,,,,,,,,,,
,,,,,,,,,,,,,,,,,,,,,,,,,,,,,,,,,,,,,,,,,,,,,,,,,,,,,space,101913,26,2020-08-05_23h02.53.540,CDT_GNG_IUS12,2020.1.2,Win32,60,,,,,,,,,,,,,,,,0,1,,space,1,0,34,34,44,1,0.28254,,,,,,,,,,,,,,,,,,,,,,,,,,,,,,
,,,,,,,,,,,,,,,,,,,,,,,,,,,,,,,,,,,,,,,,,,,,,,,,,,,,,,101913,26,2020-08-05_23h02.53.540,CDT_GNG_IUS12,2020.1.2,Win32,60,,,,,,,,,,,,,,,,1,0,,,1,0,35,35,5,1,,,,,,,,,,,,,,,,,,,,,,,,,,,,,,,
,,,,,,,,,,,,,,,,,,,,,,,,,,,,,,,,,,,,,,,,,,,,,,,,,,,,,space,101913,26,2020-08-05_23h02.53.540,CDT_GNG_IUS12,2020.1.2,Win32,60,,,,,,,,,,,,,,,,0,1,,space,1,0,36,36,15,1,0.255545,,,,,,,,,,,,,,,,,,,,,,,,,,,,,,
,,,,,,,,,,,,,,,,,,,,,,,,,,,,,,,,,,,,,,,,,,,,,,,,,,,,,space,101913,26,2020-08-05_23h02.53.540,CDT_GNG_IUS12,2020.1.2,Win32,60,,,,,,,,,,,,,,,,0,1,,,0,0,37,37,41,1,,,,,,,,,,,,,,,,,,,,,,,,,,,,,,,
,,,,,,,,,,,,,,,,,,,,,,,,,,,,,,,,,,,,,,,,,,,,,,,,,,,,,space,101913,26,2020-08-05_23h02.53.540,CDT_GNG_IUS12,2020.1.2,Win32,60,,,,,,,,,,,,,,,,0,1,,space,1,0,38,38,40,1,0.18756,,,,,,,,,,,,,,,,,,,,,,,,,,,,,,
,,,,,,,,,,,,,,,,,,,,,,,,,,,,,,,,,,,,,,,,,,,,,,,,,,,,,space,101913,26,2020-08-05_23h02.53.540,CDT_GNG_IUS12,2020.1.2,Win32,60,,,,,,,,,,,,,,,,0,1,,space,1,0,39,39,45,1,0.08803,,,,,,,,,,,,,,,,,,,,,,,,,,,,,,
,,,,,,,,,,,,,,,,,,,,,,,,,,,,,,,,,,,,,,,,,,,,,,,,,,,,,space,101913,26,2020-08-05_23h02.53.540,CDT_GNG_IUS12,2020.1.2,Win32,60,,,,,,,,,,,,,,,,0,1,,space,1,0,40,40,46,1,0.247635,,,,,,,,,,,,,,,,,,,,,,,,,,,,,,
,,,,,,,,,,,,,,,,,,,,,,,,,,,,,,,,,,,,,,,,,,,,,,,,,,,,,,101913,26,2020-08-05_23h02.53.540,CDT_GNG_IUS12,2020.1.2,Win32,60,,,,,,,,,,,,,,,,1,0,,,1,0,41,41,4,1,,,,,,,,,,,,,,,,,,,,,,,,,,,,,,,
,,,,,,,,,,,,,,,,,,,,,,,,,,,,,,,,,,,,,,,,,,,,,,,,,,,,,space,101913,26,2020-08-05_23h02.53.540,CDT_GNG_IUS12,2020.1.2,Win32,60,,,,,,,,,,,,,,,,0,1,,,0,0,42,42,34,1,,,,,,,,,,,,,,,,,,,,,,,,,,,,,,,
,,,,,,,,,,,,,,,,,,,,,,,,,,,,,,,,,,,,,,,,,,,,,,,,,,,,,space,101913,26,2020-08-05_23h02.53.540,CDT_GNG_IUS12,2020.1.2,Win32,60,,,,,,,,,,,,,,,,0,1,,space,1,0,43,43,23,1,0.015415,,,,,,,,,,,,,,,,,,,,,,,,,,,,,,
,,,,,,,,,,,,,,,,,,,,,,,,,,,,,,,,,,,,,,,,,,,,,,,,,,,,,space,101913,26,2020-08-05_23h02.53.540,CDT_GNG_IUS12,2020.1.2,Win32,60,,,,,,,,,,,,,,,,0,1,,space,1,0,44,44,28,1,0.040655,,,,,,,,,,,,,,,,,,,,,,,,,,,,,,
,,,,,,,,,,,,,,,,,,,,,,,,,,,,,,,,,,,,,,,,,,,,,,,,,,,,,space,101913,26,2020-08-05_23h02.53.540,CDT_GNG_IUS12,2020.1.2,Win32,60,,,,,,,,,,,,,,,,0,1,,space,1,0,45,45,39,1,0.28522,,,,,,,,,,,,,,,,,,,,,,,,,,,,,,
,,,,,,,,,,,,,,,,,,,,,,,,,,,,,,,,,,,,,,,,,,,,,,,,,,,,,space,101913,26,2020-08-05_23h02.53.540,CDT_GNG_IUS12,2020.1.2,Win32,60,,,,,,,,,,,,,,,,0,1,,space,1,0,46,46,36,1,0.371795,,,,,,,,,,,,,,,,,,,,,,,,,,,,,,
,,,,,,,,,,,,,,,,,,,,,,,,,,,,,,,,,,,,,,,,,,,,,,,,,,,,,space,101913,26,2020-08-05_23h02.53.540,CDT_GNG_IUS12,2020.1.2,Win32,60,,,,,,,,,,,,,,,,0,1,,space,1,0,47,47,38,1,0.549355,,,,,,,,,,,,,,,,,,,,,,,,,,,,,,
,,,,,,,,,,,,,,,,,,,,,,,,,,,,,,,,,,,,,,,,,,,,,,,,,,,,,space,101913,26,2020-08-05_23h02.53.540,CDT_GNG_IUS12,2020.1.2,Win32,60,,,,,,,,,,,,,,,,0,1,,,0,0,48,48,27,1,,,,,,,,,,,,,,,,,,,,,,,,,,,,,,,
,,,,,,,,,,,,,,,,,,,,,,,,,,,,,,,,,,,,,,,,,,,,,,,,,,,,,,101913,26,2020-08-05_23h02.53.540,CDT_GNG_IUS12,2020.1.2,Win32,60,,,,,,,,,,,,,,,,1,0,,space,0,0,49,49,6,1,0.231965,,,,,,,,,,,,,,,,,,,,,,,,,,,,,,
,,,,,,,,,,,,,,,,,,,,,,,,,,,,,,,,,,,,,,,,,,,,,,,,,,,,,space,101913,26,2020-08-05_23h02.53.540,CDT_GNG_IUS12,2020.1.2,Win32,60,,,,,,,,,,,,,,,,0,1,,,0,,,,,,,0,0,0,45,1,,,,,,,,,,,,,,,,,,,,,,,,,
,,,,,,,,,,,,,,,,,,,,,,,,,,,,,,,,,,,,,,,,,,,,,,,,,,,,,space,101913,26,2020-08-05_23h02.53.540,CDT_GNG_IUS12,2020.1.2,Win32,60,,,,,,,,,,,,,,,,0,1,,space,1,,,,,,0.106785,0,1,1,25,1,,,,,,,,,,,,,,,,,,,,,,,,,
,,,,,,,,,,,,,,,,,,,,,,,,,,,,,,,,,,,,,,,,,,,,,,,,,,,,,,101913,26,2020-08-05_23h02.53.540,CDT_GNG_IUS12,2020.1.2,Win32,60,,,,,,,,,,,,,,,,1,0,,space,0,,,,,,0.0656,0,2,2,2,1,,,,,,,,,,,,,,,,,,,,,,,,,
,,,,,,,,,,,,,,,,,,,,,,,,,,,,,,,,,,,,,,,,,,,,,,,,,,,,,space,101913,26,2020-08-05_23h02.53.540,CDT_GNG_IUS12,2020.1.2,Win32,60,,,,,,,,,,,,,,,,0,1,,,0,,,,,,,0,3,3,11,1,,,,,,,,,,,,,,,,,,,,,,,,,
,,,,,,,,,,,,,,,,,,,,,,,,,,,,,,,,,,,,,,,,,,,,,,,,,,,,,space,101913,26,2020-08-05_23h02.53.540,CDT_GNG_IUS12,2020.1.2,Win32,60,,,,,,,,,,,,,,,,0,1,,space,1,,,,,,0.172325,0,4,4,10,1,,,,,,,,,,,,,,,,,,,,,,,,,
,,,,,,,,,,,,,,,,,,,,,,,,,,,,,,,,,,,,,,,,,,,,,,,,,,,,,space,101913,26,2020-08-05_23h02.53.540,CDT_GNG_IUS12,2020.1.2,Win32,60,,,,,,,,,,,,,,,,0,1,,space,1,,,,,,0.20987,0,5,5,14,1,,,,,,,,,,,,,,,,,,,,,,,,,
,,,,,,,,,,,,,,,,,,,,,,,,,,,,,,,,,,,,,,,,,,,,,,,,,,,,,space,101913,26,2020-08-05_23h02.53.540,CDT_GNG_IUS12,2020.1.2,Win32,60,,,,,,,,,,,,,,,,0,1,,space,1,,,,,,0.23926,0,6,6,35,1,,,,,,,,,,,,,,,,,,,,,,,,,
,,,,,,,,,,,,,,,,,,,,,,,,,,,,,,,,,,,,,,,,,,,,,,,,,,,,,space,101913,26,2020-08-05_23h02.53.540,CDT_GNG_IUS12,2020.1.2,Win32,60,,,,,,,,,,,,,,,,0,1,,space,1,,,,,,0.221485,0,7,7,29,1,,,,,,,,,,,,,,,,,,,,,,,,,
,,,,,,,,,,,,,,,,,,,,,,,,,,,,,,,,,,,,,,,,,,,,,,,,,,,,,space,101913,26,2020-08-05_23h02.53.540,CDT_GNG_IUS12,2020.1.2,Win32,60,,,,,,,,,,,,,,,,0,1,,space,1,,,,,,0.200575,0,8,8,27,1,,,,,,,,,,,,,,,,,,,,,,,,,
,,,,,,,,,,,,,,,,,,,,,,,,,,,,,,,,,,,,,,,,,,,,,,,,,,,,,space,101913,26,2020-08-05_23h02.53.540,CDT_GNG_IUS12,2020.1.2,Win32,60,,,,,,,,,,,,,,,,0,1,,space,1,,,,,,0.19131,0,9,9,41,1,,,,,,,,,,,,,,,,,,,,,,,,,
,,,,,,,,,,,,,,,,,,,,,,,,,,,,,,,,,,,,,,,,,,,,,,,,,,,,,,101913,26,2020-08-05_23h02.53.540,CDT_GNG_IUS12,2020.1.2,Win32,60,,,,,,,,,,,,,,,,1,0,,,1,,,,,,,0,10,10,6,1,,,,,,,,,,,,,,,,,,,,,,,,,
,,,,,,,,,,,,,,,,,,,,,,,,,,,,,,,,,,,,,,,,,,,,,,,,,,,,,space,101913,26,2020-08-05_23h02.53.540,CDT_GNG_IUS12,2020.1.2,Win32,60,,,,,,,,,,,,,,,,0,1,,space,1,,,,,,0.24192,0,11,11,20,1,,,,,,,,,,,,,,,,,,,,,,,,,
,,,,,,,,,,,,,,,,,,,,,,,,,,,,,,,,,,,,,,,,,,,,,,,,,,,,,space,101913,26,2020-08-05_23h02.53.540,CDT_GNG_IUS12,2020.1.2,Win32,60,,,,,,,,,,,,,,,,0,1,,space,1,,,,,,0.38777,0,12,12,33,1,,,,,,,,,,,,,,,,,,,,,,,,,
,,,,,,,,,,,,,,,,,,,,,,,,,,,,,,,,,,,,,,,,,,,,,,,,,,,,,space,101913,26,2020-08-05_23h02.53.540,CDT_GNG_IUS12,2020.1.2,Win32,60,,,,,,,,,,,,,,,,0,1,,space,1,,,,,,0.43992,0,13,13,22,1,,,,,,,,,,,,,,,,,,,,,,,,,
,,,,,,,,,,,,,,,,,,,,,,,,,,,,,,,,,,,,,,,,,,,,,,,,,,,,,space,101913,26,2020-08-05_23h02.53.540,CDT_GNG_IUS12,2020.1.2,Win32,60,,,,,,,,,,,,,,,,0,1,,space,1,,,,,,0.467865,0,14,14,12,1,,,,,,,,,,,,,,,,,,,,,,,,,
,,,,,,,,,,,,,,,,,,,,,,,,,,,,,,,,,,,,,,,,,,,,,,,,,,,,,,101913,26,2020-08-05_23h02.53.540,CDT_GNG_IUS12,2020.1.2,Win32,60,,,,,,,,,,,,,,,,1,0,,,1,,,,,,,0,15,15,3,1,,,,,,,,,,,,,,,,,,,,,,,,,
,,,,,,,,,,,,,,,,,,,,,,,,,,,,,,,,,,,,,,,,,,,,,,,,,,,,,,101913,26,2020-08-05_23h02.53.540,CDT_GNG_IUS12,2020.1.2,Win32,60,,,,,,,,,,,,,,,,1,0,,,1,,,,,,,0,16,16,1,1,,,,,,,,,,,,,,,,,,,,,,,,,
,,,,,,,,,,,,,,,,,,,,,,,,,,,,,,,,,,,,,,,,,,,,,,,,,,,,,,101913,26,2020-08-05_23h02.53.540,CDT_GNG_IUS12,2020.1.2,Win32,60,,,,,,,,,,,,,,,,1,0,,,1,,,,,,,0,17,17,9,1,,,,,,,,,,,,,,,,,,,,,,,,,
,,,,,,,,,,,,,,,,,,,,,,,,,,,,,,,,,,,,,,,,,,,,,,,,,,,,,,101913,26,2020-08-05_23h02.53.540,CDT_GNG_IUS12,2020.1.2,Win32,60,,,,,,,,,,,,,,,,1,0,,,1,,,,,,,0,18,18,4,1,,,,,,,,,,,,,,,,,,,,,,,,,
,,,,,,,,,,,,,,,,,,,,,,,,,,,,,,,,,,,,,,,,,,,,,,,,,,,,,space,101913,26,2020-08-05_23h02.53.540,CDT_GNG_IUS12,2020.1.2,Win32,60,,,,,,,,,,,,,,,,0,1,,space,1,,,,,,0.31628,0,19,19,37,1,,,,,,,,,,,,,,,,,,,,,,,,,
,,,,,,,,,,,,,,,,,,,,,,,,,,,,,,,,,,,,,,,,,,,,,,,,,,,,,space,101913,26,2020-08-05_23h02.53.540,CDT_GNG_IUS12,2020.1.2,Win32,60,,,,,,,,,,,,,,,,0,1,,space,1,,,,,,0.38527,0,20,20,42,1,,,,,,,,,,,,,,,,,,,,,,,,,
,,,,,,,,,,,,,,,,,,,,,,,,,,,,,,,,,,,,,,,,,,,,,,,,,,,,,space,101913,26,2020-08-05_23h02.53.540,CDT_GNG_IUS12,2020.1.2,Win32,60,,,,,,,,,,,,,,,,0,1,,space,1,,,,,,0.38753,0,21,21,36,1,,,,,,,,,,,,,,,,,,,,,,,,,
,,,,,,,,,,,,,,,,,,,,,,,,,,,,,,,,,,,,,,,,,,,,,,,,,,,,,space,101913,26,2020-08-05_23h02.53.540,CDT_GNG_IUS12,2020.1.2,Win32,60,,,,,,,,,,,,,,,,0,1,,space,1,,,,,,0.28469,0,22,22,48,1,,,,,,,,,,,,,,,,,,,,,,,,,
,,,,,,,,,,,,,,,,,,,,,,,,,,,,,,,,,,,,,,,,,,,,,,,,,,,,,space,101913,26,2020-08-05_23h02.53.540,CDT_GNG_IUS12,2020.1.2,Win32,60,,,,,,,,,,,,,,,,0,1,,space,1,,,,,,0.34174,0,23,23,19,1,,,,,,,,,,,,,,,,,,,,,,,,,
,,,,,,,,,,,,,,,,,,,,,,,,,,,,,,,,,,,,,,,,,,,,,,,,,,,,,,101913,26,2020-08-05_23h02.53.540,CDT_GNG_IUS12,2020.1.2,Win32,60,,,,,,,,,,,,,,,,1,0,,,1,,,,,,,0,24,24,5,1,,,,,,,,,,,,,,,,,,,,,,,,,
,,,,,,,,,,,,,,,,,,,,,,,,,,,,,,,,,,,,,,,,,,,,,,,,,,,,,,101913,26,2020-08-05_23h02.53.540,CDT_GNG_IUS12,2020.1.2,Win32,60,,,,,,,,,,,,,,,,1,0,,,1,,,,,,,0,25,25,7,1,,,,,,,,,,,,,,,,,,,,,,,,,
,,,,,,,,,,,,,,,,,,,,,,,,,,,,,,,,,,,,,,,,,,,,,,,,,,,,,space,101913,26,2020-08-05_23h02.53.540,CDT_GNG_IUS12,2020.1.2,Win32,60,,,,,,,,,,,,,,,,0,1,,space,1,,,,,,0.3282,0,26,26,23,1,,,,,,,,,,,,,,,,,,,,,,,,,
,,,,,,,,,,,,,,,,,,,,,,,,,,,,,,,,,,,,,,,,,,,,,,,,,,,,,space,101913,26,2020-08-05_23h02.53.540,CDT_GNG_IUS12,2020.1.2,Win32,60,,,,,,,,,,,,,,,,0,1,,space,1,,,,,,0.335475,0,27,27,38,1,,,,,,,,,,,,,,,,,,,,,,,,,
,,,,,,,,,,,,,,,,,,,,,,,,,,,,,,,,,,,,,,,,,,,,,,,,,,,,,space,101913,26,2020-08-05_23h02.53.540,CDT_GNG_IUS12,2020.1.2,Win32,60,,,,,,,,,,,,,,,,0,1,,space,1,,,,,,0.277005,0,28,28,31,1,,,,,,,,,,,,,,,,,,,,,,,,,
,,,,,,,,,,,,,,,,,,,,,,,,,,,,,,,,,,,,,,,,,,,,,,,,,,,,,space,101913,26,2020-08-05_23h02.53.540,CDT_GNG_IUS12,2020.1.2,Win32,60,,,,,,,,,,,,,,,,0,1,,space,1,,,,,,0.291075,0,29,29,40,1,,,,,,,,,,,,,,,,,,,,,,,,,
,,,,,,,,,,,,,,,,,,,,,,,,,,,,,,,,,,,,,,,,,,,,,,,,,,,,,space,101913,26,2020-08-05_23h02.53.540,CDT_GNG_IUS12,2020.1.2,Win32,60,,,,,,,,,,,,,,,,0,1,,space,1,,,,,,0.3208,0,30,30,18,1,,,,,,,,,,,,,,,,,,,,,,,,,
,,,,,,,,,,,,,,,,,,,,,,,,,,,,,,,,,,,,,,,,,,,,,,,,,,,,,space,101913,26,2020-08-05_23h02.53.540,CDT_GNG_IUS12,2020.1.2,Win32,60,,,,,,,,,,,,,,,,0,1,,space,1,,,,,,0.424805,0,31,31,49,1,,,,,,,,,,,,,,,,,,,,,,,,,
,,,,,,,,,,,,,,,,,,,,,,,,,,,,,,,,,,,,,,,,,,,,,,,,,,,,,space,101913,26,2020-08-05_23h02.53.540,CDT_GNG_IUS12,2020.1.2,Win32,60,,,,,,,,,,,,,,,,0,1,,space,1,,,,,,0.18729,0,32,32,17,1,,,,,,,,,,,,,,,,,,,,,,,,,
,,,,,,,,,,,,,,,,,,,,,,,,,,,,,,,,,,,,,,,,,,,,,,,,,,,,,space,101913,26,2020-08-05_23h02.53.540,CDT_GNG_IUS12,2020.1.2,Win32,60,,,,,,,,,,,,,,,,0,1,,space,1,,,,,,0.537395,0,33,33,43,1,,,,,,,,,,,,,,,,,,,,,,,,,
,,,,,,,,,,,,,,,,,,,,,,,,,,,,,,,,,,,,,,,,,,,,,,,,,,,,,,101913,26,2020-08-05_23h02.53.540,CDT_GNG_IUS12,2020.1.2,Win32,60,,,,,,,,,,,,,,,,1,0,,,1,,,,,,,0,34,34,0,1,,,,,,,,,,,,,,,,,,,,,,,,,
,,,,,,,,,,,,,,,,,,,,,,,,,,,,,,,,,,,,,,,,,,,,,,,,,,,,,space,101913,26,2020-08-05_23h02.53.540,CDT_GNG_IUS12,2020.1.2,Win32,60,,,,,,,,,,,,,,,,0,1,,,0,,,,,,,0,35,35,34,1,,,,,,,,,,,,,,,,,,,,,,,,,
,,,,,,,,,,,,,,,,,,,,,,,,,,,,,,,,,,,,,,,,,,,,,,,,,,,,,space,101913,26,2020-08-05_23h02.53.540,CDT_GNG_IUS12,2020.1.2,Win32,60,,,,,,,,,,,,,,,,0,1,,space,1,,,,,,0.217985,0,36,36,47,1,,,,,,,,,,,,,,,,,,,,,,,,,
,,,,,,,,,,,,,,,,,,,,,,,,,,,,,,,,,,,,,,,,,,,,,,,,,,,,,space,101913,26,2020-08-05_23h02.53.540,CDT_GNG_IUS12,2020.1.2,Win32,60,,,,,,,,,,,,,,,,0,1,,,0,,,,,,,0,37,37,32,1,,,,,,,,,,,,,,,,,,,,,,,,,
,,,,,,,,,,,,,,,,,,,,,,,,,,,,,,,,,,,,,,,,,,,,,,,,,,,,,space,101913,26,2020-08-05_23h02.53.540,CDT_GNG_IUS12,2020.1.2,Win32,60,,,,,,,,,,,,,,,,0,1,,space,1,,,,,,0.515595,0,38,38,26,1,,,,,,,,,,,,,,,,,,,,,,,,,
,,,,,,,,,,,,,,,,,,,,,,,,,,,,,,,,,,,,,,,,,,,,,,,,,,,,,space,101913,26,2020-08-05_23h02.53.540,CDT_GNG_IUS12,2020.1.2,Win32,60,,,,,,,,,,,,,,,,0,1,,,0,,,,,,,0,39,39,15,1,,,,,,,,,,,,,,,,,,,,,,,,,
,,,,,,,,,,,,,,,,,,,,,,,,,,,,,,,,,,,,,,,,,,,,,,,,,,,,,,101913,26,2020-08-05_23h02.53.540,CDT_GNG_IUS12,2020.1.2,Win32,60,,,,,,,,,,,,,,,,1,0,,,1,,,,,,,0,40,40,8,1,,,,,,,,,,,,,,,,,,,,,,,,,
,,,,,,,,,,,,,,,,,,,,,,,,,,,,,,,,,,,,,,,,,,,,,,,,,,,,,space,101913,26,2020-08-05_23h02.53.540,CDT_GNG_IUS12,2020.1.2,Win32,60,,,,,,,,,,,,,,,,0,1,,space,1,,,,,,0.009875,0,41,41,21,1,,,,,,,,,,,,,,,,,,,,,,,,,
,,,,,,,,,,,,,,,,,,,,,,,,,,,,,,,,,,,,,,,,,,,,,,,,,,,,,space,101913,26,2020-08-05_23h02.53.540,CDT_GNG_IUS12,2020.1.2,Win32,60,,,,,,,,,,,,,,,,0,1,,space,1,,,,,,0.265635,0,42,42,46,1,,,,,,,,,,,,,,,,,,,,,,,,,
,,,,,,,,,,,,,,,,,,,,,,,,,,,,,,,,,,,,,,,,,,,,,,,,,,,,,space,101913,26,2020-08-05_23h02.53.540,CDT_GNG_IUS12,2020.1.2,Win32,60,,,,,,,,,,,,,,,,0,1,,space,1,,,,,,0.331495,0,43,43,24,1,,,,,,,,,,,,,,,,,,,,,,,,,
,,,,,,,,,,,,,,,,,,,,,,,,,,,,,,,,,,,,,,,,,,,,,,,,,,,,,space,101913,26,2020-08-05_23h02.53.540,CDT_GNG_IUS12,2020.1.2,Win32,60,,,,,,,,,,,,,,,,0,1,,space,1,,,,,,0.434895,0,44,44,16,1,,,,,,,,,,,,,,,,,,,,,,,,,
,,,,,,,,,,,,,,,,,,,,,,,,,,,,,,,,,,,,,,,,,,,,,,,,,,,,,space,101913,26,2020-08-05_23h02.53.540,CDT_GNG_IUS12,2020.1.2,Win32,60,,,,,,,,,,,,,,,,0,1,,,0,,,,,,,0,45,45,13,1,,,,,,,,,,,,,,,,,,,,,,,,,
,,,,,,,,,,,,,,,,,,,,,,,,,,,,,,,,,,,,,,,,,,,,,,,,,,,,,space,101913,26,2020-08-05_23h02.53.540,CDT_GNG_IUS12,2020.1.2,Win32,60,,,,,,,,,,,,,,,,0,1,,,0,,,,,,,0,46,46,44,1,,,,,,,,,,,,,,,,,,,,,,,,,
,,,,,,,,,,,,,,,,,,,,,,,,,,,,,,,,,,,,,,,,,,,,,,,,,,,,,space,101913,26,2020-08-05_23h02.53.540,CDT_GNG_IUS12,2020.1.2,Win32,60,,,,,,,,,,,,,,,,0,1,,space,1,,,,,,0.067405,0,47,47,28,1,,,,,,,,,,,,,,,,,,,,,,,,,
,,,,,,,,,,,,,,,,,,,,,,,,,,,,,,,,,,,,,,,,,,,,,,,,,,,,,space,101913,26,2020-08-05_23h02.53.540,CDT_GNG_IUS12,2020.1.2,Win32,60,,,,,,,,,,,,,,,,0,1,,space,1,,,,,,0.209075,0,48,48,30,1,,,,,,,,,,,,,,,,,,,,,,,,,
,,,,,,,,,,,,,,,,,,,,,,,,,,,,,,,,,,,,,,,,,,,,,,,,,,,,,space,101913,26,2020-08-05_23h02.53.540,CDT_GNG_IUS12,2020.1.2,Win32,60,,,,,,,,,,,,,,,,0,1,,space,1,,,,,,0.275445,0,49,49,39,1,,,,,,,,,,,,,,,,,,,,,,,,,
,,,,,,,,,,,,,,,,,,,,,,,,,,,,,,,,,,,,,,,,,,,,,,,,,,,,,space,101913,26,2020-08-05_23h02.53.540,CDT_GNG_IUS12,2020.1.2,Win32,60,,,,,,,,,,,,,,,,0,1,,space,1,,,,,,0.28829,,,,,,0,0,0,42,1,,,,,,,,,,,,,,,,,,,,
,,,,,,,,,,,,,,,,,,,,,,,,,,,,,,,,,,,,,,,,,,,,,,,,,,,,,space,101913,26,2020-08-05_23h02.53.540,CDT_GNG_IUS12,2020.1.2,Win32,60,,,,,,,,,,,,,,,,0,1,,space,1,,,,,,0.29389,,,,,,0,1,1,31,1,,,,,,,,,,,,,,,,,,,,
,,,,,,,,,,,,,,,,,,,,,,,,,,,,,,,,,,,,,,,,,,,,,,,,,,,,,space,101913,26,2020-08-05_23h02.53.540,CDT_GNG_IUS12,2020.1.2,Win32,60,,,,,,,,,,,,,,,,0,1,,space,1,,,,,,0.237985,,,,,,0,2,2,28,1,,,,,,,,,,,,,,,,,,,,
,,,,,,,,,,,,,,,,,,,,,,,,,,,,,,,,,,,,,,,,,,,,,,,,,,,,,space,101913,26,2020-08-05_23h02.53.540,CDT_GNG_IUS12,2020.1.2,Win32,60,,,,,,,,,,,,,,,,0,1,,space,1,,,,,,0.216575,,,,,,0,3,3,18,1,,,,,,,,,,,,,,,,,,,,
,,,,,,,,,,,,,,,,,,,,,,,,,,,,,,,,,,,,,,,,,,,,,,,,,,,,,space,101913,26,2020-08-05_23h02.53.540,CDT_GNG_IUS12,2020.1.2,Win32,60,,,,,,,,,,,,,,,,0,1,,space,1,,,,,,0.18926,,,,,,0,4,4,25,1,,,,,,,,,,,,,,,,,,,,
,,,,,,,,,,,,,,,,,,,,,,,,,,,,,,,,,,,,,,,,,,,,,,,,,,,,,space,101913,26,2020-08-05_23h02.53.540,CDT_GNG_IUS12,2020.1.2,Win32,60,,,,,,,,,,,,,,,,0,1,,space,1,,,,,,0.206605,,,,,,0,5,5,19,1,,,,,,,,,,,,,,,,,,,,
,,,,,,,,,,,,,,,,,,,,,,,,,,,,,,,,,,,,,,,,,,,,,,,,,,,,,space,101913,26,2020-08-05_23h02.53.540,CDT_GNG_IUS12,2020.1.2,Win32,60,,,,,,,,,,,,,,,,0,1,,space,1,,,,,,0.253595,,,,,,0,6,6,33,1,,,,,,,,,,,,,,,,,,,,
,,,,,,,,,,,,,,,,,,,,,,,,,,,,,,,,,,,,,,,,,,,,,,,,,,,,,space,101913,26,2020-08-05_23h02.53.540,CDT_GNG_IUS12,2020.1.2,Win32,60,,,,,,,,,,,,,,,,0,1,,space,1,,,,,,0.23915,,,,,,0,7,7,47,1,,,,,,,,,,,,,,,,,,,,
,,,,,,,,,,,,,,,,,,,,,,,,,,,,,,,,,,,,,,,,,,,,,,,,,,,,,,101913,26,2020-08-05_23h02.53.540,CDT_GNG_IUS12,2020.1.2,Win32,60,,,,,,,,,,,,,,,,1,0,,,1,,,,,,,,,,,,0,8,8,1,1,,,,,,,,,,,,,,,,,,,,
,,,,,,,,,,,,,,,,,,,,,,,,,,,,,,,,,,,,,,,,,,,,,,,,,,,,,,101913,26,2020-08-05_23h02.53.540,CDT_GNG_IUS12,2020.1.2,Win32,60,,,,,,,,,,,,,,,,1,0,,space,0,,,,,,0.217555,,,,,,0,9,9,3,1,,,,,,,,,,,,,,,,,,,,
,,,,,,,,,,,,,,,,,,,,,,,,,,,,,,,,,,,,,,,,,,,,,,,,,,,,,,101913,26,2020-08-05_23h02.53.540,CDT_GNG_IUS12,2020.1.2,Win32,60,,,,,,,,,,,,,,,,1,0,,,1,,,,,,,,,,,,0,10,10,8,1,,,,,,,,,,,,,,,,,,,,
,,,,,,,,,,,,,,,,,,,,,,,,,,,,,,,,,,,,,,,,,,,,,,,,,,,,,space,101913,26,2020-08-05_23h02.53.540,CDT_GNG_IUS12,2020.1.2,Win32,60,,,,,,,,,,,,,,,,0,1,,space,1,,,,,,0.498185,,,,,,0,11,11,26,1,,,,,,,,,,,,,,,,,,,,
,,,,,,,,,,,,,,,,,,,,,,,,,,,,,,,,,,,,,,,,,,,,,,,,,,,,,space,101913,26,2020-08-05_23h02.53.540,CDT_GNG_IUS12,2020.1.2,Win32,60,,,,,,,,,,,,,,,,0,1,,space,1,,,,,,0.49823,,,,,,0,12,12,15,1,,,,,,,,,,,,,,,,,,,,
,,,,,,,,,,,,,,,,,,,,,,,,,,,,,,,,,,,,,,,,,,,,,,,,,,,,,space,101913,26,2020-08-05_23h02.53.540,CDT_GNG_IUS12,2020.1.2,Win32,60,,,,,,,,,,,,,,,,0,1,,,0,,,,,,,,,,,,0,13,13,14,1,,,,,,,,,,,,,,,,,,,,
,,,,,,,,,,,,,,,,,,,,,,,,,,,,,,,,,,,,,,,,,,,,,,,,,,,,,space,101913,26,2020-08-05_23h02.53.540,CDT_GNG_IUS12,2020.1.2,Win32,60,,,,,,,,,,,,,,,,0,1,,space,1,,,,,,0.081835,,,,,,0,14,14,29,1,,,,,,,,,,,,,,,,,,,,
,,,,,,,,,,,,,,,,,,,,,,,,,,,,,,,,,,,,,,,,,,,,,,,,,,,,,,101913,26,2020-08-05_23h02.53.540,CDT_GNG_IUS12,2020.1.2,Win32,60,,,,,,,,,,,,,,,,1,0,,space,0,,,,,,0.158235,,,,,,0,15,15,9,1,,,,,,,,,,,,,,,,,,,,
,,,,,,,,,,,,,,,,,,,,,,,,,,,,,,,,,,,,,,,,,,,,,,,,,,,,,space,101913,26,2020-08-05_23h02.53.540,CDT_GNG_IUS12,2020.1.2,Win32,60,,,,,,,,,,,,,,,,0,1,,,0,,,,,,,,,,,,0,16,16,40,1,,,,,,,,,,,,,,,,,,,,
,,,,,,,,,,,,,,,,,,,,,,,,,,,,,,,,,,,,,,,,,,,,,,,,,,,,,space,101913,26,2020-08-05_23h02.53.540,CDT_GNG_IUS12,2020.1.2,Win32,60,,,,,,,,,,,,,,,,0,1,,space,1,,,,,,0.232195,,,,,,0,17,17,43,1,,,,,,,,,,,,,,,,,,,,
,,,,,,,,,,,,,,,,,,,,,,,,,,,,,,,,,,,,,,,,,,,,,,,,,,,,,space,101913,26,2020-08-05_23h02.53.540,CDT_GNG_IUS12,2020.1.2,Win32,60,,,,,,,,,,,,,,,,0,1,,space,1,,,,,,0.258415,,,,,,0,18,18,23,1,,,,,,,,,,,,,,,,,,,,
,,,,,,,,,,,,,,,,,,,,,,,,,,,,,,,,,,,,,,,,,,,,,,,,,,,,,space,101913,26,2020-08-05_23h02.53.540,CDT_GNG_IUS12,2020.1.2,Win32,60,,,,,,,,,,,,,,,,0,1,,space,1,,,,,,0.35421,,,,,,0,19,19,11,1,,,,,,,,,,,,,,,,,,,,
,,,,,,,,,,,,,,,,,,,,,,,,,,,,,,,,,,,,,,,,,,,,,,,,,,,,,space,101913,26,2020-08-05_23h02.53.540,CDT_GNG_IUS12,2020.1.2,Win32,60,,,,,,,,,,,,,,,,0,1,,space,1,,,,,,0.411085,,,,,,0,20,20,13,1,,,,,,,,,,,,,,,,,,,,
,,,,,,,,,,,,,,,,,,,,,,,,,,,,,,,,,,,,,,,,,,,,,,,,,,,,,,101913,26,2020-08-05_23h02.53.540,CDT_GNG_IUS12,2020.1.2,Win32,60,,,,,,,,,,,,,,,,1,0,,,1,,,,,,,,,,,,0,21,21,6,1,,,,,,,,,,,,,,,,,,,,
,,,,,,,,,,,,,,,,,,,,,,,,,,,,,,,,,,,,,,,,,,,,,,,,,,,,,space,101913,26,2020-08-05_23h02.53.540,CDT_GNG_IUS12,2020.1.2,Win32,60,,,,,,,,,,,,,,,,0,1,,,0,,,,,,,,,,,,0,22,22,37,1,,,,,,,,,,,,,,,,,,,,
,,,,,,,,,,,,,,,,,,,,,,,,,,,,,,,,,,,,,,,,,,,,,,,,,,,,,space,101913,26,2020-08-05_23h02.53.540,CDT_GNG_IUS12,2020.1.2,Win32,60,,,,,,,,,,,,,,,,0,1,,space,1,,,,,,0.1416,,,,,,0,23,23,16,1,,,,,,,,,,,,,,,,,,,,
,,,,,,,,,,,,,,,,,,,,,,,,,,,,,,,,,,,,,,,,,,,,,,,,,,,,,,101913,26,2020-08-05_23h02.53.540,CDT_GNG_IUS12,2020.1.2,Win32,60,,,,,,,,,,,,,,,,1,0,,,1,,,,,,,,,,,,0,24,24,4,1,,,,,,,,,,,,,,,,,,,,
,,,,,,,,,,,,,,,,,,,,,,,,,,,,,,,,,,,,,,,,,,,,,,,,,,,,,space,101913,26,2020-08-05_23h02.53.540,CDT_GNG_IUS12,2020.1.2,Win32,60,,,,,,,,,,,,,,,,0,1,,,0,,,,,,,,,,,,0,25,25,38,1,,,,,,,,,,,,,,,,,,,,
,,,,,,,,,,,,,,,,,,,,,,,,,,,,,,,,,,,,,,,,,,,,,,,,,,,,,space,101913,26,2020-08-05_23h02.53.540,CDT_GNG_IUS12,2020.1.2,Win32,60,,,,,,,,,,,,,,,,0,1,,space,1,,,,,,0.30706,,,,,,0,26,26,49,1,,,,,,,,,,,,,,,,,,,,
,,,,,,,,,,,,,,,,,,,,,,,,,,,,,,,,,,,,,,,,,,,,,,,,,,,,,space,101913,26,2020-08-05_23h02.53.540,CDT_GNG_IUS12,2020.1.2,Win32,60,,,,,,,,,,,,,,,,0,1,,,0,,,,,,,,,,,,0,27,27,41,1,,,,,,,,,,,,,,,,,,,,
,,,,,,,,,,,,,,,,,,,,,,,,,,,,,,,,,,,,,,,,,,,,,,,,,,,,,,101913,26,2020-08-05_23h02.53.540,CDT_GNG_IUS12,2020.1.2,Win32,60,,,,,,,,,,,,,,,,1,0,,,1,,,,,,,,,,,,0,28,28,0,1,,,,,,,,,,,,,,,,,,,,
,,,,,,,,,,,,,,,,,,,,,,,,,,,,,,,,,,,,,,,,,,,,,,,,,,,,,space,101913,26,2020-08-05_23h02.53.540,CDT_GNG_IUS12,2020.1.2,Win32,60,,,,,,,,,,,,,,,,0,1,,space,1,,,,,,0.18961,,,,,,0,29,29,10,1,,,,,,,,,,,,,,,,,,,,
,,,,,,,,,,,,,,,,,,,,,,,,,,,,,,,,,,,,,,,,,,,,,,,,,,,,,space,101913,26,2020-08-05_23h02.53.540,CDT_GNG_IUS12,2020.1.2,Win32,60,,,,,,,,,,,,,,,,0,1,,space,1,,,,,,0.33258,,,,,,0,30,30,32,1,,,,,,,,,,,,,,,,,,,,
,,,,,,,,,,,,,,,,,,,,,,,,,,,,,,,,,,,,,,,,,,,,,,,,,,,,,space,101913,26,2020-08-05_23h02.53.540,CDT_GNG_IUS12,2020.1.2,Win32,60,,,,,,,,,,,,,,,,0,1,,space,1,,,,,,0.367195,,,,,,0,31,31,44,1,,,,,,,,,,,,,,,,,,,,
,,,,,,,,,,,,,,,,,,,,,,,,,,,,,,,,,,,,,,,,,,,,,,,,,,,,,space,101913,26,2020-08-05_23h02.53.540,CDT_GNG_IUS12,2020.1.2,Win32,60,,,,,,,,,,,,,,,,0,1,,,0,,,,,,,,,,,,0,32,32,17,1,,,,,,,,,,,,,,,,,,,,
,,,,,,,,,,,,,,,,,,,,,,,,,,,,,,,,,,,,,,,,,,,,,,,,,,,,,space,101913,26,2020-08-05_23h02.53.540,CDT_GNG_IUS12,2020.1.2,Win32,60,,,,,,,,,,,,,,,,0,1,,space,1,,,,,,0.015845,,,,,,0,33,33,45,1,,,,,,,,,,,,,,,,,,,,
,,,,,,,,,,,,,,,,,,,,,,,,,,,,,,,,,,,,,,,,,,,,,,,,,,,,,space,101913,26,2020-08-05_23h02.53.540,CDT_GNG_IUS12,2020.1.2,Win32,60,,,,,,,,,,,,,,,,0,1,,space,1,,,,,,0.3098,,,,,,0,34,34,20,1,,,,,,,,,,,,,,,,,,,,
,,,,,,,,,,,,,,,,,,,,,,,,,,,,,,,,,,,,,,,,,,,,,,,,,,,,,,101913,26,2020-08-05_23h02.53.540,CDT_GNG_IUS12,2020.1.2,Win32,60,,,,,,,,,,,,,,,,1,0,,,1,,,,,,,,,,,,0,35,35,5,1,,,,,,,,,,,,,,,,,,,,
,,,,,,,,,,,,,,,,,,,,,,,,,,,,,,,,,,,,,,,,,,,,,,,,,,,,,space,101913,26,2020-08-05_23h02.53.540,CDT_GNG_IUS12,2020.1.2,Win32,60,,,,,,,,,,,,,,,,0,1,,space,1,,,,,,0.21221,,,,,,0,36,36,24,1,,,,,,,,,,,,,,,,,,,,
,,,,,,,,,,,,,,,,,,,,,,,,,,,,,,,,,,,,,,,,,,,,,,,,,,,,,space,101913,26,2020-08-05_23h02.53.540,CDT_GNG_IUS12,2020.1.2,Win32,60,,,,,,,,,,,,,,,,0,1,,space,1,,,,,,0.23182,,,,,,0,37,37,12,1,,,,,,,,,,,,,,,,,,,,
,,,,,,,,,,,,,,,,,,,,,,,,,,,,,,,,,,,,,,,,,,,,,,,,,,,,,space,101913,26,2020-08-05_23h02.53.540,CDT_GNG_IUS12,2020.1.2,Win32,60,,,,,,,,,,,,,,,,0,1,,space,1,,,,,,0.231295,,,,,,0,38,38,46,1,,,,,,,,,,,,,,,,,,,,
,,,,,,,,,,,,,,,,,,,,,,,,,,,,,,,,,,,,,,,,,,,,,,,,,,,,,space,101913,26,2020-08-05_23h02.53.540,CDT_GNG_IUS12,2020.1.2,Win32,60,,,,,,,,,,,,,,,,0,1,,space,1,,,,,,0.308625,,,,,,0,39,39,21,1,,,,,,,,,,,,,,,,,,,,
,,,,,,,,,,,,,,,,,,,,,,,,,,,,,,,,,,,,,,,,,,,,,,,,,,,,,space,101913,26,2020-08-05_23h02.53.540,CDT_GNG_IUS12,2020.1.2,Win32,60,,,,,,,,,,,,,,,,0,1,,space,1,,,,,,0.26535,,,,,,0,40,40,34,1,,,,,,,,,,,,,,,,,,,,
,,,,,,,,,,,,,,,,,,,,,,,,,,,,,,,,,,,,,,,,,,,,,,,,,,,,,space,101913,26,2020-08-05_23h02.53.540,CDT_GNG_IUS12,2020.1.2,Win32,60,,,,,,,,,,,,,,,,0,1,,space,1,,,,,,0.33249,,,,,,0,41,41,27,1,,,,,,,,,,,,,,,,,,,,
,,,,,,,,,,,,,,,,,,,,,,,,,,,,,,,,,,,,,,,,,,,,,,,,,,,,,space,101913,26,2020-08-05_23h02.53.540,CDT_GNG_IUS12,2020.1.2,Win32,60,,,,,,,,,,,,,,,,0,1,,space,1,,,,,,0.386345,,,,,,0,42,42,36,1,,,,,,,,,,,,,,,,,,,,
,,,,,,,,,,,,,,,,,,,,,,,,,,,,,,,,,,,,,,,,,,,,,,,,,,,,,space,101913,26,2020-08-05_23h02.53.540,CDT_GNG_IUS12,2020.1.2,Win32,60,,,,,,,,,,,,,,,,0,1,,space,1,,,,,,0.364815,,,,,,0,43,43,48,1,,,,,,,,,,,,,,,,,,,,
,,,,,,,,,,,,,,,,,,,,,,,,,,,,,,,,,,,,,,,,,,,,,,,,,,,,,space,101913,26,2020-08-05_23h02.53.540,CDT_GNG_IUS12,2020.1.2,Win32,60,,,,,,,,,,,,,,,,0,1,,space,1,,,,,,0.51131,,,,,,0,44,44,35,1,,,,,,,,,,,,,,,,,,,,
,,,,,,,,,,,,,,,,,,,,,,,,,,,,,,,,,,,,,,,,,,,,,,,,,,,,,space,101913,26,2020-08-05_23h02.53.540,CDT_GNG_IUS12,2020.1.2,Win32,60,,,,,,,,,,,,,,,,0,1,,space,1,,,,,,0.53273,,,,,,0,45,45,30,1,,,,,,,,,,,,,,,,,,,,
,,,,,,,,,,,,,,,,,,,,,,,,,,,,,,,,,,,,,,,,,,,,,,,,,,,,,,101913,26,2020-08-05_23h02.53.540,CDT_GNG_IUS12,2020.1.2,Win32,60,,,,,,,,,,,,,,,,1,0,,,1,,,,,,,,,,,,0,46,46,2,1,,,,,,,,,,,,,,,,,,,,
,,,,,,,,,,,,,,,,,,,,,,,,,,,,,,,,,,,,,,,,,,,,,,,,,,,,,space,101913,26,2020-08-05_23h02.53.540,CDT_GNG_IUS12,2020.1.2,Win32,60,,,,,,,,,,,,,,,,0,1,,,0,,,,,,,,,,,,0,47,47,39,1,,,,,,,,,,,,,,,,,,,,
,,,,,,,,,,,,,,,,,,,,,,,,,,,,,,,,,,,,,,,,,,,,,,,,,,,,,,101913,26,2020-08-05_23h02.53.540,CDT_GNG_IUS12,2020.1.2,Win32,60,,,,,,,,,,,,,,,,1,0,,,1,,,,,,,,,,,,0,48,48,7,1,,,,,,,,,,,,,,,,,,,,
,,,,,,,,,,,,,,,,,,,,,,,,,,,,,,,,,,,,,,,,,,,,,,,,,,,,,space,101913,26,2020-08-05_23h02.53.540,CDT_GNG_IUS12,2020.1.2,Win32,60,,,,,,,,,,,,,,,,0,1,,,0,,,,,,,,,,,,0,49,49,22,1,,,,,,,,,,,,,,,,,,,,
,,,,,,,,,,,,,,,,,,,,,,,,,,,,,,,,,,,,,,,,,,,,,,,,,,,,,,101913,26,2020-08-05_23h02.53.540,CDT_GNG_IUS12,2020.1.2,Win32,60,,,,,,,,,,,,,,,,,,,,,,,,,,,,,,,,,,,,,7.935185185,65.673275,0,0,0,0,1,1,"On a scale from 0 to 10, indicate your personal perception of your proficiency level for English (10 being the highest score)",,,,,,,,,,,
,,,,,,,,,,,,,,,,,,,,,,,,,,,,,,,,,,,,,,,,,,,,,,,,,,,,,,101913,26,2020-08-05_23h02.53.540,CDT_GNG_IUS12,2020.1.2,Win32,60,,,,,,,,,,,,,,,,,,,,,,,,,,,,,,,,,,,,,8.046296296,10.023205,0,1,1,1,1,2,"On a scale from 0 to 10, indicate how frequently you are exposed to English (10 being 'always', 0 being 'never')",,,,,,,,,,,
,,,,,,,,,,,,,,,,,,,,,,,,,,,,,,,,,,,,,,,,,,,,,,,,,,,,,,101913,26,2020-08-05_23h02.53.540,CDT_GNG_IUS12,2020.1.2,Win32,60,,,,,,,,,,,,,,,,,,,,,,,,,,,,,,,,,,,,,,,,,,,,,"On a scale from 0 to 10, indicate your personal perception of your proficiency level for English (10 being the highest score)",3.085185185,8.90814,0,0,0,0,1,1,Unforeseen events upset me greatly.,,
,,,,,,,,,,,,,,,,,,,,,,,,,,,,,,,,,,,,,,,,,,,,,,,,,,,,,,101913,26,2020-08-05_23h02.53.540,CDT_GNG_IUS12,2020.1.2,Win32,60,,,,,,,,,,,,,,,,,,,,,,,,,,,,,,,,,,,,,,,,,,,,,"On a scale from 0 to 10, indicate how frequently you are exposed to English (10 being 'always', 0 being 'never')",3.951851852,16.481645,0,1,1,1,1,2,It frustrates me not having all the information I need.,,
,,,,,,,,,,,,,,,,,,,,,,,,,,,,,,,,,,,,,,,,,,,,,,,,,,,,,,101913,26,2020-08-05_23h02.53.540,CDT_GNG_IUS12,2020.1.2,Win32,60,,,,,,,,,,,,,,,,,,,,,,,,,,,,,,,,,,,,,,,,,,,,,,1.992592593,19.113185,0,2,2,2,1,3,One should always look ahead so as to avoid surprises.,,
,,,,,,,,,,,,,,,,,,,,,,,,,,,,,,,,,,,,,,,,,,,,,,,,,,,,,,101913,26,2020-08-05_23h02.53.540,CDT_GNG_IUS12,2020.1.2,Win32,60,,,,,,,,,,,,,,,,,,,,,,,,,,,,,,,,,,,,,,,,,,,,,,1.007407407,7.03143,0,3,3,3,1,4,"A small, unforeseen event can spoil everything, even with the best of planning. ",,
,,,,,,,,,,,,,,,,,,,,,,,,,,,,,,,,,,,,,,,,,,,,,,,,,,,,,,101913,26,2020-08-05_23h02.53.540,CDT_GNG_IUS12,2020.1.2,Win32,60,,,,,,,,,,,,,,,,,,,,,,,,,,,,,,,,,,,,,,,,,,,,,,1,5.506935,0,4,4,4,1,5,I always want to know what the future has in store for me.,,
,,,,,,,,,,,,,,,,,,,,,,,,,,,,,,,,,,,,,,,,,,,,,,,,,,,,,,101913,26,2020-08-05_23h02.53.540,CDT_GNG_IUS12,2020.1.2,Win32,60,,,,,,,,,,,,,,,,,,,,,,,,,,,,,,,,,,,,,,,,,,,,,,1.974074074,11.098855,0,5,5,5,1,6,I can't stand being taken by surprise.,,
,,,,,,,,,,,,,,,,,,,,,,,,,,,,,,,,,,,,,,,,,,,,,,,,,,,,,,101913,26,2020-08-05_23h02.53.540,CDT_GNG_IUS12,2020.1.2,Win32,60,,,,,,,,,,,,,,,,,,,,,,,,,,,,,,,,,,,,,,,,,,,,,,2.018518519,6.439985,0,6,6,6,1,7,I should be able to organize everything in advance,,
,,,,,,,,,,,,,,,,,,,,,,,,,,,,,,,,,,,,,,,,,,,,,,,,,,,,,,101913,26,2020-08-05_23h02.53.540,CDT_GNG_IUS12,2020.1.2,Win32,60,,,,,,,,,,,,,,,,,,,,,,,,,,,,,,,,,,,,,,,,,,,,,,1.988888889,4.937015,0,7,7,7,1,8,Uncertainty keeps me from living a full life.,,
,,,,,,,,,,,,,,,,,,,,,,,,,,,,,,,,,,,,,,,,,,,,,,,,,,,,,,101913,26,2020-08-05_23h02.53.540,CDT_GNG_IUS12,2020.1.2,Win32,60,,,,,,,,,,,,,,,,,,,,,,,,,,,,,,,,,,,,,,,,,,,,,,1,6.63181,0,8,8,8,1,9,"When it's time to act, uncertainty paralyses me. ",,
,,,,,,,,,,,,,,,,,,,,,,,,,,,,,,,,,,,,,,,,,,,,,,,,,,,,,,101913,26,2020-08-05_23h02.53.540,CDT_GNG_IUS12,2020.1.2,Win32,60,,,,,,,,,,,,,,,,,,,,,,,,,,,,,,,,,,,,,,,,,,,,,,2.033333333,7.56176,0,9,9,9,1,10,"When I am uncertain, I can't function very well. ",,
,,,,,,,,,,,,,,,,,,,,,,,,,,,,,,,,,,,,,,,,,,,,,,,,,,,,,,101913,26,2020-08-05_23h02.53.540,CDT_GNG_IUS12,2020.1.2,Win32,60,,,,,,,,,,,,,,,,,,,,,,,,,,,,,,,,,,,,,,,,,,,,,,1,4.46159,0,10,10,10,1,11,The smallest doubt can stop me from acting. ,,
,,,,,,,,,,,,,,,,,,,,,,,,,,,,,,,,,,,,,,,,,,,,,,,,,,,,,,101913,26,2020-08-05_23h02.53.540,CDT_GNG_IUS12,2020.1.2,Win32,60,,,,,,,,,,,,,,,,,,,,,,,,,,,,,,,,,,,,,,,,,,,,,,2.040740741,6.452555,0,11,11,11,1,12,I must get away from all uncertain situations. ,,
,,,,,,,,,,,,,,,,,,,,,,,,,,,,,,,,,,,,,,,,,,,,,,,,,,,,,,101913,26,2020-08-05_23h02.53.540,CDT_GNG_IUS12,2020.1.2,Win32,60,,,,,,,,,,,,,,,,,,,,,,,,,,,,,,,,,,,,,,,,,,,,,,,,,,,,,,,x,2.90975
