key_resp_6.keys,key_resp_6.rt,key_resp_2.keys,key_resp_2.corr,key_resp_2.rt,CDT_trials_train.thisRepN,CDT_trials_train.thisTrialN,CDT_trials_train.thisN,CDT_trials_train.thisIndex,CDT_trials_train.ran,trialnum,condit,stimamt,stim1posx,stim1posy,stim1col,stim1opa,stim2posx,stim2posy,stim2col,stim2opa,stim3posx,stim3posy,stim3col,stim3opa,stim4posx,stim4posy,stim4col,stim4opa,stim5posx,stim5posy,stim5col,stim5opa,stim6posx,stim6posy,stim6col,stim6opa,stimsizex,stimsizey,stimdur,targetposx,targetposy,targetcol,corrAns,participant,age,date,expName,psychopyVersion,OS,frameRate,key_resp_5.keys,key_resp.keys,key_resp.corr,key_resp.rt,CDT_trials.thisRepN,CDT_trials.thisTrialN,CDT_trials.thisN,CDT_trials.thisIndex,CDT_trials.ran,key_resp_5.rt,trialResp_Train.keys,trialResp_Train.corr,trialResp_Train.rt,GNGtrials_train.thisRepN,GNGtrials_train.thisTrialN,GNGtrials_train.thisN,GNGtrials_train.thisIndex,GNGtrials_train.ran,orangeOpacity,blueOpacity,trialResp.keys,trialResp.corr,trialResp.rt,GNG_trials_1.thisRepN,GNG_trials_1.thisTrialN,GNG_trials_1.thisN,GNG_trials_1.thisIndex,GNG_trials_1.ran,GNG_trials_2.thisRepN,GNG_trials_2.thisTrialN,GNG_trials_2.thisN,GNG_trials_2.thisIndex,GNG_trials_2.ran,GNG_trials_3.thisRepN,GNG_trials_3.thisTrialN,GNG_trials_3.thisN,GNG_trials_3.thisIndex,GNG_trials_3.ran,slider_2.response,slider_2.rt,engprof_trials.thisRepN,engprof_trials.thisTrialN,engprof_trials.thisN,engprof_trials.thisIndex,engprof_trials.ran,qpnumber,qproficiency,slider.response,slider.rt,IUS12_trials.thisRepN,IUS12_trials.thisTrialN,IUS12_trials.thisN,IUS12_trials.thisIndex,IUS12_trials.ran,qnumber,qenglish,key_resp_end.keys,key_resp_end.rt
y,3.189455,k,1,1.26455,0,0,0,0,1,1,same,4,0.273779233,-0.054755847,black,1,-0.16426754,-0.273779233,magenta,1,-0.16426754,0.16426754,orange,1,0.16426754,0.054755847,yellow,1,0.16426754,-0.054755847,cyan,0,-0.054755847,-0.16426754,blue,0,0.05,0.05,0.15,-0.16426754,0.16426754,orange,k,112,20,2020-10-22_12h11.01.180,CDT_GNG_IUS12,2020.1.2,Linux aarch64,60,,,,,,,,,,,,,,,,,,,,,,,,,,,,,,,,,,,,,,,,,,,,,,,,,,,,,,,,,,
,,l,1,1.161635,0,1,1,1,1,2,different,4,0.054755847,-0.054755847,orange,1,-0.273779233,0.273779233,magenta,1,0.273779233,0.16426754,yellow,1,-0.273779233,-0.16426754,blue,1,0.273779233,-0.054755847,red,0,-0.273779233,0.054755847,cyan,0,0.05,0.05,0.15,-0.273779233,-0.16426754,black,l,112,20,2020-10-22_12h11.01.180,CDT_GNG_IUS12,2020.1.2,Linux aarch64,60,,,,,,,,,,,,,,,,,,,,,,,,,,,,,,,,,,,,,,,,,,,,,,,,,,,,,,,,,,
,,l,0,1.096215,0,2,2,2,1,3,same,6,-0.054755847,0.273779233,green,1,0.273779233,-0.273779233,magenta,1,0.273779233,0.16426754,cyan,1,-0.054755847,-0.054755847,black,1,-0.273779233,0.16426754,orange,1,0.16426754,-0.054755847,blue,1,0.05,0.05,0.15,-0.054755847,0.273779233,green,k,112,20,2020-10-22_12h11.01.180,CDT_GNG_IUS12,2020.1.2,Linux aarch64,60,,,,,,,,,,,,,,,,,,,,,,,,,,,,,,,,,,,,,,,,,,,,,,,,,,,,,,,,,,
,,l,1,1.1363,0,3,3,3,1,4,different,6,0.16426754,-0.054755847,orange,1,-0.054755847,0.273779233,red,1,0.273779233,0.273779233,green,1,-0.054755847,-0.273779233,yellow,1,0.273779233,-0.054755847,blue,1,-0.16426754,0.16426754,black,1,0.05,0.05,0.15,0.273779233,0.273779233,cyan,l,112,20,2020-10-22_12h11.01.180,CDT_GNG_IUS12,2020.1.2,Linux aarch64,60,,,,,,,,,,,,,,,,,,,,,,,,,,,,,,,,,,,,,,,,,,,,,,,,,,,,,,,,,,
,,,,,,,,,,67,same,6,0.273779233,-0.054755847,magenta,1,0.16426754,0.273779233,orange,1,-0.273779233,0.273779233,cyan,1,-0.16426754,-0.054755847,yellow,1,0.16426754,-0.16426754,blue,1,0.16426754,0.16426754,red,1,0.05,0.05,0.15,-0.273779233,0.273779233,cyan,k,112,20,2020-10-22_12h11.01.180,CDT_GNG_IUS12,2020.1.2,Linux aarch64,60,,k,1,0.99691,0,0,0,66,1,,,,,,,,,,,,,,,,,,,,,,,,,,,,,,,,,,,,,,,,,,,,,,,,,
,,,,,,,,,,11,same,4,0.273779233,0.16426754,black,1,-0.054755847,0.273779233,cyan,1,0.16426754,-0.054755847,blue,1,-0.273779233,-0.16426754,orange,1,0.054755847,0.273779233,magenta,0,-0.273779233,0.054755847,green,0,0.05,0.05,0.15,0.273779233,0.16426754,black,k,112,20,2020-10-22_12h11.01.180,CDT_GNG_IUS12,2020.1.2,Linux aarch64,60,,l,0,0.486085,0,1,1,10,1,,,,,,,,,,,,,,,,,,,,,,,,,,,,,,,,,,,,,,,,,,,,,,,,,
,,,,,,,,,,89,same,6,-0.054755847,-0.273779233,cyan,1,-0.16426754,0.16426754,green,1,0.273779233,0.273779233,black,1,0.273779233,-0.273779233,orange,1,-0.273779233,-0.16426754,magenta,1,-0.16426754,0.273779233,yellow,1,0.05,0.05,0.15,-0.16426754,0.273779233,yellow,k,112,20,2020-10-22_12h11.01.180,CDT_GNG_IUS12,2020.1.2,Linux aarch64,60,,l,0,0.912735,0,2,2,88,1,,,,,,,,,,,,,,,,,,,,,,,,,,,,,,,,,,,,,,,,,,,,,,,,,
,,,,,,,,,,25,same,4,0.16426754,-0.273779233,green,1,-0.16426754,-0.273779233,black,1,0.16426754,0.054755847,cyan,1,-0.273779233,0.273779233,blue,1,0.054755847,-0.273779233,yellow,0,-0.273779233,-0.273779233,red,0,0.05,0.05,0.15,-0.273779233,0.273779233,blue,k,112,20,2020-10-22_12h11.01.180,CDT_GNG_IUS12,2020.1.2,Linux aarch64,60,,k,1,0.62008,0,3,3,24,1,,,,,,,,,,,,,,,,,,,,,,,,,,,,,,,,,,,,,,,,,,,,,,,,,
,,,,,,,,,,94,different,6,0.273779233,-0.273779233,green,1,-0.16426754,-0.054755847,black,1,-0.273779233,0.16426754,blue,1,0.273779233,0.054755847,cyan,1,0.16426754,-0.16426754,magenta,1,-0.054755847,-0.054755847,orange,1,0.05,0.05,0.15,0.273779233,-0.273779233,magenta,l,112,20,2020-10-22_12h11.01.180,CDT_GNG_IUS12,2020.1.2,Linux aarch64,60,,l,1,0.99854,0,4,4,93,1,,,,,,,,,,,,,,,,,,,,,,,,,,,,,,,,,,,,,,,,,,,,,,,,,
,,,,,,,,,,6,same,4,0.273779233,0.273779233,blue,1,-0.273779233,-0.16426754,magenta,1,-0.054755847,0.054755847,green,1,0.054755847,-0.054755847,black,1,0.054755847,0.054755847,orange,0,-0.054755847,-0.054755847,red,0,0.05,0.05,0.15,-0.054755847,0.054755847,green,k,112,20,2020-10-22_12h11.01.180,CDT_GNG_IUS12,2020.1.2,Linux aarch64,60,,k,1,1.263975,0,5,5,5,1,,,,,,,,,,,,,,,,,,,,,,,,,,,,,,,,,,,,,,,,,,,,,,,,,
,,,,,,,,,,38,different,4,0.273779233,-0.16426754,red,1,-0.054755847,0.16426754,blue,1,-0.273779233,-0.054755847,green,1,0.273779233,0.054755847,cyan,1,0.16426754,-0.054755847,orange,0,-0.054755847,0.054755847,yellow,0,0.05,0.05,0.15,0.273779233,0.054755847,black,l,112,20,2020-10-22_12h11.01.180,CDT_GNG_IUS12,2020.1.2,Linux aarch64,60,,l,1,1.006635,0,6,6,37,1,,,,,,,,,,,,,,,,,,,,,,,,,,,,,,,,,,,,,,,,,,,,,,,,,
,,,,,,,,,,44,different,4,0.16426754,0.16426754,green,1,0.16426754,-0.16426754,black,1,-0.16426754,-0.054755847,cyan,1,-0.16426754,0.054755847,magenta,1,0.16426754,0.054755847,blue,0,0.054755847,-0.273779233,yellow,0,0.05,0.05,0.15,0.16426754,0.16426754,red,l,112,20,2020-10-22_12h11.01.180,CDT_GNG_IUS12,2020.1.2,Linux aarch64,60,,l,1,0.928945,0,7,7,43,1,,,,,,,,,,,,,,,,,,,,,,,,,,,,,,,,,,,,,,,,,,,,,,,,,
,,,,,,,,,,88,same,6,0.054755847,0.054755847,orange,1,0.054755847,-0.273779233,red,1,-0.16426754,-0.16426754,magenta,1,-0.16426754,0.273779233,yellow,1,0.16426754,0.16426754,blue,1,0.273779233,-0.16426754,cyan,1,0.05,0.05,0.15,-0.16426754,0.273779233,yellow,k,112,20,2020-10-22_12h11.01.180,CDT_GNG_IUS12,2020.1.2,Linux aarch64,60,,l,0,1.162535,0,8,8,87,1,,,,,,,,,,,,,,,,,,,,,,,,,,,,,,,,,,,,,,,,,,,,,,,,,
,,,,,,,,,,62,same,6,0.054755847,-0.054755847,yellow,1,-0.273779233,-0.16426754,green,1,0.273779233,0.054755847,orange,1,-0.16426754,0.054755847,cyan,1,0.054755847,-0.273779233,red,1,-0.054755847,-0.054755847,blue,1,0.05,0.05,0.15,0.054755847,-0.054755847,yellow,k,112,20,2020-10-22_12h11.01.180,CDT_GNG_IUS12,2020.1.2,Linux aarch64,60,,k,1,0.880445,0,9,9,61,1,,,,,,,,,,,,,,,,,,,,,,,,,,,,,,,,,,,,,,,,,,,,,,,,,
,,,,,,,,,,40,different,4,-0.273779233,-0.273779233,magenta,1,0.054755847,-0.16426754,yellow,1,-0.16426754,0.054755847,red,1,0.273779233,0.273779233,orange,1,-0.054755847,-0.054755847,cyan,0,0.16426754,-0.16426754,green,0,0.05,0.05,0.15,0.273779233,0.273779233,black,l,112,20,2020-10-22_12h11.01.180,CDT_GNG_IUS12,2020.1.2,Linux aarch64,60,,l,1,0.847545,0,10,10,39,1,,,,,,,,,,,,,,,,,,,,,,,,,,,,,,,,,,,,,,,,,,,,,,,,,
,,,,,,,,,,50,different,4,-0.16426754,0.054755847,black,1,-0.273779233,-0.16426754,magenta,1,0.054755847,0.054755847,cyan,1,0.273779233,-0.16426754,green,1,-0.273779233,0.273779233,yellow,0,-0.16426754,-0.054755847,orange,0,0.05,0.05,0.15,-0.273779233,-0.16426754,yellow,l,112,20,2020-10-22_12h11.01.180,CDT_GNG_IUS12,2020.1.2,Linux aarch64,60,,l,1,1.10173,0,11,11,49,1,,,,,,,,,,,,,,,,,,,,,,,,,,,,,,,,,,,,,,,,,,,,,,,,,
,,,,,,,,,,90,same,6,0.16426754,-0.054755847,black,1,-0.273779233,-0.054755847,orange,1,-0.16426754,0.16426754,cyan,1,0.273779233,0.273779233,blue,1,0.054755847,-0.054755847,magenta,1,-0.273779233,-0.273779233,yellow,1,0.05,0.05,0.15,-0.273779233,-0.054755847,orange,k,112,20,2020-10-22_12h11.01.180,CDT_GNG_IUS12,2020.1.2,Linux aarch64,60,,l,0,0.880165,0,12,12,89,1,,,,,,,,,,,,,,,,,,,,,,,,,,,,,,,,,,,,,,,,,,,,,,,,,
,,,,,,,,,,43,different,4,-0.16426754,-0.054755847,red,1,0.273779233,0.054755847,cyan,1,-0.16426754,0.054755847,orange,1,0.054755847,-0.054755847,blue,1,-0.054755847,-0.273779233,magenta,0,0.273779233,0.273779233,yellow,0,0.05,0.05,0.15,-0.16426754,-0.054755847,yellow,l,112,20,2020-10-22_12h11.01.180,CDT_GNG_IUS12,2020.1.2,Linux aarch64,60,,l,1,0.796985,0,13,13,42,1,,,,,,,,,,,,,,,,,,,,,,,,,,,,,,,,,,,,,,,,,,,,,,,,,
,,,,,,,,,,118,different,6,-0.16426754,-0.16426754,red,1,0.273779233,0.16426754,orange,1,-0.16426754,0.273779233,cyan,1,0.16426754,-0.273779233,black,1,-0.054755847,-0.054755847,yellow,1,0.054755847,0.054755847,green,1,0.05,0.05,0.15,-0.054755847,-0.054755847,magenta,l,112,20,2020-10-22_12h11.01.180,CDT_GNG_IUS12,2020.1.2,Linux aarch64,60,,l,1,0.6429,0,14,14,117,1,,,,,,,,,,,,,,,,,,,,,,,,,,,,,,,,,,,,,,,,,,,,,,,,,
,,,,,,,,,,16,same,4,0.16426754,0.16426754,cyan,1,-0.16426754,-0.273779233,red,1,-0.16426754,0.16426754,black,1,0.273779233,-0.054755847,yellow,1,0.273779233,0.273779233,orange,0,-0.054755847,-0.273779233,blue,0,0.05,0.05,0.15,-0.16426754,-0.273779233,red,k,112,20,2020-10-22_12h11.01.180,CDT_GNG_IUS12,2020.1.2,Linux aarch64,60,,k,1,0.756195,0,15,15,15,1,,,,,,,,,,,,,,,,,,,,,,,,,,,,,,,,,,,,,,,,,,,,,,,,,
,,,,,,,,,,105,different,6,0.054755847,0.273779233,cyan,1,0.273779233,-0.16426754,magenta,1,-0.16426754,-0.054755847,yellow,1,-0.16426754,0.16426754,blue,1,0.273779233,0.16426754,orange,1,0.16426754,-0.273779233,green,1,0.05,0.05,0.15,0.16426754,-0.273779233,blue,l,112,20,2020-10-22_12h11.01.180,CDT_GNG_IUS12,2020.1.2,Linux aarch64,60,,l,1,0.901185,0,16,16,104,1,,,,,,,,,,,,,,,,,,,,,,,,,,,,,,,,,,,,,,,,,,,,,,,,,
,,,,,,,,,,23,same,4,0.273779233,-0.16426754,yellow,1,0.054755847,0.273779233,red,1,-0.054755847,0.054755847,black,1,-0.273779233,-0.054755847,orange,1,0.273779233,-0.054755847,green,0,0.273779233,0.054755847,magenta,0,0.05,0.05,0.15,-0.054755847,0.054755847,black,k,112,20,2020-10-22_12h11.01.180,CDT_GNG_IUS12,2020.1.2,Linux aarch64,60,,k,1,0.701405,0,17,17,22,1,,,,,,,,,,,,,,,,,,,,,,,,,,,,,,,,,,,,,,,,,,,,,,,,,
,,,,,,,,,,18,same,4,-0.054755847,0.273779233,black,1,-0.16426754,-0.16426754,cyan,1,0.054755847,0.16426754,red,1,0.273779233,-0.273779233,magenta,1,-0.16426754,0.273779233,orange,0,-0.054755847,-0.273779233,green,0,0.05,0.05,0.15,0.273779233,-0.273779233,magenta,k,112,20,2020-10-22_12h11.01.180,CDT_GNG_IUS12,2020.1.2,Linux aarch64,60,,k,1,1.079915,0,18,18,17,1,,,,,,,,,,,,,,,,,,,,,,,,,,,,,,,,,,,,,,,,,,,,,,,,,
,,,,,,,,,,72,same,6,0.273779233,-0.16426754,blue,1,0.16426754,0.273779233,yellow,1,-0.16426754,0.273779233,magenta,1,-0.273779233,-0.054755847,orange,1,0.054755847,-0.16426754,cyan,1,0.273779233,0.054755847,black,1,0.05,0.05,0.15,-0.16426754,0.273779233,magenta,k,112,20,2020-10-22_12h11.01.180,CDT_GNG_IUS12,2020.1.2,Linux aarch64,60,,k,1,0.64514,0,19,19,71,1,,,,,,,,,,,,,,,,,,,,,,,,,,,,,,,,,,,,,,,,,,,,,,,,,
,,,,,,,,,,71,same,6,-0.054755847,-0.16426754,orange,1,0.273779233,0.054755847,green,1,0.16426754,-0.16426754,yellow,1,-0.054755847,0.054755847,blue,1,-0.054755847,-0.273779233,black,1,0.054755847,0.16426754,cyan,1,0.05,0.05,0.15,-0.054755847,0.054755847,blue,k,112,20,2020-10-22_12h11.01.180,CDT_GNG_IUS12,2020.1.2,Linux aarch64,60,,k,1,0.498685,0,20,20,70,1,,,,,,,,,,,,,,,,,,,,,,,,,,,,,,,,,,,,,,,,,,,,,,,,,
,,,,,,,,,,33,different,4,-0.273779233,0.273779233,yellow,1,0.16426754,-0.16426754,cyan,1,-0.273779233,-0.273779233,black,1,0.054755847,0.273779233,blue,1,-0.16426754,0.273779233,green,0,0.054755847,-0.273779233,orange,0,0.05,0.05,0.15,-0.273779233,-0.273779233,cyan,l,112,20,2020-10-22_12h11.01.180,CDT_GNG_IUS12,2020.1.2,Linux aarch64,60,,k,0,0.762625,0,21,21,32,1,,,,,,,,,,,,,,,,,,,,,,,,,,,,,,,,,,,,,,,,,,,,,,,,,
,,,,,,,,,,51,different,4,-0.16426754,-0.273779233,yellow,1,0.16426754,-0.273779233,cyan,1,0.273779233,0.054755847,blue,1,-0.054755847,0.273779233,green,1,-0.16426754,-0.054755847,black,0,0.273779233,-0.273779233,red,0,0.05,0.05,0.15,0.16426754,-0.273779233,red,l,112,20,2020-10-22_12h11.01.180,CDT_GNG_IUS12,2020.1.2,Linux aarch64,60,,l,1,0.552335,0,22,22,50,1,,,,,,,,,,,,,,,,,,,,,,,,,,,,,,,,,,,,,,,,,,,,,,,,,
,,,,,,,,,,65,same,6,-0.273779233,-0.16426754,cyan,1,-0.054755847,0.054755847,blue,1,0.054755847,-0.054755847,red,1,0.273779233,0.054755847,green,1,-0.16426754,-0.054755847,orange,1,-0.273779233,0.273779233,yellow,1,0.05,0.05,0.15,-0.273779233,-0.16426754,cyan,k,112,20,2020-10-22_12h11.01.180,CDT_GNG_IUS12,2020.1.2,Linux aarch64,60,,l,0,0.862165,0,23,23,64,1,,,,,,,,,,,,,,,,,,,,,,,,,,,,,,,,,,,,,,,,,,,,,,,,,
,,,,,,,,,,120,different,6,0.16426754,-0.054755847,blue,1,-0.16426754,-0.273779233,cyan,1,0.16426754,0.16426754,magenta,1,-0.273779233,0.273779233,black,1,0.273779233,-0.16426754,green,1,-0.273779233,-0.16426754,orange,1,0.05,0.05,0.15,0.16426754,0.16426754,yellow,l,112,20,2020-10-22_12h11.01.180,CDT_GNG_IUS12,2020.1.2,Linux aarch64,60,,l,1,0.69702,0,24,24,119,1,,,,,,,,,,,,,,,,,,,,,,,,,,,,,,,,,,,,,,,,,,,,,,,,,
,,,,,,,,,,31,different,4,-0.16426754,0.16426754,blue,1,0.16426754,-0.054755847,magenta,1,-0.16426754,-0.054755847,yellow,1,0.054755847,0.273779233,black,1,-0.273779233,0.054755847,red,0,0.273779233,-0.273779233,cyan,0,0.05,0.05,0.15,-0.16426754,-0.054755847,black,l,112,20,2020-10-22_12h11.01.180,CDT_GNG_IUS12,2020.1.2,Linux aarch64,60,,l,1,0.783625,0,25,25,30,1,,,,,,,,,,,,,,,,,,,,,,,,,,,,,,,,,,,,,,,,,,,,,,,,,
,,,,,,,,,,79,same,6,0.054755847,-0.16426754,black,1,-0.054755847,-0.273779233,yellow,1,-0.273779233,0.273779233,red,1,0.054755847,0.054755847,magenta,1,0.16426754,-0.054755847,cyan,1,-0.16426754,-0.054755847,orange,1,0.05,0.05,0.15,0.054755847,0.054755847,magenta,k,112,20,2020-10-22_12h11.01.180,CDT_GNG_IUS12,2020.1.2,Linux aarch64,60,,k,1,0.81678,0,26,26,78,1,,,,,,,,,,,,,,,,,,,,,,,,,,,,,,,,,,,,,,,,,,,,,,,,,
,,,,,,,,,,78,same,6,0.054755847,0.054755847,black,1,-0.054755847,0.16426754,red,1,0.273779233,-0.273779233,blue,1,-0.054755847,-0.054755847,magenta,1,0.16426754,0.054755847,yellow,1,-0.273779233,0.16426754,cyan,1,0.05,0.05,0.15,-0.054755847,0.16426754,red,k,112,20,2020-10-22_12h11.01.180,CDT_GNG_IUS12,2020.1.2,Linux aarch64,60,,l,0,1.07922,0,27,27,77,1,,,,,,,,,,,,,,,,,,,,,,,,,,,,,,,,,,,,,,,,,,,,,,,,,
,,,,,,,,,,84,same,6,-0.273779233,-0.16426754,black,1,0.273779233,0.273779233,blue,1,-0.054755847,0.054755847,red,1,0.16426754,-0.054755847,orange,1,-0.16426754,-0.16426754,cyan,1,0.16426754,0.16426754,magenta,1,0.05,0.05,0.15,-0.16426754,-0.16426754,cyan,k,112,20,2020-10-22_12h11.01.180,CDT_GNG_IUS12,2020.1.2,Linux aarch64,60,,l,0,1.06035,0,28,28,83,1,,,,,,,,,,,,,,,,,,,,,,,,,,,,,,,,,,,,,,,,,,,,,,,,,
,,,,,,,,,,20,same,4,0.273779233,0.054755847,magenta,1,0.054755847,-0.273779233,black,1,-0.054755847,0.16426754,blue,1,-0.273779233,-0.054755847,orange,1,0.054755847,0.054755847,red,0,0.054755847,-0.054755847,cyan,0,0.05,0.05,0.15,-0.054755847,0.16426754,blue,k,112,20,2020-10-22_12h11.01.180,CDT_GNG_IUS12,2020.1.2,Linux aarch64,60,,k,1,0.630605,0,29,29,19,1,,,,,,,,,,,,,,,,,,,,,,,,,,,,,,,,,,,,,,,,,,,,,,,,,
,,,,,,,,,,82,same,6,-0.054755847,-0.16426754,red,1,0.273779233,-0.054755847,cyan,1,0.16426754,0.273779233,blue,1,-0.054755847,0.054755847,black,1,-0.16426754,-0.16426754,yellow,1,0.273779233,-0.16426754,green,1,0.05,0.05,0.15,-0.16426754,-0.16426754,yellow,k,112,20,2020-10-22_12h11.01.180,CDT_GNG_IUS12,2020.1.2,Linux aarch64,60,,l,0,1.01418,0,30,30,81,1,,,,,,,,,,,,,,,,,,,,,,,,,,,,,,,,,,,,,,,,,,,,,,,,,
,,,,,,,,,,117,different,6,-0.054755847,0.054755847,black,1,0.054755847,0.273779233,magenta,1,-0.273779233,-0.273779233,yellow,1,0.054755847,-0.16426754,blue,1,-0.16426754,0.054755847,cyan,1,0.054755847,0.054755847,red,1,0.05,0.05,0.15,-0.16426754,0.054755847,black,l,112,20,2020-10-22_12h11.01.180,CDT_GNG_IUS12,2020.1.2,Linux aarch64,60,,l,1,1.03957,0,31,31,116,1,,,,,,,,,,,,,,,,,,,,,,,,,,,,,,,,,,,,,,,,,,,,,,,,,
,,,,,,,,,,76,same,6,0.16426754,0.054755847,cyan,1,0.273779233,-0.273779233,red,1,-0.054755847,-0.273779233,magenta,1,-0.054755847,0.16426754,yellow,1,0.054755847,0.273779233,blue,1,0.054755847,-0.273779233,green,1,0.05,0.05,0.15,0.16426754,0.054755847,cyan,k,112,20,2020-10-22_12h11.01.180,CDT_GNG_IUS12,2020.1.2,Linux aarch64,60,,k,1,0.9361,0,32,32,75,1,,,,,,,,,,,,,,,,,,,,,,,,,,,,,,,,,,,,,,,,,,,,,,,,,
,,,,,,,,,,14,same,4,0.16426754,0.16426754,magenta,1,-0.16426754,0.16426754,blue,1,0.16426754,-0.16426754,green,1,-0.16426754,-0.16426754,red,1,0.16426754,0.273779233,cyan,0,-0.16426754,0.273779233,orange,0,0.05,0.05,0.15,-0.16426754,0.16426754,blue,k,112,20,2020-10-22_12h11.01.180,CDT_GNG_IUS12,2020.1.2,Linux aarch64,60,,k,1,0.67096,0,33,33,13,1,,,,,,,,,,,,,,,,,,,,,,,,,,,,,,,,,,,,,,,,,,,,,,,,,
,,,,,,,,,,35,different,4,-0.054755847,-0.054755847,black,1,0.054755847,0.273779233,magenta,1,-0.273779233,0.054755847,blue,1,0.273779233,-0.054755847,red,1,-0.054755847,-0.16426754,cyan,0,0.054755847,0.054755847,yellow,0,0.05,0.05,0.15,0.054755847,0.273779233,cyan,l,112,20,2020-10-22_12h11.01.180,CDT_GNG_IUS12,2020.1.2,Linux aarch64,60,,l,1,0.63821,0,34,34,34,1,,,,,,,,,,,,,,,,,,,,,,,,,,,,,,,,,,,,,,,,,,,,,,,,,
,,,,,,,,,,112,different,6,-0.273779233,-0.16426754,magenta,1,-0.054755847,0.054755847,orange,1,0.054755847,0.273779233,cyan,1,0.16426754,-0.273779233,yellow,1,-0.273779233,-0.273779233,black,1,-0.16426754,0.054755847,red,1,0.05,0.05,0.15,-0.16426754,0.054755847,orange,l,112,20,2020-10-22_12h11.01.180,CDT_GNG_IUS12,2020.1.2,Linux aarch64,60,,l,1,0.70911,0,35,35,111,1,,,,,,,,,,,,,,,,,,,,,,,,,,,,,,,,,,,,,,,,,,,,,,,,,
,,,,,,,,,,60,different,4,0.273779233,0.273779233,red,1,-0.273779233,-0.054755847,blue,1,-0.273779233,0.054755847,magenta,1,0.054755847,-0.273779233,black,1,0.273779233,0.054755847,orange,0,-0.054755847,-0.16426754,yellow,0,0.05,0.05,0.15,-0.273779233,0.054755847,yellow,l,112,20,2020-10-22_12h11.01.180,CDT_GNG_IUS12,2020.1.2,Linux aarch64,60,,l,1,0.56595,0,36,36,59,1,,,,,,,,,,,,,,,,,,,,,,,,,,,,,,,,,,,,,,,,,,,,,,,,,
,,,,,,,,,,52,different,4,-0.273779233,-0.16426754,magenta,1,-0.273779233,0.054755847,green,1,0.273779233,-0.054755847,cyan,1,0.273779233,0.054755847,black,1,-0.16426754,-0.16426754,orange,0,-0.054755847,0.054755847,red,0,0.05,0.05,0.15,-0.273779233,-0.16426754,black,l,112,20,2020-10-22_12h11.01.180,CDT_GNG_IUS12,2020.1.2,Linux aarch64,60,,l,1,0.83283,0,37,37,51,1,,,,,,,,,,,,,,,,,,,,,,,,,,,,,,,,,,,,,,,,,,,,,,,,,
,,,,,,,,,,4,same,4,0.16426754,-0.16426754,black,1,-0.054755847,0.16426754,yellow,1,0.16426754,0.16426754,blue,1,-0.16426754,-0.16426754,green,1,0.054755847,-0.16426754,magenta,0,-0.054755847,0.273779233,orange,0,0.05,0.05,0.15,0.16426754,-0.16426754,black,k,112,20,2020-10-22_12h11.01.180,CDT_GNG_IUS12,2020.1.2,Linux aarch64,60,,l,0,0.812575,0,38,38,3,1,,,,,,,,,,,,,,,,,,,,,,,,,,,,,,,,,,,,,,,,,,,,,,,,,
,,,,,,,,,,37,different,4,0.273779233,-0.273779233,cyan,1,-0.054755847,0.054755847,orange,1,-0.054755847,-0.16426754,yellow,1,0.16426754,0.054755847,blue,1,0.054755847,-0.273779233,red,0,-0.273779233,0.16426754,green,0,0.05,0.05,0.15,-0.054755847,0.054755847,green,l,112,20,2020-10-22_12h11.01.180,CDT_GNG_IUS12,2020.1.2,Linux aarch64,60,,l,1,0.7341,0,39,39,36,1,,,,,,,,,,,,,,,,,,,,,,,,,,,,,,,,,,,,,,,,,,,,,,,,,
,,,,,,,,,,34,different,4,0.16426754,0.16426754,yellow,1,0.273779233,-0.16426754,cyan,1,-0.273779233,-0.273779233,magenta,1,-0.273779233,0.16426754,green,1,0.054755847,0.054755847,black,0,0.273779233,-0.273779233,orange,0,0.05,0.05,0.15,0.16426754,0.16426754,cyan,l,112,20,2020-10-22_12h11.01.180,CDT_GNG_IUS12,2020.1.2,Linux aarch64,60,,l,1,0.650515,0,40,40,33,1,,,,,,,,,,,,,,,,,,,,,,,,,,,,,,,,,,,,,,,,,,,,,,,,,
,,,,,,,,,,77,same,6,0.273779233,0.273779233,black,1,-0.273779233,-0.16426754,red,1,0.16426754,-0.054755847,magenta,1,-0.054755847,0.16426754,cyan,1,0.16426754,0.273779233,orange,1,-0.16426754,-0.273779233,blue,1,0.05,0.05,0.15,-0.273779233,-0.16426754,red,k,112,20,2020-10-22_12h11.01.180,CDT_GNG_IUS12,2020.1.2,Linux aarch64,60,,l,0,0.79836,0,41,41,76,1,,,,,,,,,,,,,,,,,,,,,,,,,,,,,,,,,,,,,,,,,,,,,,,,,
,,,,,,,,,,87,same,6,0.273779233,0.16426754,green,1,-0.16426754,-0.054755847,black,1,-0.054755847,0.054755847,cyan,1,0.273779233,-0.054755847,blue,1,0.054755847,0.054755847,yellow,1,-0.273779233,-0.273779233,red,1,0.05,0.05,0.15,-0.273779233,-0.273779233,red,k,112,20,2020-10-22_12h11.01.180,CDT_GNG_IUS12,2020.1.2,Linux aarch64,60,,l,0,0.667805,0,42,42,86,1,,,,,,,,,,,,,,,,,,,,,,,,,,,,,,,,,,,,,,,,,,,,,,,,,
,,,,,,,,,,80,same,6,-0.273779233,0.16426754,orange,1,0.054755847,-0.273779233,yellow,1,0.054755847,0.273779233,green,1,-0.16426754,-0.273779233,red,1,-0.16426754,0.273779233,blue,1,0.273779233,-0.16426754,black,1,0.05,0.05,0.15,0.054755847,-0.273779233,yellow,k,112,20,2020-10-22_12h11.01.180,CDT_GNG_IUS12,2020.1.2,Linux aarch64,60,,k,1,0.610915,0,43,43,79,1,,,,,,,,,,,,,,,,,,,,,,,,,,,,,,,,,,,,,,,,,,,,,,,,,
,,,,,,,,,,17,same,4,0.16426754,0.273779233,yellow,1,-0.054755847,0.16426754,orange,1,0.273779233,-0.054755847,cyan,1,-0.273779233,-0.054755847,green,1,0.16426754,0.16426754,blue,0,-0.054755847,0.273779233,magenta,0,0.05,0.05,0.15,0.16426754,0.273779233,yellow,k,112,20,2020-10-22_12h11.01.180,CDT_GNG_IUS12,2020.1.2,Linux aarch64,60,,k,1,0.715355,0,44,44,16,1,,,,,,,,,,,,,,,,,,,,,,,,,,,,,,,,,,,,,,,,,,,,,,,,,
,,,,,,,,,,61,same,6,0.273779233,0.16426754,cyan,1,0.273779233,-0.273779233,blue,1,-0.16426754,-0.16426754,green,1,-0.16426754,0.273779233,black,1,0.16426754,0.054755847,red,1,0.273779233,-0.16426754,yellow,1,0.05,0.05,0.15,0.273779233,-0.16426754,yellow,k,112,20,2020-10-22_12h11.01.180,CDT_GNG_IUS12,2020.1.2,Linux aarch64,60,,l,0,0.950475,0,45,45,60,1,,,,,,,,,,,,,,,,,,,,,,,,,,,,,,,,,,,,,,,,,,,,,,,,,
,,,,,,,,,,21,same,4,0.273779233,0.273779233,black,1,-0.273779233,-0.273779233,blue,1,0.054755847,-0.16426754,yellow,1,-0.273779233,0.054755847,cyan,1,0.16426754,0.273779233,magenta,0,-0.054755847,-0.054755847,green,0,0.05,0.05,0.15,0.273779233,0.273779233,black,k,112,20,2020-10-22_12h11.01.180,CDT_GNG_IUS12,2020.1.2,Linux aarch64,60,,l,0,0.648315,0,46,46,20,1,,,,,,,,,,,,,,,,,,,,,,,,,,,,,,,,,,,,,,,,,,,,,,,,,
,,,,,,,,,,28,same,4,0.16426754,-0.273779233,yellow,1,-0.054755847,0.16426754,black,1,0.16426754,0.054755847,cyan,1,-0.273779233,-0.16426754,blue,1,0.273779233,-0.273779233,orange,0,-0.054755847,0.054755847,magenta,0,0.05,0.05,0.15,-0.054755847,0.16426754,black,k,112,20,2020-10-22_12h11.01.180,CDT_GNG_IUS12,2020.1.2,Linux aarch64,60,,k,1,0.48787,0,47,47,27,1,,,,,,,,,,,,,,,,,,,,,,,,,,,,,,,,,,,,,,,,,,,,,,,,,
,,,,,,,,,,107,different,6,0.273779233,0.16426754,cyan,1,-0.16426754,-0.273779233,magenta,1,-0.054755847,0.054755847,black,1,0.16426754,-0.054755847,blue,1,0.16426754,0.054755847,green,1,-0.273779233,-0.16426754,yellow,1,0.05,0.05,0.15,0.16426754,0.054755847,blue,l,112,20,2020-10-22_12h11.01.180,CDT_GNG_IUS12,2020.1.2,Linux aarch64,60,,l,1,0.77854,0,48,48,106,1,,,,,,,,,,,,,,,,,,,,,,,,,,,,,,,,,,,,,,,,,,,,,,,,,
,,,,,,,,,,98,different,6,-0.054755847,-0.16426754,magenta,1,0.273779233,0.273779233,green,1,0.273779233,-0.273779233,red,1,-0.16426754,0.273779233,blue,1,-0.273779233,-0.16426754,cyan,1,0.273779233,0.054755847,black,1,0.05,0.05,0.15,-0.16426754,0.273779233,cyan,l,112,20,2020-10-22_12h11.01.180,CDT_GNG_IUS12,2020.1.2,Linux aarch64,60,,l,1,0.737525,0,49,49,97,1,,,,,,,,,,,,,,,,,,,,,,,,,,,,,,,,,,,,,,,,,,,,,,,,,
,,,,,,,,,,83,same,6,0.054755847,-0.16426754,cyan,1,-0.16426754,-0.16426754,blue,1,0.273779233,0.054755847,magenta,1,-0.273779233,0.273779233,green,1,0.273779233,-0.16426754,orange,1,-0.054755847,-0.054755847,yellow,1,0.05,0.05,0.15,-0.054755847,-0.054755847,yellow,k,112,20,2020-10-22_12h11.01.180,CDT_GNG_IUS12,2020.1.2,Linux aarch64,60,,k,1,1.07064,0,50,50,82,1,,,,,,,,,,,,,,,,,,,,,,,,,,,,,,,,,,,,,,,,,,,,,,,,,
,,,,,,,,,,3,same,4,-0.054755847,-0.054755847,yellow,1,-0.054755847,0.054755847,cyan,1,0.16426754,-0.273779233,black,1,0.273779233,0.273779233,magenta,1,-0.054755847,-0.273779233,orange,0,-0.273779233,0.054755847,green,0,0.05,0.05,0.15,0.273779233,0.273779233,magenta,k,112,20,2020-10-22_12h11.01.180,CDT_GNG_IUS12,2020.1.2,Linux aarch64,60,,k,1,0.701145,0,51,51,2,1,,,,,,,,,,,,,,,,,,,,,,,,,,,,,,,,,,,,,,,,,,,,,,,,,
,,,,,,,,,,32,different,4,-0.054755847,-0.273779233,green,1,-0.273779233,0.16426754,black,1,0.16426754,0.16426754,cyan,1,0.273779233,-0.16426754,yellow,1,-0.054755847,-0.054755847,blue,0,-0.054755847,0.273779233,orange,0,0.05,0.05,0.15,-0.054755847,-0.273779233,red,l,112,20,2020-10-22_12h11.01.180,CDT_GNG_IUS12,2020.1.2,Linux aarch64,60,,l,1,0.87702,0,52,52,31,1,,,,,,,,,,,,,,,,,,,,,,,,,,,,,,,,,,,,,,,,,,,,,,,,,
,,,,,,,,,,95,different,6,-0.273779233,-0.16426754,magenta,1,0.16426754,0.273779233,green,1,-0.273779233,0.273779233,black,1,0.16426754,-0.273779233,orange,1,-0.054755847,-0.16426754,blue,1,0.16426754,0.054755847,cyan,1,0.05,0.05,0.15,0.16426754,0.273779233,black,l,112,20,2020-10-22_12h11.01.180,CDT_GNG_IUS12,2020.1.2,Linux aarch64,60,,l,1,0.847865,0,53,53,94,1,,,,,,,,,,,,,,,,,,,,,,,,,,,,,,,,,,,,,,,,,,,,,,,,,
,,,,,,,,,,101,different,6,0.273779233,0.273779233,yellow,1,0.054755847,-0.16426754,black,1,-0.054755847,0.054755847,cyan,1,-0.054755847,-0.16426754,magenta,1,0.273779233,0.054755847,green,1,0.16426754,-0.16426754,blue,1,0.05,0.05,0.15,0.273779233,0.273779233,green,l,112,20,2020-10-22_12h11.01.180,CDT_GNG_IUS12,2020.1.2,Linux aarch64,60,,l,1,0.71483,0,54,54,100,1,,,,,,,,,,,,,,,,,,,,,,,,,,,,,,,,,,,,,,,,,,,,,,,,,
,,,,,,,,,,9,same,4,-0.16426754,0.054755847,cyan,1,0.16426754,-0.16426754,magenta,1,-0.273779233,-0.054755847,black,1,0.054755847,0.054755847,green,1,-0.273779233,0.16426754,orange,0,0.273779233,-0.273779233,red,0,0.05,0.05,0.15,-0.273779233,-0.054755847,black,k,112,20,2020-10-22_12h11.01.180,CDT_GNG_IUS12,2020.1.2,Linux aarch64,60,,k,1,0.735595,0,55,55,8,1,,,,,,,,,,,,,,,,,,,,,,,,,,,,,,,,,,,,,,,,,,,,,,,,,
,,,,,,,,,,2,same,4,0.273779233,0.054755847,magenta,1,-0.273779233,0.273779233,red,1,-0.054755847,-0.054755847,yellow,1,0.273779233,-0.273779233,blue,1,0.054755847,0.16426754,green,0,-0.16426754,0.054755847,cyan,0,0.05,0.05,0.15,0.273779233,-0.273779233,blue,k,112,20,2020-10-22_12h11.01.180,CDT_GNG_IUS12,2020.1.2,Linux aarch64,60,,k,1,0.732805,0,56,56,1,1,,,,,,,,,,,,,,,,,,,,,,,,,,,,,,,,,,,,,,,,,,,,,,,,,
,,,,,,,,,,27,same,4,-0.273779233,0.054755847,blue,1,-0.16426754,-0.16426754,black,1,0.16426754,-0.273779233,cyan,1,0.273779233,0.054755847,red,1,-0.054755847,0.273779233,magenta,0,-0.054755847,-0.273779233,yellow,0,0.05,0.05,0.15,0.273779233,0.054755847,red,k,112,20,2020-10-22_12h11.01.180,CDT_GNG_IUS12,2020.1.2,Linux aarch64,60,,k,1,0.591,0,57,57,26,1,,,,,,,,,,,,,,,,,,,,,,,,,,,,,,,,,,,,,,,,,,,,,,,,,
,,,,,,,,,,68,same,6,0.16426754,-0.054755847,blue,1,-0.054755847,-0.16426754,orange,1,-0.16426754,0.054755847,red,1,0.16426754,0.273779233,magenta,1,0.054755847,-0.054755847,black,1,-0.273779233,-0.273779233,yellow,1,0.05,0.05,0.15,-0.054755847,-0.16426754,orange,k,112,20,2020-10-22_12h11.01.180,CDT_GNG_IUS12,2020.1.2,Linux aarch64,60,,k,1,0.728365,0,58,58,67,1,,,,,,,,,,,,,,,,,,,,,,,,,,,,,,,,,,,,,,,,,,,,,,,,,
,,,,,,,,,,10,same,4,0.273779233,0.273779233,green,1,-0.16426754,-0.054755847,yellow,1,-0.16426754,0.16426754,cyan,1,0.273779233,-0.16426754,blue,1,0.273779233,0.054755847,orange,0,-0.273779233,-0.16426754,red,0,0.05,0.05,0.15,0.273779233,0.273779233,green,k,112,20,2020-10-22_12h11.01.180,CDT_GNG_IUS12,2020.1.2,Linux aarch64,60,s,k,1,0.696125,0,59,59,9,1,4.353135,,,,,,,,,,,,,,,,,,,,,,,,,,,,,,,,,,,,,,,,,,,,,,,,
,,,,,,,,,,70,same,6,0.16426754,0.16426754,cyan,1,0.273779233,-0.273779233,red,1,-0.16426754,0.16426754,yellow,1,-0.273779233,-0.273779233,green,1,0.16426754,0.054755847,magenta,1,0.16426754,-0.054755847,blue,1,0.05,0.05,0.15,0.273779233,-0.273779233,red,k,112,20,2020-10-22_12h11.01.180,CDT_GNG_IUS12,2020.1.2,Linux aarch64,60,,l,0,0.826815,0,60,60,69,1,,,,,,,,,,,,,,,,,,,,,,,,,,,,,,,,,,,,,,,,,,,,,,,,,
,,,,,,,,,,24,same,4,0.054755847,-0.16426754,red,1,0.054755847,0.054755847,yellow,1,-0.273779233,0.16426754,orange,1,-0.273779233,-0.16426754,magenta,1,0.273779233,-0.16426754,black,0,0.273779233,0.273779233,green,0,0.05,0.05,0.15,0.054755847,-0.16426754,red,k,112,20,2020-10-22_12h11.01.180,CDT_GNG_IUS12,2020.1.2,Linux aarch64,60,,k,1,0.62411,0,61,61,23,1,,,,,,,,,,,,,,,,,,,,,,,,,,,,,,,,,,,,,,,,,,,,,,,,,
,,,,,,,,,,49,different,4,-0.16426754,-0.273779233,black,1,0.16426754,0.16426754,red,1,-0.273779233,0.16426754,yellow,1,0.054755847,-0.273779233,green,1,-0.273779233,-0.273779233,magenta,0,0.054755847,0.273779233,blue,0,0.05,0.05,0.15,0.054755847,-0.273779233,orange,l,112,20,2020-10-22_12h11.01.180,CDT_GNG_IUS12,2020.1.2,Linux aarch64,60,,l,1,1.27165,0,62,62,48,1,,,,,,,,,,,,,,,,,,,,,,,,,,,,,,,,,,,,,,,,,,,,,,,,,
,,,,,,,,,,85,same,6,-0.16426754,-0.273779233,black,1,-0.16426754,0.16426754,green,1,0.16426754,-0.054755847,blue,1,0.054755847,0.054755847,magenta,1,-0.16426754,-0.054755847,red,1,-0.054755847,0.054755847,yellow,1,0.05,0.05,0.15,-0.16426754,-0.273779233,black,k,112,20,2020-10-22_12h11.01.180,CDT_GNG_IUS12,2020.1.2,Linux aarch64,60,,l,0,0.880705,0,63,63,84,1,,,,,,,,,,,,,,,,,,,,,,,,,,,,,,,,,,,,,,,,,,,,,,,,,
,,,,,,,,,,113,different,6,-0.273779233,0.054755847,black,1,-0.16426754,-0.16426754,blue,1,0.054755847,-0.16426754,orange,1,0.16426754,0.16426754,red,1,-0.273779233,0.273779233,green,1,-0.273779233,-0.16426754,magenta,1,0.05,0.05,0.15,-0.273779233,-0.16426754,black,l,112,20,2020-10-22_12h11.01.180,CDT_GNG_IUS12,2020.1.2,Linux aarch64,60,,l,1,0.76641,0,64,64,112,1,,,,,,,,,,,,,,,,,,,,,,,,,,,,,,,,,,,,,,,,,,,,,,,,,
,,,,,,,,,,75,same,6,0.16426754,0.273779233,magenta,1,-0.273779233,-0.16426754,green,1,-0.273779233,0.16426754,yellow,1,0.054755847,-0.054755847,red,1,0.273779233,0.054755847,blue,1,-0.16426754,-0.054755847,cyan,1,0.05,0.05,0.15,0.054755847,-0.054755847,red,k,112,20,2020-10-22_12h11.01.180,CDT_GNG_IUS12,2020.1.2,Linux aarch64,60,,k,1,0.5804,0,65,65,74,1,,,,,,,,,,,,,,,,,,,,,,,,,,,,,,,,,,,,,,,,,,,,,,,,,
,,,,,,,,,,96,different,6,-0.16426754,-0.16426754,green,1,-0.16426754,0.054755847,black,1,0.054755847,0.16426754,cyan,1,0.16426754,-0.273779233,yellow,1,-0.273779233,-0.273779233,blue,1,-0.054755847,0.054755847,red,1,0.05,0.05,0.15,-0.16426754,0.054755847,magenta,l,112,20,2020-10-22_12h11.01.180,CDT_GNG_IUS12,2020.1.2,Linux aarch64,60,,l,1,0.905135,0,66,66,95,1,,,,,,,,,,,,,,,,,,,,,,,,,,,,,,,,,,,,,,,,,,,,,,,,,
,,,,,,,,,,106,different,6,0.054755847,-0.16426754,blue,1,-0.273779233,-0.273779233,magenta,1,0.273779233,0.273779233,yellow,1,-0.273779233,0.054755847,orange,1,0.054755847,-0.054755847,green,1,-0.054755847,-0.16426754,black,1,0.05,0.05,0.15,0.054755847,-0.054755847,cyan,l,112,20,2020-10-22_12h11.01.180,CDT_GNG_IUS12,2020.1.2,Linux aarch64,60,,l,1,0.656285,0,67,67,105,1,,,,,,,,,,,,,,,,,,,,,,,,,,,,,,,,,,,,,,,,,,,,,,,,,
,,,,,,,,,,41,different,4,0.054755847,-0.273779233,orange,1,-0.273779233,0.054755847,blue,1,-0.054755847,-0.16426754,yellow,1,0.273779233,0.16426754,red,1,0.273779233,-0.273779233,black,0,-0.273779233,0.273779233,magenta,0,0.05,0.05,0.15,-0.054755847,-0.16426754,black,l,112,20,2020-10-22_12h11.01.180,CDT_GNG_IUS12,2020.1.2,Linux aarch64,60,,l,1,0.716375,0,68,68,40,1,,,,,,,,,,,,,,,,,,,,,,,,,,,,,,,,,,,,,,,,,,,,,,,,,
,,,,,,,,,,93,different,6,-0.16426754,0.16426754,red,1,0.054755847,-0.054755847,black,1,-0.054755847,-0.16426754,blue,1,0.054755847,0.273779233,magenta,1,-0.054755847,0.054755847,orange,1,0.16426754,-0.054755847,cyan,1,0.05,0.05,0.15,-0.054755847,-0.16426754,black,l,112,20,2020-10-22_12h11.01.180,CDT_GNG_IUS12,2020.1.2,Linux aarch64,60,,l,1,0.7164,0,69,69,92,1,,,,,,,,,,,,,,,,,,,,,,,,,,,,,,,,,,,,,,,,,,,,,,,,,
,,,,,,,,,,64,same,6,0.16426754,0.273779233,black,1,-0.16426754,-0.16426754,orange,1,0.16426754,-0.16426754,red,1,-0.273779233,0.054755847,magenta,1,0.054755847,0.16426754,cyan,1,-0.054755847,-0.16426754,yellow,1,0.05,0.05,0.15,0.16426754,0.273779233,black,k,112,20,2020-10-22_12h11.01.180,CDT_GNG_IUS12,2020.1.2,Linux aarch64,60,,l,0,0.816455,0,70,70,63,1,,,,,,,,,,,,,,,,,,,,,,,,,,,,,,,,,,,,,,,,,,,,,,,,,
,,,,,,,,,,104,different,6,0.054755847,-0.16426754,magenta,1,0.273779233,0.273779233,yellow,1,-0.273779233,0.273779233,blue,1,-0.16426754,-0.054755847,cyan,1,0.16426754,-0.054755847,orange,1,0.273779233,0.16426754,green,1,0.05,0.05,0.15,0.054755847,-0.16426754,cyan,l,112,20,2020-10-22_12h11.01.180,CDT_GNG_IUS12,2020.1.2,Linux aarch64,60,,l,1,0.636655,0,71,71,103,1,,,,,,,,,,,,,,,,,,,,,,,,,,,,,,,,,,,,,,,,,,,,,,,,,
,,,,,,,,,,1,same,4,-0.16426754,-0.273779233,orange,1,0.054755847,0.16426754,yellow,1,-0.16426754,0.16426754,green,1,0.054755847,-0.054755847,red,1,-0.273779233,-0.16426754,cyan,0,0.16426754,0.16426754,blue,0,0.05,0.05,0.15,0.054755847,0.16426754,yellow,k,112,20,2020-10-22_12h11.01.180,CDT_GNG_IUS12,2020.1.2,Linux aarch64,60,,k,1,0.567115,0,72,72,0,1,,,,,,,,,,,,,,,,,,,,,,,,,,,,,,,,,,,,,,,,,,,,,,,,,
,,,,,,,,,,102,different,6,-0.273779233,-0.273779233,magenta,1,0.054755847,0.16426754,green,1,0.16426754,-0.273779233,yellow,1,-0.16426754,0.054755847,orange,1,-0.16426754,-0.273779233,red,1,0.273779233,0.054755847,cyan,1,0.05,0.05,0.15,-0.273779233,-0.273779233,yellow,l,112,20,2020-10-22_12h11.01.180,CDT_GNG_IUS12,2020.1.2,Linux aarch64,60,,k,0,0.70375,0,73,73,101,1,,,,,,,,,,,,,,,,,,,,,,,,,,,,,,,,,,,,,,,,,,,,,,,,,
,,,,,,,,,,97,different,6,-0.273779233,-0.273779233,orange,1,0.054755847,-0.273779233,blue,1,0.16426754,0.16426754,green,1,-0.16426754,0.054755847,cyan,1,-0.16426754,-0.16426754,black,1,0.273779233,-0.16426754,yellow,1,0.05,0.05,0.15,-0.16426754,0.054755847,yellow,l,112,20,2020-10-22_12h11.01.180,CDT_GNG_IUS12,2020.1.2,Linux aarch64,60,,l,1,0.749455,0,74,74,96,1,,,,,,,,,,,,,,,,,,,,,,,,,,,,,,,,,,,,,,,,,,,,,,,,,
,,,,,,,,,,56,different,4,0.16426754,0.054755847,red,1,-0.054755847,0.16426754,orange,1,0.16426754,-0.16426754,black,1,-0.273779233,-0.054755847,yellow,1,0.16426754,0.273779233,blue,0,-0.054755847,0.273779233,magenta,0,0.05,0.05,0.15,-0.273779233,-0.054755847,green,l,112,20,2020-10-22_12h11.01.180,CDT_GNG_IUS12,2020.1.2,Linux aarch64,60,,l,1,0.68224,0,75,75,55,1,,,,,,,,,,,,,,,,,,,,,,,,,,,,,,,,,,,,,,,,,,,,,,,,,
,,,,,,,,,,42,different,4,0.273779233,0.16426754,cyan,1,-0.054755847,0.16426754,magenta,1,0.16426754,-0.054755847,green,1,-0.16426754,-0.16426754,red,1,0.16426754,0.273779233,black,0,-0.054755847,0.273779233,yellow,0,0.05,0.05,0.15,0.273779233,0.16426754,blue,l,112,20,2020-10-22_12h11.01.180,CDT_GNG_IUS12,2020.1.2,Linux aarch64,60,,l,1,0.61703,0,76,76,41,1,,,,,,,,,,,,,,,,,,,,,,,,,,,,,,,,,,,,,,,,,,,,,,,,,
,,,,,,,,,,109,different,6,-0.273779233,-0.16426754,blue,1,0.054755847,-0.16426754,black,1,-0.054755847,0.054755847,cyan,1,0.054755847,0.16426754,green,1,-0.054755847,-0.054755847,yellow,1,0.16426754,-0.273779233,orange,1,0.05,0.05,0.15,-0.273779233,-0.16426754,green,l,112,20,2020-10-22_12h11.01.180,CDT_GNG_IUS12,2020.1.2,Linux aarch64,60,,l,1,0.68236,0,77,77,108,1,,,,,,,,,,,,,,,,,,,,,,,,,,,,,,,,,,,,,,,,,,,,,,,,,
,,,,,,,,,,47,different,4,-0.16426754,-0.054755847,orange,1,0.273779233,0.054755847,black,1,-0.16426754,0.16426754,red,1,0.273779233,-0.16426754,blue,1,-0.054755847,-0.273779233,green,0,0.16426754,0.16426754,yellow,0,0.05,0.05,0.15,0.273779233,0.054755847,red,l,112,20,2020-10-22_12h11.01.180,CDT_GNG_IUS12,2020.1.2,Linux aarch64,60,,l,1,0.55081,0,78,78,46,1,,,,,,,,,,,,,,,,,,,,,,,,,,,,,,,,,,,,,,,,,,,,,,,,,
,,,,,,,,,,58,different,4,-0.16426754,0.273779233,blue,1,0.16426754,0.273779233,yellow,1,0.273779233,-0.16426754,black,1,-0.16426754,-0.054755847,cyan,1,-0.16426754,0.16426754,green,0,0.16426754,0.054755847,orange,0,0.05,0.05,0.15,0.273779233,-0.16426754,magenta,l,112,20,2020-10-22_12h11.01.180,CDT_GNG_IUS12,2020.1.2,Linux aarch64,60,,l,1,0.495725,0,79,79,57,1,,,,,,,,,,,,,,,,,,,,,,,,,,,,,,,,,,,,,,,,,,,,,,,,,
,,,,,,,,,,19,same,4,-0.054755847,-0.16426754,orange,1,-0.273779233,0.273779233,red,1,0.273779233,0.054755847,yellow,1,0.273779233,-0.16426754,magenta,1,-0.273779233,-0.054755847,black,0,-0.054755847,0.273779233,blue,0,0.05,0.05,0.15,0.273779233,-0.16426754,magenta,k,112,20,2020-10-22_12h11.01.180,CDT_GNG_IUS12,2020.1.2,Linux aarch64,60,,k,1,0.90973,0,80,80,18,1,,,,,,,,,,,,,,,,,,,,,,,,,,,,,,,,,,,,,,,,,,,,,,,,,
,,,,,,,,,,46,different,4,-0.16426754,0.273779233,yellow,1,-0.16426754,-0.16426754,green,1,0.16426754,0.054755847,black,1,0.273779233,-0.054755847,red,1,-0.16426754,0.16426754,blue,0,-0.273779233,-0.054755847,cyan,0,0.05,0.05,0.15,0.16426754,0.054755847,cyan,l,112,20,2020-10-22_12h11.01.180,CDT_GNG_IUS12,2020.1.2,Linux aarch64,60,,k,0,0.6858,0,81,81,45,1,,,,,,,,,,,,,,,,,,,,,,,,,,,,,,,,,,,,,,,,,,,,,,,,,
,,,,,,,,,,69,same,6,-0.054755847,-0.054755847,black,1,0.273779233,-0.054755847,orange,1,-0.273779233,0.16426754,blue,1,0.054755847,0.054755847,yellow,1,-0.16426754,-0.16426754,green,1,0.054755847,-0.16426754,magenta,1,0.05,0.05,0.15,-0.16426754,-0.16426754,green,k,112,20,2020-10-22_12h11.01.180,CDT_GNG_IUS12,2020.1.2,Linux aarch64,60,,l,0,0.87899,0,82,82,68,1,,,,,,,,,,,,,,,,,,,,,,,,,,,,,,,,,,,,,,,,,,,,,,,,,
,,,,,,,,,,7,same,4,-0.16426754,-0.054755847,yellow,1,0.273779233,0.16426754,magenta,1,-0.16426754,0.054755847,cyan,1,0.054755847,-0.054755847,black,1,-0.054755847,-0.054755847,orange,0,0.273779233,0.273779233,blue,0,0.05,0.05,0.15,0.054755847,-0.054755847,black,k,112,20,2020-10-22_12h11.01.180,CDT_GNG_IUS12,2020.1.2,Linux aarch64,60,,k,1,0.68862,0,83,83,6,1,,,,,,,,,,,,,,,,,,,,,,,,,,,,,,,,,,,,,,,,,,,,,,,,,
,,,,,,,,,,115,different,6,-0.16426754,0.273779233,magenta,1,-0.273779233,-0.054755847,blue,1,0.273779233,0.273779233,red,1,0.054755847,-0.273779233,cyan,1,-0.054755847,0.16426754,green,1,-0.273779233,-0.273779233,yellow,1,0.05,0.05,0.15,-0.273779233,-0.054755847,yellow,l,112,20,2020-10-22_12h11.01.180,CDT_GNG_IUS12,2020.1.2,Linux aarch64,60,,l,1,0.949055,0,84,84,114,1,,,,,,,,,,,,,,,,,,,,,,,,,,,,,,,,,,,,,,,,,,,,,,,,,
,,,,,,,,,,99,different,6,0.054755847,0.16426754,orange,1,0.16426754,-0.16426754,yellow,1,-0.16426754,0.273779233,red,1,-0.273779233,-0.054755847,magenta,1,0.16426754,0.054755847,black,1,0.054755847,-0.054755847,green,1,0.05,0.05,0.15,-0.16426754,0.273779233,blue,l,112,20,2020-10-22_12h11.01.180,CDT_GNG_IUS12,2020.1.2,Linux aarch64,60,,l,1,1.033305,0,85,85,98,1,,,,,,,,,,,,,,,,,,,,,,,,,,,,,,,,,,,,,,,,,,,,,,,,,
,,,,,,,,,,57,different,4,-0.273779233,-0.054755847,yellow,1,0.16426754,-0.054755847,green,1,-0.273779233,0.16426754,red,1,0.273779233,0.054755847,black,1,-0.16426754,-0.054755847,orange,0,0.054755847,-0.16426754,magenta,0,0.05,0.05,0.15,0.16426754,-0.054755847,orange,l,112,20,2020-10-22_12h11.01.180,CDT_GNG_IUS12,2020.1.2,Linux aarch64,60,,l,1,0.583215,0,86,86,56,1,,,,,,,,,,,,,,,,,,,,,,,,,,,,,,,,,,,,,,,,,,,,,,,,,
,,,,,,,,,,15,same,4,0.054755847,-0.273779233,yellow,1,-0.273779233,-0.054755847,cyan,1,0.273779233,0.16426754,green,1,-0.16426754,0.16426754,blue,1,0.273779233,-0.054755847,magenta,0,-0.16426754,-0.054755847,orange,0,0.05,0.05,0.15,-0.273779233,-0.054755847,cyan,k,112,20,2020-10-22_12h11.01.180,CDT_GNG_IUS12,2020.1.2,Linux aarch64,60,,k,1,0.6191,0,87,87,14,1,,,,,,,,,,,,,,,,,,,,,,,,,,,,,,,,,,,,,,,,,,,,,,,,,
,,,,,,,,,,30,same,4,0.16426754,0.16426754,blue,1,0.054755847,-0.054755847,green,1,-0.273779233,-0.16426754,black,1,-0.054755847,0.273779233,yellow,1,0.16426754,0.273779233,red,0,0.16426754,-0.16426754,magenta,0,0.05,0.05,0.15,0.054755847,-0.054755847,green,k,112,20,2020-10-22_12h11.01.180,CDT_GNG_IUS12,2020.1.2,Linux aarch64,60,,k,1,0.63826,0,88,88,29,1,,,,,,,,,,,,,,,,,,,,,,,,,,,,,,,,,,,,,,,,,,,,,,,,,
,,,,,,,,,,48,different,4,0.16426754,0.273779233,cyan,1,-0.054755847,-0.273779233,magenta,1,0.16426754,-0.054755847,orange,1,-0.273779233,0.273779233,blue,1,0.273779233,0.16426754,red,0,-0.054755847,-0.16426754,green,0,0.05,0.05,0.15,0.16426754,-0.054755847,red,l,112,20,2020-10-22_12h11.01.180,CDT_GNG_IUS12,2020.1.2,Linux aarch64,60,,l,1,0.61399,0,89,89,47,1,,,,,,,,,,,,,,,,,,,,,,,,,,,,,,,,,,,,,,,,,,,,,,,,,
,,,,,,,,,,36,different,4,-0.16426754,-0.054755847,cyan,1,0.16426754,0.054755847,red,1,0.16426754,-0.054755847,black,1,-0.273779233,0.273779233,orange,1,-0.054755847,-0.054755847,yellow,0,0.273779233,0.273779233,green,0,0.05,0.05,0.15,0.16426754,-0.054755847,orange,l,112,20,2020-10-22_12h11.01.180,CDT_GNG_IUS12,2020.1.2,Linux aarch64,60,,l,1,0.63252,0,90,90,35,1,,,,,,,,,,,,,,,,,,,,,,,,,,,,,,,,,,,,,,,,,,,,,,,,,
,,,,,,,,,,73,same,6,0.054755847,0.16426754,blue,1,-0.273779233,0.273779233,red,1,-0.273779233,-0.16426754,green,1,0.054755847,-0.054755847,orange,1,0.16426754,0.16426754,black,1,-0.054755847,0.16426754,magenta,1,0.05,0.05,0.15,-0.273779233,0.273779233,red,k,112,20,2020-10-22_12h11.01.180,CDT_GNG_IUS12,2020.1.2,Linux aarch64,60,,l,0,0.75483,0,91,91,72,1,,,,,,,,,,,,,,,,,,,,,,,,,,,,,,,,,,,,,,,,,,,,,,,,,
,,,,,,,,,,29,same,4,0.273779233,0.054755847,magenta,1,-0.054755847,0.273779233,cyan,1,0.16426754,-0.054755847,green,1,-0.16426754,-0.054755847,black,1,0.273779233,0.16426754,orange,0,-0.16426754,0.054755847,blue,0,0.05,0.05,0.15,0.16426754,-0.054755847,green,k,112,20,2020-10-22_12h11.01.180,CDT_GNG_IUS12,2020.1.2,Linux aarch64,60,,l,0,0.5332,0,92,92,28,1,,,,,,,,,,,,,,,,,,,,,,,,,,,,,,,,,,,,,,,,,,,,,,,,,
,,,,,,,,,,53,different,4,-0.16426754,0.054755847,green,1,0.273779233,0.054755847,cyan,1,-0.273779233,-0.273779233,magenta,1,0.054755847,-0.16426754,black,1,-0.054755847,0.16426754,red,0,0.273779233,0.273779233,blue,0,0.05,0.05,0.15,-0.273779233,-0.273779233,black,l,112,20,2020-10-22_12h11.01.180,CDT_GNG_IUS12,2020.1.2,Linux aarch64,60,,k,0,0.803525,0,93,93,52,1,,,,,,,,,,,,,,,,,,,,,,,,,,,,,,,,,,,,,,,,,,,,,,,,,
,,,,,,,,,,103,different,6,-0.273779233,-0.16426754,black,1,0.273779233,-0.054755847,cyan,1,0.054755847,0.273779233,magenta,1,-0.054755847,0.16426754,orange,1,-0.16426754,-0.16426754,green,1,0.273779233,-0.16426754,red,1,0.05,0.05,0.15,-0.273779233,-0.16426754,blue,l,112,20,2020-10-22_12h11.01.180,CDT_GNG_IUS12,2020.1.2,Linux aarch64,60,,l,1,0.583105,0,94,94,102,1,,,,,,,,,,,,,,,,,,,,,,,,,,,,,,,,,,,,,,,,,,,,,,,,,
,,,,,,,,,,66,same,6,0.273779233,-0.273779233,cyan,1,-0.273779233,-0.054755847,black,1,-0.273779233,0.054755847,yellow,1,0.273779233,0.16426754,green,1,0.054755847,-0.16426754,orange,1,-0.273779233,-0.16426754,magenta,1,0.05,0.05,0.15,0.273779233,0.16426754,green,k,112,20,2020-10-22_12h11.01.180,CDT_GNG_IUS12,2020.1.2,Linux aarch64,60,,l,0,0.782695,0,95,95,65,1,,,,,,,,,,,,,,,,,,,,,,,,,,,,,,,,,,,,,,,,,,,,,,,,,
,,,,,,,,,,8,same,4,0.16426754,-0.16426754,blue,1,-0.16426754,-0.054755847,red,1,-0.273779233,0.16426754,green,1,0.054755847,0.054755847,cyan,1,0.16426754,-0.273779233,magenta,0,-0.054755847,-0.054755847,orange,0,0.05,0.05,0.15,-0.273779233,0.16426754,green,k,112,20,2020-10-22_12h11.01.180,CDT_GNG_IUS12,2020.1.2,Linux aarch64,60,,k,1,0.772285,0,96,96,7,1,,,,,,,,,,,,,,,,,,,,,,,,,,,,,,,,,,,,,,,,,,,,,,,,,
,,,,,,,,,,111,different,6,0.273779233,0.273779233,green,1,0.054755847,-0.16426754,red,1,-0.16426754,-0.16426754,black,1,-0.16426754,0.16426754,magenta,1,0.054755847,0.054755847,blue,1,0.273779233,-0.16426754,yellow,1,0.05,0.05,0.15,0.273779233,-0.16426754,green,l,112,20,2020-10-22_12h11.01.180,CDT_GNG_IUS12,2020.1.2,Linux aarch64,60,,l,1,0.778095,0,97,97,110,1,,,,,,,,,,,,,,,,,,,,,,,,,,,,,,,,,,,,,,,,,,,,,,,,,
,,,,,,,,,,86,same,6,0.054755847,0.273779233,green,1,-0.054755847,0.273779233,red,1,0.16426754,-0.16426754,yellow,1,-0.054755847,-0.273779233,black,1,0.273779233,0.273779233,cyan,1,-0.273779233,0.054755847,orange,1,0.05,0.05,0.15,-0.273779233,0.054755847,orange,k,112,20,2020-10-22_12h11.01.180,CDT_GNG_IUS12,2020.1.2,Linux aarch64,60,,k,1,0.846505,0,98,98,85,1,,,,,,,,,,,,,,,,,,,,,,,,,,,,,,,,,,,,,,,,,,,,,,,,,
,,,,,,,,,,91,different,6,-0.054755847,0.054755847,green,1,0.054755847,-0.16426754,cyan,1,-0.054755847,-0.054755847,black,1,0.16426754,0.273779233,yellow,1,-0.273779233,0.273779233,magenta,1,0.16426754,-0.054755847,red,1,0.05,0.05,0.15,0.16426754,-0.054755847,green,l,112,20,2020-10-22_12h11.01.180,CDT_GNG_IUS12,2020.1.2,Linux aarch64,60,,l,1,0.73859,0,99,99,90,1,,,,,,,,,,,,,,,,,,,,,,,,,,,,,,,,,,,,,,,,,,,,,,,,,
,,,,,,,,,,81,same,6,-0.273779233,-0.273779233,green,1,-0.273779233,0.16426754,blue,1,0.054755847,-0.16426754,black,1,0.273779233,0.054755847,cyan,1,-0.16426754,-0.273779233,orange,1,-0.054755847,0.054755847,red,1,0.05,0.05,0.15,0.054755847,-0.16426754,black,k,112,20,2020-10-22_12h11.01.180,CDT_GNG_IUS12,2020.1.2,Linux aarch64,60,,l,0,0.81016,0,100,100,80,1,,,,,,,,,,,,,,,,,,,,,,,,,,,,,,,,,,,,,,,,,,,,,,,,,
,,,,,,,,,,13,same,4,0.16426754,0.273779233,orange,1,0.054755847,-0.273779233,blue,1,-0.054755847,0.054755847,magenta,1,-0.054755847,-0.16426754,black,1,0.054755847,0.16426754,yellow,0,0.16426754,-0.054755847,cyan,0,0.05,0.05,0.15,0.054755847,-0.273779233,blue,k,112,20,2020-10-22_12h11.01.180,CDT_GNG_IUS12,2020.1.2,Linux aarch64,60,,l,0,0.58257,0,101,101,12,1,,,,,,,,,,,,,,,,,,,,,,,,,,,,,,,,,,,,,,,,,,,,,,,,,
,,,,,,,,,,59,different,4,0.16426754,-0.16426754,red,1,-0.054755847,-0.16426754,cyan,1,0.054755847,0.16426754,yellow,1,-0.16426754,0.273779233,green,1,0.16426754,-0.054755847,orange,0,-0.16426754,-0.054755847,black,0,0.05,0.05,0.15,-0.16426754,0.273779233,black,l,112,20,2020-10-22_12h11.01.180,CDT_GNG_IUS12,2020.1.2,Linux aarch64,60,,l,1,0.840345,0,102,102,58,1,,,,,,,,,,,,,,,,,,,,,,,,,,,,,,,,,,,,,,,,,,,,,,,,,
,,,,,,,,,,100,different,6,0.273779233,0.16426754,blue,1,-0.054755847,0.054755847,magenta,1,-0.273779233,-0.054755847,orange,1,0.273779233,-0.273779233,red,1,0.16426754,0.054755847,green,1,-0.273779233,0.054755847,yellow,1,0.05,0.05,0.15,0.273779233,0.16426754,orange,l,112,20,2020-10-22_12h11.01.180,CDT_GNG_IUS12,2020.1.2,Linux aarch64,60,,l,1,0.71767,0,103,103,99,1,,,,,,,,,,,,,,,,,,,,,,,,,,,,,,,,,,,,,,,,,,,,,,,,,
,,,,,,,,,,92,different,6,0.16426754,0.16426754,green,1,-0.054755847,-0.054755847,cyan,1,-0.054755847,0.054755847,red,1,0.16426754,-0.054755847,magenta,1,0.054755847,0.16426754,orange,1,-0.273779233,-0.16426754,yellow,1,0.05,0.05,0.15,0.16426754,0.16426754,cyan,l,112,20,2020-10-22_12h11.01.180,CDT_GNG_IUS12,2020.1.2,Linux aarch64,60,,l,1,0.821695,0,104,104,91,1,,,,,,,,,,,,,,,,,,,,,,,,,,,,,,,,,,,,,,,,,,,,,,,,,
,,,,,,,,,,116,different,6,-0.273779233,0.16426754,green,1,-0.054755847,-0.054755847,orange,1,0.273779233,-0.273779233,cyan,1,0.054755847,0.273779233,red,1,-0.054755847,0.16426754,blue,1,-0.16426754,-0.054755847,yellow,1,0.05,0.05,0.15,-0.054755847,-0.054755847,magenta,l,112,20,2020-10-22_12h11.01.180,CDT_GNG_IUS12,2020.1.2,Linux aarch64,60,,l,1,0.6673,0,105,105,115,1,,,,,,,,,,,,,,,,,,,,,,,,,,,,,,,,,,,,,,,,,,,,,,,,,
,,,,,,,,,,22,same,4,-0.054755847,-0.16426754,green,1,-0.16426754,0.054755847,blue,1,0.16426754,0.16426754,yellow,1,0.273779233,-0.054755847,black,1,-0.273779233,-0.054755847,red,0,-0.054755847,0.16426754,cyan,0,0.05,0.05,0.15,0.273779233,-0.054755847,black,k,112,20,2020-10-22_12h11.01.180,CDT_GNG_IUS12,2020.1.2,Linux aarch64,60,,k,1,0.568705,0,106,106,21,1,,,,,,,,,,,,,,,,,,,,,,,,,,,,,,,,,,,,,,,,,,,,,,,,,
,,,,,,,,,,63,same,6,-0.273779233,0.273779233,red,1,-0.273779233,-0.16426754,orange,1,0.054755847,-0.273779233,black,1,0.16426754,0.16426754,cyan,1,-0.054755847,0.054755847,blue,1,-0.273779233,-0.054755847,magenta,1,0.05,0.05,0.15,-0.273779233,-0.054755847,magenta,k,112,20,2020-10-22_12h11.01.180,CDT_GNG_IUS12,2020.1.2,Linux aarch64,60,,k,1,0.6798,0,107,107,62,1,,,,,,,,,,,,,,,,,,,,,,,,,,,,,,,,,,,,,,,,,,,,,,,,,
,,,,,,,,,,26,same,4,0.16426754,-0.16426754,green,1,-0.054755847,0.16426754,yellow,1,-0.273779233,-0.16426754,black,1,0.054755847,0.054755847,red,1,0.16426754,-0.054755847,cyan,0,-0.273779233,0.273779233,magenta,0,0.05,0.05,0.15,-0.054755847,0.16426754,yellow,k,112,20,2020-10-22_12h11.01.180,CDT_GNG_IUS12,2020.1.2,Linux aarch64,60,,l,0,0.747195,0,108,108,25,1,,,,,,,,,,,,,,,,,,,,,,,,,,,,,,,,,,,,,,,,,,,,,,,,,
,,,,,,,,,,114,different,6,-0.16426754,0.16426754,black,1,-0.054755847,-0.273779233,orange,1,0.054755847,0.16426754,magenta,1,0.273779233,-0.16426754,green,1,-0.054755847,0.16426754,cyan,1,-0.273779233,-0.273779233,yellow,1,0.05,0.05,0.15,0.054755847,0.16426754,blue,l,112,20,2020-10-22_12h11.01.180,CDT_GNG_IUS12,2020.1.2,Linux aarch64,60,,l,1,0.743625,0,109,109,113,1,,,,,,,,,,,,,,,,,,,,,,,,,,,,,,,,,,,,,,,,,,,,,,,,,
,,,,,,,,,,12,same,4,0.054755847,0.054755847,blue,1,-0.273779233,-0.054755847,magenta,1,-0.054755847,0.273779233,black,1,0.16426754,-0.16426754,green,1,0.16426754,0.16426754,yellow,0,-0.16426754,-0.054755847,orange,0,0.05,0.05,0.15,0.054755847,0.054755847,blue,k,112,20,2020-10-22_12h11.01.180,CDT_GNG_IUS12,2020.1.2,Linux aarch64,60,,k,1,0.59821,0,110,110,11,1,,,,,,,,,,,,,,,,,,,,,,,,,,,,,,,,,,,,,,,,,,,,,,,,,
,,,,,,,,,,55,different,4,0.273779233,0.054755847,yellow,1,0.054755847,-0.16426754,green,1,-0.273779233,-0.16426754,orange,1,-0.273779233,0.273779233,blue,1,0.273779233,0.273779233,red,0,0.273779233,-0.16426754,cyan,0,0.05,0.05,0.15,0.054755847,-0.16426754,red,l,112,20,2020-10-22_12h11.01.180,CDT_GNG_IUS12,2020.1.2,Linux aarch64,60,,l,1,0.81644,0,111,111,54,1,,,,,,,,,,,,,,,,,,,,,,,,,,,,,,,,,,,,,,,,,,,,,,,,,
,,,,,,,,,,119,different,6,-0.273779233,0.054755847,cyan,1,-0.273779233,-0.273779233,blue,1,0.16426754,0.054755847,orange,1,0.054755847,-0.16426754,yellow,1,-0.273779233,0.273779233,black,1,-0.054755847,-0.054755847,green,1,0.05,0.05,0.15,-0.273779233,-0.273779233,cyan,l,112,20,2020-10-22_12h11.01.180,CDT_GNG_IUS12,2020.1.2,Linux aarch64,60,,k,0,0.850965,0,112,112,118,1,,,,,,,,,,,,,,,,,,,,,,,,,,,,,,,,,,,,,,,,,,,,,,,,,
,,,,,,,,,,74,same,6,-0.273779233,-0.273779233,magenta,1,0.16426754,0.054755847,cyan,1,-0.16426754,0.273779233,black,1,0.273779233,-0.054755847,yellow,1,-0.16426754,-0.16426754,red,1,0.054755847,0.273779233,green,1,0.05,0.05,0.15,-0.16426754,-0.16426754,red,k,112,20,2020-10-22_12h11.01.180,CDT_GNG_IUS12,2020.1.2,Linux aarch64,60,,l,0,0.645295,0,113,113,73,1,,,,,,,,,,,,,,,,,,,,,,,,,,,,,,,,,,,,,,,,,,,,,,,,,
,,,,,,,,,,39,different,4,0.054755847,0.054755847,green,1,0.273779233,-0.16426754,yellow,1,-0.16426754,0.054755847,orange,1,-0.273779233,-0.054755847,red,1,0.273779233,0.054755847,blue,0,0.054755847,-0.16426754,cyan,0,0.05,0.05,0.15,-0.273779233,-0.054755847,cyan,l,112,20,2020-10-22_12h11.01.180,CDT_GNG_IUS12,2020.1.2,Linux aarch64,60,,l,1,0.50543,0,114,114,38,1,,,,,,,,,,,,,,,,,,,,,,,,,,,,,,,,,,,,,,,,,,,,,,,,,
,,,,,,,,,,110,different,6,-0.273779233,0.273779233,black,1,0.273779233,-0.16426754,red,1,0.054755847,0.273779233,cyan,1,-0.273779233,-0.16426754,orange,1,-0.054755847,0.054755847,magenta,1,0.16426754,-0.054755847,yellow,1,0.05,0.05,0.15,0.273779233,-0.16426754,yellow,l,112,20,2020-10-22_12h11.01.180,CDT_GNG_IUS12,2020.1.2,Linux aarch64,60,,l,1,0.71273,0,115,115,109,1,,,,,,,,,,,,,,,,,,,,,,,,,,,,,,,,,,,,,,,,,,,,,,,,,
,,,,,,,,,,45,different,4,0.054755847,0.16426754,blue,1,-0.054755847,-0.273779233,magenta,1,-0.16426754,0.16426754,black,1,0.054755847,-0.16426754,orange,1,0.273779233,0.273779233,green,0,-0.273779233,-0.16426754,cyan,0,0.05,0.05,0.15,-0.16426754,0.16426754,magenta,l,112,20,2020-10-22_12h11.01.180,CDT_GNG_IUS12,2020.1.2,Linux aarch64,60,,l,1,0.71212,0,116,116,44,1,,,,,,,,,,,,,,,,,,,,,,,,,,,,,,,,,,,,,,,,,,,,,,,,,
,,,,,,,,,,5,same,4,0.273779233,-0.054755847,green,1,0.273779233,0.054755847,orange,1,-0.054755847,0.054755847,black,1,-0.054755847,-0.16426754,blue,1,0.054755847,-0.054755847,cyan,0,0.054755847,0.273779233,red,0,0.05,0.05,0.15,-0.054755847,-0.16426754,blue,k,112,20,2020-10-22_12h11.01.180,CDT_GNG_IUS12,2020.1.2,Linux aarch64,60,,l,0,0.561805,0,117,117,4,1,,,,,,,,,,,,,,,,,,,,,,,,,,,,,,,,,,,,,,,,,,,,,,,,,
,,,,,,,,,,54,different,4,-0.054755847,-0.054755847,black,1,0.054755847,0.054755847,cyan,1,0.273779233,-0.16426754,green,1,-0.273779233,0.16426754,magenta,1,-0.054755847,-0.16426754,orange,0,0.054755847,0.16426754,blue,0,0.05,0.05,0.15,-0.273779233,0.16426754,orange,l,112,20,2020-10-22_12h11.01.180,CDT_GNG_IUS12,2020.1.2,Linux aarch64,60,,l,1,0.506735,0,118,118,53,1,,,,,,,,,,,,,,,,,,,,,,,,,,,,,,,,,,,,,,,,,,,,,,,,,
,,,,,,,,,,108,different,6,-0.273779233,-0.054755847,magenta,1,0.054755847,0.16426754,red,1,-0.16426754,0.054755847,cyan,1,0.054755847,-0.273779233,green,1,-0.273779233,-0.16426754,orange,1,0.273779233,0.273779233,black,1,0.05,0.05,0.15,-0.273779233,-0.054755847,blue,l,112,20,2020-10-22_12h11.01.180,CDT_GNG_IUS12,2020.1.2,Linux aarch64,60,,l,1,0.63252,0,119,119,107,1,,,,,,,,,,,,,,,,,,,,,,,,,,,,,,,,,,,,,,,,,,,,,,,,,
,,,,,,,,,,,,,,,,,,,,,,,,,,,,,,,,,,,,,,,,,,,space,112,20,2020-10-22_12h11.01.180,CDT_GNG_IUS12,2020.1.2,Linux aarch64,60,,,,,,,,,,,space,1,0.679815,0,0,0,7,1,0,1,,,,,,,,,,,,,,,,,,,,,,,,,,,,,,,,,,,,,,
,,,,,,,,,,,,,,,,,,,,,,,,,,,,,,,,,,,,,,,,,,,,112,20,2020-10-22_12h11.01.180,CDT_GNG_IUS12,2020.1.2,Linux aarch64,60,,,,,,,,,,,,1,,0,1,1,2,1,1,0,,,,,,,,,,,,,,,,,,,,,,,,,,,,,,,,,,,,,,
,,,,,,,,,,,,,,,,,,,,,,,,,,,,,,,,,,,,,,,,,,,space,112,20,2020-10-22_12h11.01.180,CDT_GNG_IUS12,2020.1.2,Linux aarch64,60,,,,,,,,,,,space,1,0.424235,0,2,2,6,1,0,1,,,,,,,,,,,,,,,,,,,,,,,,,,,,,,,,,,,,,,
,,,,,,,,,,,,,,,,,,,,,,,,,,,,,,,,,,,,,,,,,,,,112,20,2020-10-22_12h11.01.180,CDT_GNG_IUS12,2020.1.2,Linux aarch64,60,,,,,,,,,,,,1,,0,3,3,1,1,1,0,,,,,,,,,,,,,,,,,,,,,,,,,,,,,,,,,,,,,,
,,,,,,,,,,,,,,,,,,,,,,,,,,,,,,,,,,,,,,,,,,,,112,20,2020-10-22_12h11.01.180,CDT_GNG_IUS12,2020.1.2,Linux aarch64,60,,,,,,,,,,,,1,,0,4,4,3,1,1,0,,,,,,,,,,,,,,,,,,,,,,,,,,,,,,,,,,,,,,
,,,,,,,,,,,,,,,,,,,,,,,,,,,,,,,,,,,,,,,,,,,space,112,20,2020-10-22_12h11.01.180,CDT_GNG_IUS12,2020.1.2,Linux aarch64,60,,,,,,,,,,,space,1,0.32373,0,5,5,5,1,0,1,,,,,,,,,,,,,,,,,,,,,,,,,,,,,,,,,,,,,,
,,,,,,,,,,,,,,,,,,,,,,,,,,,,,,,,,,,,,,,,,,,space,112,20,2020-10-22_12h11.01.180,CDT_GNG_IUS12,2020.1.2,Linux aarch64,60,,,,,,,,,,,space,1,0.45159,0,6,6,4,1,0,1,,,,,,,,,,,,,,,,,,,,,,,,,,,,,,,,,,,,,,
,,,,,,,,,,,,,,,,,,,,,,,,,,,,,,,,,,,,,,,,,,,,112,20,2020-10-22_12h11.01.180,CDT_GNG_IUS12,2020.1.2,Linux aarch64,60,,,,,,,,,,,,1,,0,7,7,0,1,1,0,,,,,,,,,,,,,,,,,,,,,,,,,,,,,,,,,,,,,,
,,,,,,,,,,,,,,,,,,,,,,,,,,,,,,,,,,,,,,,,,,,space,112,20,2020-10-22_12h11.01.180,CDT_GNG_IUS12,2020.1.2,Linux aarch64,60,,,,,,,,,,,,,,,,,,,0,1,space,1,0.39702,0,0,0,39,1,,,,,,,,,,,,,,,,,,,,,,,,,,,,,,
,,,,,,,,,,,,,,,,,,,,,,,,,,,,,,,,,,,,,,,,,,,space,112,20,2020-10-22_12h11.01.180,CDT_GNG_IUS12,2020.1.2,Linux aarch64,60,,,,,,,,,,,,,,,,,,,0,1,space,1,0.46741,0,1,1,33,1,,,,,,,,,,,,,,,,,,,,,,,,,,,,,,
,,,,,,,,,,,,,,,,,,,,,,,,,,,,,,,,,,,,,,,,,,,space,112,20,2020-10-22_12h11.01.180,CDT_GNG_IUS12,2020.1.2,Linux aarch64,60,,,,,,,,,,,,,,,,,,,0,1,space,1,0.304875,0,2,2,38,1,,,,,,,,,,,,,,,,,,,,,,,,,,,,,,
,,,,,,,,,,,,,,,,,,,,,,,,,,,,,,,,,,,,,,,,,,,,112,20,2020-10-22_12h11.01.180,CDT_GNG_IUS12,2020.1.2,Linux aarch64,60,,,,,,,,,,,,,,,,,,,1,0,,1,,0,3,3,1,1,,,,,,,,,,,,,,,,,,,,,,,,,,,,,,
,,,,,,,,,,,,,,,,,,,,,,,,,,,,,,,,,,,,,,,,,,,space,112,20,2020-10-22_12h11.01.180,CDT_GNG_IUS12,2020.1.2,Linux aarch64,60,,,,,,,,,,,,,,,,,,,0,1,space,1,0.286075,0,4,4,28,1,,,,,,,,,,,,,,,,,,,,,,,,,,,,,,
,,,,,,,,,,,,,,,,,,,,,,,,,,,,,,,,,,,,,,,,,,,space,112,20,2020-10-22_12h11.01.180,CDT_GNG_IUS12,2020.1.2,Linux aarch64,60,,,,,,,,,,,,,,,,,,,0,1,space,1,0.442835,0,5,5,37,1,,,,,,,,,,,,,,,,,,,,,,,,,,,,,,
,,,,,,,,,,,,,,,,,,,,,,,,,,,,,,,,,,,,,,,,,,,space,112,20,2020-10-22_12h11.01.180,CDT_GNG_IUS12,2020.1.2,Linux aarch64,60,,,,,,,,,,,,,,,,,,,0,1,space,1,0.36511,0,6,6,30,1,,,,,,,,,,,,,,,,,,,,,,,,,,,,,,
,,,,,,,,,,,,,,,,,,,,,,,,,,,,,,,,,,,,,,,,,,,space,112,20,2020-10-22_12h11.01.180,CDT_GNG_IUS12,2020.1.2,Linux aarch64,60,,,,,,,,,,,,,,,,,,,0,1,space,1,0.35076,0,7,7,18,1,,,,,,,,,,,,,,,,,,,,,,,,,,,,,,
,,,,,,,,,,,,,,,,,,,,,,,,,,,,,,,,,,,,,,,,,,,space,112,20,2020-10-22_12h11.01.180,CDT_GNG_IUS12,2020.1.2,Linux aarch64,60,,,,,,,,,,,,,,,,,,,0,1,space,1,0.365185,0,8,8,13,1,,,,,,,,,,,,,,,,,,,,,,,,,,,,,,
,,,,,,,,,,,,,,,,,,,,,,,,,,,,,,,,,,,,,,,,,,,space,112,20,2020-10-22_12h11.01.180,CDT_GNG_IUS12,2020.1.2,Linux aarch64,60,,,,,,,,,,,,,,,,,,,0,1,space,1,0.349665,0,9,9,32,1,,,,,,,,,,,,,,,,,,,,,,,,,,,,,,
,,,,,,,,,,,,,,,,,,,,,,,,,,,,,,,,,,,,,,,,,,,,112,20,2020-10-22_12h11.01.180,CDT_GNG_IUS12,2020.1.2,Linux aarch64,60,,,,,,,,,,,,,,,,,,,1,0,,1,,0,10,10,6,1,,,,,,,,,,,,,,,,,,,,,,,,,,,,,,
,,,,,,,,,,,,,,,,,,,,,,,,,,,,,,,,,,,,,,,,,,,space,112,20,2020-10-22_12h11.01.180,CDT_GNG_IUS12,2020.1.2,Linux aarch64,60,,,,,,,,,,,,,,,,,,,0,1,space,1,0.34076,0,11,11,29,1,,,,,,,,,,,,,,,,,,,,,,,,,,,,,,
,,,,,,,,,,,,,,,,,,,,,,,,,,,,,,,,,,,,,,,,,,,,112,20,2020-10-22_12h11.01.180,CDT_GNG_IUS12,2020.1.2,Linux aarch64,60,,,,,,,,,,,,,,,,,,,1,0,,1,,0,12,12,8,1,,,,,,,,,,,,,,,,,,,,,,,,,,,,,,
,,,,,,,,,,,,,,,,,,,,,,,,,,,,,,,,,,,,,,,,,,,space,112,20,2020-10-22_12h11.01.180,CDT_GNG_IUS12,2020.1.2,Linux aarch64,60,,,,,,,,,,,,,,,,,,,0,1,space,1,0.247185,0,13,13,27,1,,,,,,,,,,,,,,,,,,,,,,,,,,,,,,
,,,,,,,,,,,,,,,,,,,,,,,,,,,,,,,,,,,,,,,,,,,space,112,20,2020-10-22_12h11.01.180,CDT_GNG_IUS12,2020.1.2,Linux aarch64,60,,,,,,,,,,,,,,,,,,,0,1,space,1,0.47771,0,14,14,22,1,,,,,,,,,,,,,,,,,,,,,,,,,,,,,,
,,,,,,,,,,,,,,,,,,,,,,,,,,,,,,,,,,,,,,,,,,,,112,20,2020-10-22_12h11.01.180,CDT_GNG_IUS12,2020.1.2,Linux aarch64,60,,,,,,,,,,,,,,,,,,,1,0,,1,,0,15,15,7,1,,,,,,,,,,,,,,,,,,,,,,,,,,,,,,
,,,,,,,,,,,,,,,,,,,,,,,,,,,,,,,,,,,,,,,,,,,space,112,20,2020-10-22_12h11.01.180,CDT_GNG_IUS12,2020.1.2,Linux aarch64,60,,,,,,,,,,,,,,,,,,,0,1,space,1,0.31233,0,16,16,47,1,,,,,,,,,,,,,,,,,,,,,,,,,,,,,,
,,,,,,,,,,,,,,,,,,,,,,,,,,,,,,,,,,,,,,,,,,,space,112,20,2020-10-22_12h11.01.180,CDT_GNG_IUS12,2020.1.2,Linux aarch64,60,,,,,,,,,,,,,,,,,,,0,1,space,1,0.42639,0,17,17,44,1,,,,,,,,,,,,,,,,,,,,,,,,,,,,,,
,,,,,,,,,,,,,,,,,,,,,,,,,,,,,,,,,,,,,,,,,,,space,112,20,2020-10-22_12h11.01.180,CDT_GNG_IUS12,2020.1.2,Linux aarch64,60,,,,,,,,,,,,,,,,,,,0,1,space,1,0.35557,0,18,18,14,1,,,,,,,,,,,,,,,,,,,,,,,,,,,,,,
,,,,,,,,,,,,,,,,,,,,,,,,,,,,,,,,,,,,,,,,,,,space,112,20,2020-10-22_12h11.01.180,CDT_GNG_IUS12,2020.1.2,Linux aarch64,60,,,,,,,,,,,,,,,,,,,0,1,space,1,0.34327,0,19,19,48,1,,,,,,,,,,,,,,,,,,,,,,,,,,,,,,
,,,,,,,,,,,,,,,,,,,,,,,,,,,,,,,,,,,,,,,,,,,space,112,20,2020-10-22_12h11.01.180,CDT_GNG_IUS12,2020.1.2,Linux aarch64,60,,,,,,,,,,,,,,,,,,,0,1,space,1,0.34694,0,20,20,21,1,,,,,,,,,,,,,,,,,,,,,,,,,,,,,,
,,,,,,,,,,,,,,,,,,,,,,,,,,,,,,,,,,,,,,,,,,,space,112,20,2020-10-22_12h11.01.180,CDT_GNG_IUS12,2020.1.2,Linux aarch64,60,,,,,,,,,,,,,,,,,,,0,1,space,1,0.37647,0,21,21,45,1,,,,,,,,,,,,,,,,,,,,,,,,,,,,,,
,,,,,,,,,,,,,,,,,,,,,,,,,,,,,,,,,,,,,,,,,,,,112,20,2020-10-22_12h11.01.180,CDT_GNG_IUS12,2020.1.2,Linux aarch64,60,,,,,,,,,,,,,,,,,,,1,0,space,0,0.32896,0,22,22,0,1,,,,,,,,,,,,,,,,,,,,,,,,,,,,,,
,,,,,,,,,,,,,,,,,,,,,,,,,,,,,,,,,,,,,,,,,,,,112,20,2020-10-22_12h11.01.180,CDT_GNG_IUS12,2020.1.2,Linux aarch64,60,,,,,,,,,,,,,,,,,,,1,0,,1,,0,23,23,2,1,,,,,,,,,,,,,,,,,,,,,,,,,,,,,,
,,,,,,,,,,,,,,,,,,,,,,,,,,,,,,,,,,,,,,,,,,,space,112,20,2020-10-22_12h11.01.180,CDT_GNG_IUS12,2020.1.2,Linux aarch64,60,,,,,,,,,,,,,,,,,,,0,1,space,1,0.471845,0,24,24,31,1,,,,,,,,,,,,,,,,,,,,,,,,,,,,,,
,,,,,,,,,,,,,,,,,,,,,,,,,,,,,,,,,,,,,,,,,,,space,112,20,2020-10-22_12h11.01.180,CDT_GNG_IUS12,2020.1.2,Linux aarch64,60,,,,,,,,,,,,,,,,,,,0,1,space,1,0.402175,0,25,25,20,1,,,,,,,,,,,,,,,,,,,,,,,,,,,,,,
,,,,,,,,,,,,,,,,,,,,,,,,,,,,,,,,,,,,,,,,,,,space,112,20,2020-10-22_12h11.01.180,CDT_GNG_IUS12,2020.1.2,Linux aarch64,60,,,,,,,,,,,,,,,,,,,0,1,space,1,0.33006,0,26,26,41,1,,,,,,,,,,,,,,,,,,,,,,,,,,,,,,
,,,,,,,,,,,,,,,,,,,,,,,,,,,,,,,,,,,,,,,,,,,space,112,20,2020-10-22_12h11.01.180,CDT_GNG_IUS12,2020.1.2,Linux aarch64,60,,,,,,,,,,,,,,,,,,,0,1,space,1,0.29578,0,27,27,23,1,,,,,,,,,,,,,,,,,,,,,,,,,,,,,,
,,,,,,,,,,,,,,,,,,,,,,,,,,,,,,,,,,,,,,,,,,,space,112,20,2020-10-22_12h11.01.180,CDT_GNG_IUS12,2020.1.2,Linux aarch64,60,,,,,,,,,,,,,,,,,,,0,1,space,1,0.332405,0,28,28,15,1,,,,,,,,,,,,,,,,,,,,,,,,,,,,,,
,,,,,,,,,,,,,,,,,,,,,,,,,,,,,,,,,,,,,,,,,,,space,112,20,2020-10-22_12h11.01.180,CDT_GNG_IUS12,2020.1.2,Linux aarch64,60,,,,,,,,,,,,,,,,,,,0,1,space,1,0.329795,0,29,29,46,1,,,,,,,,,,,,,,,,,,,,,,,,,,,,,,
,,,,,,,,,,,,,,,,,,,,,,,,,,,,,,,,,,,,,,,,,,,space,112,20,2020-10-22_12h11.01.180,CDT_GNG_IUS12,2020.1.2,Linux aarch64,60,,,,,,,,,,,,,,,,,,,0,1,space,1,0.35963,0,30,30,12,1,,,,,,,,,,,,,,,,,,,,,,,,,,,,,,
,,,,,,,,,,,,,,,,,,,,,,,,,,,,,,,,,,,,,,,,,,,space,112,20,2020-10-22_12h11.01.180,CDT_GNG_IUS12,2020.1.2,Linux aarch64,60,,,,,,,,,,,,,,,,,,,0,1,space,1,0.433305,0,31,31,34,1,,,,,,,,,,,,,,,,,,,,,,,,,,,,,,
,,,,,,,,,,,,,,,,,,,,,,,,,,,,,,,,,,,,,,,,,,,space,112,20,2020-10-22_12h11.01.180,CDT_GNG_IUS12,2020.1.2,Linux aarch64,60,,,,,,,,,,,,,,,,,,,0,1,space,1,0.4898,0,32,32,10,1,,,,,,,,,,,,,,,,,,,,,,,,,,,,,,
,,,,,,,,,,,,,,,,,,,,,,,,,,,,,,,,,,,,,,,,,,,space,112,20,2020-10-22_12h11.01.180,CDT_GNG_IUS12,2020.1.2,Linux aarch64,60,,,,,,,,,,,,,,,,,,,0,1,space,1,0.531235,0,33,33,17,1,,,,,,,,,,,,,,,,,,,,,,,,,,,,,,
,,,,,,,,,,,,,,,,,,,,,,,,,,,,,,,,,,,,,,,,,,,,112,20,2020-10-22_12h11.01.180,CDT_GNG_IUS12,2020.1.2,Linux aarch64,60,,,,,,,,,,,,,,,,,,,1,0,,1,,0,34,34,5,1,,,,,,,,,,,,,,,,,,,,,,,,,,,,,,
,,,,,,,,,,,,,,,,,,,,,,,,,,,,,,,,,,,,,,,,,,,space,112,20,2020-10-22_12h11.01.180,CDT_GNG_IUS12,2020.1.2,Linux aarch64,60,,,,,,,,,,,,,,,,,,,0,1,space,1,0.393875,0,35,35,35,1,,,,,,,,,,,,,,,,,,,,,,,,,,,,,,
,,,,,,,,,,,,,,,,,,,,,,,,,,,,,,,,,,,,,,,,,,,space,112,20,2020-10-22_12h11.01.180,CDT_GNG_IUS12,2020.1.2,Linux aarch64,60,,,,,,,,,,,,,,,,,,,0,1,space,1,0.40338,0,36,36,16,1,,,,,,,,,,,,,,,,,,,,,,,,,,,,,,
,,,,,,,,,,,,,,,,,,,,,,,,,,,,,,,,,,,,,,,,,,,,112,20,2020-10-22_12h11.01.180,CDT_GNG_IUS12,2020.1.2,Linux aarch64,60,,,,,,,,,,,,,,,,,,,1,0,,1,,0,37,37,4,1,,,,,,,,,,,,,,,,,,,,,,,,,,,,,,
,,,,,,,,,,,,,,,,,,,,,,,,,,,,,,,,,,,,,,,,,,,space,112,20,2020-10-22_12h11.01.180,CDT_GNG_IUS12,2020.1.2,Linux aarch64,60,,,,,,,,,,,,,,,,,,,0,1,space,1,0.309545,0,38,38,24,1,,,,,,,,,,,,,,,,,,,,,,,,,,,,,,
,,,,,,,,,,,,,,,,,,,,,,,,,,,,,,,,,,,,,,,,,,,space,112,20,2020-10-22_12h11.01.180,CDT_GNG_IUS12,2020.1.2,Linux aarch64,60,,,,,,,,,,,,,,,,,,,0,1,space,1,0.382885,0,39,39,40,1,,,,,,,,,,,,,,,,,,,,,,,,,,,,,,
,,,,,,,,,,,,,,,,,,,,,,,,,,,,,,,,,,,,,,,,,,,space,112,20,2020-10-22_12h11.01.180,CDT_GNG_IUS12,2020.1.2,Linux aarch64,60,,,,,,,,,,,,,,,,,,,0,1,space,1,0.347255,0,40,40,43,1,,,,,,,,,,,,,,,,,,,,,,,,,,,,,,
,,,,,,,,,,,,,,,,,,,,,,,,,,,,,,,,,,,,,,,,,,,,112,20,2020-10-22_12h11.01.180,CDT_GNG_IUS12,2020.1.2,Linux aarch64,60,,,,,,,,,,,,,,,,,,,1,0,,1,,0,41,41,9,1,,,,,,,,,,,,,,,,,,,,,,,,,,,,,,
,,,,,,,,,,,,,,,,,,,,,,,,,,,,,,,,,,,,,,,,,,,space,112,20,2020-10-22_12h11.01.180,CDT_GNG_IUS12,2020.1.2,Linux aarch64,60,,,,,,,,,,,,,,,,,,,0,1,space,1,0.3093,0,42,42,49,1,,,,,,,,,,,,,,,,,,,,,,,,,,,,,,
,,,,,,,,,,,,,,,,,,,,,,,,,,,,,,,,,,,,,,,,,,,space,112,20,2020-10-22_12h11.01.180,CDT_GNG_IUS12,2020.1.2,Linux aarch64,60,,,,,,,,,,,,,,,,,,,0,1,space,1,0.37768,0,43,43,36,1,,,,,,,,,,,,,,,,,,,,,,,,,,,,,,
,,,,,,,,,,,,,,,,,,,,,,,,,,,,,,,,,,,,,,,,,,,space,112,20,2020-10-22_12h11.01.180,CDT_GNG_IUS12,2020.1.2,Linux aarch64,60,,,,,,,,,,,,,,,,,,,0,1,space,1,0.350065,0,44,44,26,1,,,,,,,,,,,,,,,,,,,,,,,,,,,,,,
,,,,,,,,,,,,,,,,,,,,,,,,,,,,,,,,,,,,,,,,,,,space,112,20,2020-10-22_12h11.01.180,CDT_GNG_IUS12,2020.1.2,Linux aarch64,60,,,,,,,,,,,,,,,,,,,0,1,space,1,0.33534,0,45,45,11,1,,,,,,,,,,,,,,,,,,,,,,,,,,,,,,
,,,,,,,,,,,,,,,,,,,,,,,,,,,,,,,,,,,,,,,,,,,,112,20,2020-10-22_12h11.01.180,CDT_GNG_IUS12,2020.1.2,Linux aarch64,60,,,,,,,,,,,,,,,,,,,1,0,,1,,0,46,46,3,1,,,,,,,,,,,,,,,,,,,,,,,,,,,,,,
,,,,,,,,,,,,,,,,,,,,,,,,,,,,,,,,,,,,,,,,,,,space,112,20,2020-10-22_12h11.01.180,CDT_GNG_IUS12,2020.1.2,Linux aarch64,60,,,,,,,,,,,,,,,,,,,0,1,space,1,0.27931,0,47,47,19,1,,,,,,,,,,,,,,,,,,,,,,,,,,,,,,
,,,,,,,,,,,,,,,,,,,,,,,,,,,,,,,,,,,,,,,,,,,space,112,20,2020-10-22_12h11.01.180,CDT_GNG_IUS12,2020.1.2,Linux aarch64,60,,,,,,,,,,,,,,,,,,,0,1,space,1,0.312405,0,48,48,25,1,,,,,,,,,,,,,,,,,,,,,,,,,,,,,,
,,,,,,,,,,,,,,,,,,,,,,,,,,,,,,,,,,,,,,,,,,,space,112,20,2020-10-22_12h11.01.180,CDT_GNG_IUS12,2020.1.2,Linux aarch64,60,,,,,,,,,,,,,,,,,,,0,1,space,1,0.28005,0,49,49,42,1,,,,,,,,,,,,,,,,,,,,,,,,,,,,,,
,,,,,,,,,,,,,,,,,,,,,,,,,,,,,,,,,,,,,,,,,,,space,112,20,2020-10-22_12h11.01.180,CDT_GNG_IUS12,2020.1.2,Linux aarch64,60,,,,,,,,,,,,,,,,,,,0,1,space,1,0.462635,,,,,,0,0,0,33,1,,,,,,,,,,,,,,,,,,,,,,,,,
,,,,,,,,,,,,,,,,,,,,,,,,,,,,,,,,,,,,,,,,,,,space,112,20,2020-10-22_12h11.01.180,CDT_GNG_IUS12,2020.1.2,Linux aarch64,60,,,,,,,,,,,,,,,,,,,0,1,space,1,0.398955,,,,,,0,1,1,45,1,,,,,,,,,,,,,,,,,,,,,,,,,
,,,,,,,,,,,,,,,,,,,,,,,,,,,,,,,,,,,,,,,,,,,space,112,20,2020-10-22_12h11.01.180,CDT_GNG_IUS12,2020.1.2,Linux aarch64,60,,,,,,,,,,,,,,,,,,,0,1,space,1,0.337715,,,,,,0,2,2,25,1,,,,,,,,,,,,,,,,,,,,,,,,,
,,,,,,,,,,,,,,,,,,,,,,,,,,,,,,,,,,,,,,,,,,,space,112,20,2020-10-22_12h11.01.180,CDT_GNG_IUS12,2020.1.2,Linux aarch64,60,,,,,,,,,,,,,,,,,,,0,1,space,1,0.31821,,,,,,0,3,3,22,1,,,,,,,,,,,,,,,,,,,,,,,,,
,,,,,,,,,,,,,,,,,,,,,,,,,,,,,,,,,,,,,,,,,,,space,112,20,2020-10-22_12h11.01.180,CDT_GNG_IUS12,2020.1.2,Linux aarch64,60,,,,,,,,,,,,,,,,,,,0,1,space,1,0.306235,,,,,,0,4,4,15,1,,,,,,,,,,,,,,,,,,,,,,,,,
,,,,,,,,,,,,,,,,,,,,,,,,,,,,,,,,,,,,,,,,,,,,112,20,2020-10-22_12h11.01.180,CDT_GNG_IUS12,2020.1.2,Linux aarch64,60,,,,,,,,,,,,,,,,,,,1,0,,1,,,,,,,0,5,5,5,1,,,,,,,,,,,,,,,,,,,,,,,,,
,,,,,,,,,,,,,,,,,,,,,,,,,,,,,,,,,,,,,,,,,,,space,112,20,2020-10-22_12h11.01.180,CDT_GNG_IUS12,2020.1.2,Linux aarch64,60,,,,,,,,,,,,,,,,,,,0,1,space,1,0.28069,,,,,,0,6,6,23,1,,,,,,,,,,,,,,,,,,,,,,,,,
,,,,,,,,,,,,,,,,,,,,,,,,,,,,,,,,,,,,,,,,,,,space,112,20,2020-10-22_12h11.01.180,CDT_GNG_IUS12,2020.1.2,Linux aarch64,60,,,,,,,,,,,,,,,,,,,0,1,space,1,0.34694,,,,,,0,7,7,30,1,,,,,,,,,,,,,,,,,,,,,,,,,
,,,,,,,,,,,,,,,,,,,,,,,,,,,,,,,,,,,,,,,,,,,,112,20,2020-10-22_12h11.01.180,CDT_GNG_IUS12,2020.1.2,Linux aarch64,60,,,,,,,,,,,,,,,,,,,1,0,,1,,,,,,,0,8,8,9,1,,,,,,,,,,,,,,,,,,,,,,,,,
,,,,,,,,,,,,,,,,,,,,,,,,,,,,,,,,,,,,,,,,,,,space,112,20,2020-10-22_12h11.01.180,CDT_GNG_IUS12,2020.1.2,Linux aarch64,60,,,,,,,,,,,,,,,,,,,0,1,space,1,0.188325,,,,,,0,9,9,11,1,,,,,,,,,,,,,,,,,,,,,,,,,
,,,,,,,,,,,,,,,,,,,,,,,,,,,,,,,,,,,,,,,,,,,space,112,20,2020-10-22_12h11.01.180,CDT_GNG_IUS12,2020.1.2,Linux aarch64,60,,,,,,,,,,,,,,,,,,,0,1,space,1,0.330485,,,,,,0,10,10,32,1,,,,,,,,,,,,,,,,,,,,,,,,,
,,,,,,,,,,,,,,,,,,,,,,,,,,,,,,,,,,,,,,,,,,,space,112,20,2020-10-22_12h11.01.180,CDT_GNG_IUS12,2020.1.2,Linux aarch64,60,,,,,,,,,,,,,,,,,,,0,1,space,1,0.396565,,,,,,0,11,11,27,1,,,,,,,,,,,,,,,,,,,,,,,,,
,,,,,,,,,,,,,,,,,,,,,,,,,,,,,,,,,,,,,,,,,,,,112,20,2020-10-22_12h11.01.180,CDT_GNG_IUS12,2020.1.2,Linux aarch64,60,,,,,,,,,,,,,,,,,,,1,0,,1,,,,,,,0,12,12,6,1,,,,,,,,,,,,,,,,,,,,,,,,,
,,,,,,,,,,,,,,,,,,,,,,,,,,,,,,,,,,,,,,,,,,,,112,20,2020-10-22_12h11.01.180,CDT_GNG_IUS12,2020.1.2,Linux aarch64,60,,,,,,,,,,,,,,,,,,,1,0,space,0,0.282195,,,,,,0,13,13,7,1,,,,,,,,,,,,,,,,,,,,,,,,,
,,,,,,,,,,,,,,,,,,,,,,,,,,,,,,,,,,,,,,,,,,,space,112,20,2020-10-22_12h11.01.180,CDT_GNG_IUS12,2020.1.2,Linux aarch64,60,,,,,,,,,,,,,,,,,,,0,1,,0,,,,,,,0,14,14,47,1,,,,,,,,,,,,,,,,,,,,,,,,,
,,,,,,,,,,,,,,,,,,,,,,,,,,,,,,,,,,,,,,,,,,,space,112,20,2020-10-22_12h11.01.180,CDT_GNG_IUS12,2020.1.2,Linux aarch64,60,,,,,,,,,,,,,,,,,,,0,1,space,1,0.26128,,,,,,0,15,15,16,1,,,,,,,,,,,,,,,,,,,,,,,,,
,,,,,,,,,,,,,,,,,,,,,,,,,,,,,,,,,,,,,,,,,,,space,112,20,2020-10-22_12h11.01.180,CDT_GNG_IUS12,2020.1.2,Linux aarch64,60,,,,,,,,,,,,,,,,,,,0,1,space,1,0.287395,,,,,,0,16,16,48,1,,,,,,,,,,,,,,,,,,,,,,,,,
,,,,,,,,,,,,,,,,,,,,,,,,,,,,,,,,,,,,,,,,,,,space,112,20,2020-10-22_12h11.01.180,CDT_GNG_IUS12,2020.1.2,Linux aarch64,60,,,,,,,,,,,,,,,,,,,0,1,space,1,0.26227,,,,,,0,17,17,39,1,,,,,,,,,,,,,,,,,,,,,,,,,
,,,,,,,,,,,,,,,,,,,,,,,,,,,,,,,,,,,,,,,,,,,space,112,20,2020-10-22_12h11.01.180,CDT_GNG_IUS12,2020.1.2,Linux aarch64,60,,,,,,,,,,,,,,,,,,,0,1,space,1,0.298695,,,,,,0,18,18,14,1,,,,,,,,,,,,,,,,,,,,,,,,,
,,,,,,,,,,,,,,,,,,,,,,,,,,,,,,,,,,,,,,,,,,,space,112,20,2020-10-22_12h11.01.180,CDT_GNG_IUS12,2020.1.2,Linux aarch64,60,,,,,,,,,,,,,,,,,,,0,1,space,1,0.300875,,,,,,0,19,19,19,1,,,,,,,,,,,,,,,,,,,,,,,,,
,,,,,,,,,,,,,,,,,,,,,,,,,,,,,,,,,,,,,,,,,,,space,112,20,2020-10-22_12h11.01.180,CDT_GNG_IUS12,2020.1.2,Linux aarch64,60,,,,,,,,,,,,,,,,,,,0,1,space,1,0.31641,,,,,,0,20,20,17,1,,,,,,,,,,,,,,,,,,,,,,,,,
,,,,,,,,,,,,,,,,,,,,,,,,,,,,,,,,,,,,,,,,,,,space,112,20,2020-10-22_12h11.01.180,CDT_GNG_IUS12,2020.1.2,Linux aarch64,60,,,,,,,,,,,,,,,,,,,0,1,space,1,0.32944,,,,,,0,21,21,41,1,,,,,,,,,,,,,,,,,,,,,,,,,
,,,,,,,,,,,,,,,,,,,,,,,,,,,,,,,,,,,,,,,,,,,space,112,20,2020-10-22_12h11.01.180,CDT_GNG_IUS12,2020.1.2,Linux aarch64,60,,,,,,,,,,,,,,,,,,,0,1,space,1,0.37366,,,,,,0,22,22,12,1,,,,,,,,,,,,,,,,,,,,,,,,,
,,,,,,,,,,,,,,,,,,,,,,,,,,,,,,,,,,,,,,,,,,,space,112,20,2020-10-22_12h11.01.180,CDT_GNG_IUS12,2020.1.2,Linux aarch64,60,,,,,,,,,,,,,,,,,,,0,1,space,1,0.34601,,,,,,0,23,23,26,1,,,,,,,,,,,,,,,,,,,,,,,,,
,,,,,,,,,,,,,,,,,,,,,,,,,,,,,,,,,,,,,,,,,,,space,112,20,2020-10-22_12h11.01.180,CDT_GNG_IUS12,2020.1.2,Linux aarch64,60,,,,,,,,,,,,,,,,,,,0,1,space,1,0.33774,,,,,,0,24,24,35,1,,,,,,,,,,,,,,,,,,,,,,,,,
,,,,,,,,,,,,,,,,,,,,,,,,,,,,,,,,,,,,,,,,,,,space,112,20,2020-10-22_12h11.01.180,CDT_GNG_IUS12,2020.1.2,Linux aarch64,60,,,,,,,,,,,,,,,,,,,0,1,space,1,0.305645,,,,,,0,25,25,24,1,,,,,,,,,,,,,,,,,,,,,,,,,
,,,,,,,,,,,,,,,,,,,,,,,,,,,,,,,,,,,,,,,,,,,space,112,20,2020-10-22_12h11.01.180,CDT_GNG_IUS12,2020.1.2,Linux aarch64,60,,,,,,,,,,,,,,,,,,,0,1,space,1,0.27477,,,,,,0,26,26,46,1,,,,,,,,,,,,,,,,,,,,,,,,,
,,,,,,,,,,,,,,,,,,,,,,,,,,,,,,,,,,,,,,,,,,,,112,20,2020-10-22_12h11.01.180,CDT_GNG_IUS12,2020.1.2,Linux aarch64,60,,,,,,,,,,,,,,,,,,,1,0,space,0,0.28376,,,,,,0,27,27,2,1,,,,,,,,,,,,,,,,,,,,,,,,,
,,,,,,,,,,,,,,,,,,,,,,,,,,,,,,,,,,,,,,,,,,,space,112,20,2020-10-22_12h11.01.180,CDT_GNG_IUS12,2020.1.2,Linux aarch64,60,,,,,,,,,,,,,,,,,,,0,1,space,1,0.47624,,,,,,0,28,28,29,1,,,,,,,,,,,,,,,,,,,,,,,,,
,,,,,,,,,,,,,,,,,,,,,,,,,,,,,,,,,,,,,,,,,,,space,112,20,2020-10-22_12h11.01.180,CDT_GNG_IUS12,2020.1.2,Linux aarch64,60,,,,,,,,,,,,,,,,,,,0,1,space,1,0.397715,,,,,,0,29,29,13,1,,,,,,,,,,,,,,,,,,,,,,,,,
,,,,,,,,,,,,,,,,,,,,,,,,,,,,,,,,,,,,,,,,,,,,112,20,2020-10-22_12h11.01.180,CDT_GNG_IUS12,2020.1.2,Linux aarch64,60,,,,,,,,,,,,,,,,,,,1,0,,1,,,,,,,0,30,30,8,1,,,,,,,,,,,,,,,,,,,,,,,,,
,,,,,,,,,,,,,,,,,,,,,,,,,,,,,,,,,,,,,,,,,,,,112,20,2020-10-22_12h11.01.180,CDT_GNG_IUS12,2020.1.2,Linux aarch64,60,,,,,,,,,,,,,,,,,,,1,0,,1,,,,,,,0,31,31,4,1,,,,,,,,,,,,,,,,,,,,,,,,,
,,,,,,,,,,,,,,,,,,,,,,,,,,,,,,,,,,,,,,,,,,,space,112,20,2020-10-22_12h11.01.180,CDT_GNG_IUS12,2020.1.2,Linux aarch64,60,,,,,,,,,,,,,,,,,,,0,1,space,1,0.34917,,,,,,0,32,32,42,1,,,,,,,,,,,,,,,,,,,,,,,,,
,,,,,,,,,,,,,,,,,,,,,,,,,,,,,,,,,,,,,,,,,,,space,112,20,2020-10-22_12h11.01.180,CDT_GNG_IUS12,2020.1.2,Linux aarch64,60,,,,,,,,,,,,,,,,,,,0,1,space,1,0.47092,,,,,,0,33,33,10,1,,,,,,,,,,,,,,,,,,,,,,,,,
,,,,,,,,,,,,,,,,,,,,,,,,,,,,,,,,,,,,,,,,,,,space,112,20,2020-10-22_12h11.01.180,CDT_GNG_IUS12,2020.1.2,Linux aarch64,60,,,,,,,,,,,,,,,,,,,0,1,space,1,0.42873,,,,,,0,34,34,18,1,,,,,,,,,,,,,,,,,,,,,,,,,
,,,,,,,,,,,,,,,,,,,,,,,,,,,,,,,,,,,,,,,,,,,space,112,20,2020-10-22_12h11.01.180,CDT_GNG_IUS12,2020.1.2,Linux aarch64,60,,,,,,,,,,,,,,,,,,,0,1,space,1,0.421255,,,,,,0,35,35,49,1,,,,,,,,,,,,,,,,,,,,,,,,,
,,,,,,,,,,,,,,,,,,,,,,,,,,,,,,,,,,,,,,,,,,,space,112,20,2020-10-22_12h11.01.180,CDT_GNG_IUS12,2020.1.2,Linux aarch64,60,,,,,,,,,,,,,,,,,,,0,1,space,1,0.45732,,,,,,0,36,36,37,1,,,,,,,,,,,,,,,,,,,,,,,,,
,,,,,,,,,,,,,,,,,,,,,,,,,,,,,,,,,,,,,,,,,,,space,112,20,2020-10-22_12h11.01.180,CDT_GNG_IUS12,2020.1.2,Linux aarch64,60,,,,,,,,,,,,,,,,,,,0,1,space,1,0.47657,,,,,,0,37,37,44,1,,,,,,,,,,,,,,,,,,,,,,,,,
,,,,,,,,,,,,,,,,,,,,,,,,,,,,,,,,,,,,,,,,,,,,112,20,2020-10-22_12h11.01.180,CDT_GNG_IUS12,2020.1.2,Linux aarch64,60,,,,,,,,,,,,,,,,,,,1,0,,1,,,,,,,0,38,38,1,1,,,,,,,,,,,,,,,,,,,,,,,,,
,,,,,,,,,,,,,,,,,,,,,,,,,,,,,,,,,,,,,,,,,,,space,112,20,2020-10-22_12h11.01.180,CDT_GNG_IUS12,2020.1.2,Linux aarch64,60,,,,,,,,,,,,,,,,,,,0,1,space,1,0.37786,,,,,,0,39,39,20,1,,,,,,,,,,,,,,,,,,,,,,,,,
,,,,,,,,,,,,,,,,,,,,,,,,,,,,,,,,,,,,,,,,,,,space,112,20,2020-10-22_12h11.01.180,CDT_GNG_IUS12,2020.1.2,Linux aarch64,60,,,,,,,,,,,,,,,,,,,0,1,space,1,0.40017,,,,,,0,40,40,40,1,,,,,,,,,,,,,,,,,,,,,,,,,
,,,,,,,,,,,,,,,,,,,,,,,,,,,,,,,,,,,,,,,,,,,,112,20,2020-10-22_12h11.01.180,CDT_GNG_IUS12,2020.1.2,Linux aarch64,60,,,,,,,,,,,,,,,,,,,1,0,,1,,,,,,,0,41,41,0,1,,,,,,,,,,,,,,,,,,,,,,,,,
,,,,,,,,,,,,,,,,,,,,,,,,,,,,,,,,,,,,,,,,,,,space,112,20,2020-10-22_12h11.01.180,CDT_GNG_IUS12,2020.1.2,Linux aarch64,60,,,,,,,,,,,,,,,,,,,0,1,space,1,0.31189,,,,,,0,42,42,34,1,,,,,,,,,,,,,,,,,,,,,,,,,
,,,,,,,,,,,,,,,,,,,,,,,,,,,,,,,,,,,,,,,,,,,space,112,20,2020-10-22_12h11.01.180,CDT_GNG_IUS12,2020.1.2,Linux aarch64,60,,,,,,,,,,,,,,,,,,,0,1,space,1,0.340135,,,,,,0,43,43,38,1,,,,,,,,,,,,,,,,,,,,,,,,,
,,,,,,,,,,,,,,,,,,,,,,,,,,,,,,,,,,,,,,,,,,,space,112,20,2020-10-22_12h11.01.180,CDT_GNG_IUS12,2020.1.2,Linux aarch64,60,,,,,,,,,,,,,,,,,,,0,1,space,1,0.38343,,,,,,0,44,44,21,1,,,,,,,,,,,,,,,,,,,,,,,,,
,,,,,,,,,,,,,,,,,,,,,,,,,,,,,,,,,,,,,,,,,,,space,112,20,2020-10-22_12h11.01.180,CDT_GNG_IUS12,2020.1.2,Linux aarch64,60,,,,,,,,,,,,,,,,,,,0,1,space,1,0.40771,,,,,,0,45,45,28,1,,,,,,,,,,,,,,,,,,,,,,,,,
,,,,,,,,,,,,,,,,,,,,,,,,,,,,,,,,,,,,,,,,,,,,112,20,2020-10-22_12h11.01.180,CDT_GNG_IUS12,2020.1.2,Linux aarch64,60,,,,,,,,,,,,,,,,,,,1,0,,1,,,,,,,0,46,46,3,1,,,,,,,,,,,,,,,,,,,,,,,,,
,,,,,,,,,,,,,,,,,,,,,,,,,,,,,,,,,,,,,,,,,,,space,112,20,2020-10-22_12h11.01.180,CDT_GNG_IUS12,2020.1.2,Linux aarch64,60,,,,,,,,,,,,,,,,,,,0,1,space,1,0.275255,,,,,,0,47,47,43,1,,,,,,,,,,,,,,,,,,,,,,,,,
,,,,,,,,,,,,,,,,,,,,,,,,,,,,,,,,,,,,,,,,,,,space,112,20,2020-10-22_12h11.01.180,CDT_GNG_IUS12,2020.1.2,Linux aarch64,60,,,,,,,,,,,,,,,,,,,0,1,space,1,0.312125,,,,,,0,48,48,36,1,,,,,,,,,,,,,,,,,,,,,,,,,
,,,,,,,,,,,,,,,,,,,,,,,,,,,,,,,,,,,,,,,,,,,space,112,20,2020-10-22_12h11.01.180,CDT_GNG_IUS12,2020.1.2,Linux aarch64,60,,,,,,,,,,,,,,,,,,,0,1,space,1,0.27335,,,,,,0,49,49,31,1,,,,,,,,,,,,,,,,,,,,,,,,,
,,,,,,,,,,,,,,,,,,,,,,,,,,,,,,,,,,,,,,,,,,,space,112,20,2020-10-22_12h11.01.180,CDT_GNG_IUS12,2020.1.2,Linux aarch64,60,,,,,,,,,,,,,,,,,,,0,1,space,1,0.376855,,,,,,,,,,,0,0,0,33,1,,,,,,,,,,,,,,,,,,,,
,,,,,,,,,,,,,,,,,,,,,,,,,,,,,,,,,,,,,,,,,,,space,112,20,2020-10-22_12h11.01.180,CDT_GNG_IUS12,2020.1.2,Linux aarch64,60,,,,,,,,,,,,,,,,,,,0,1,space,1,0.32205,,,,,,,,,,,0,1,1,27,1,,,,,,,,,,,,,,,,,,,,
,,,,,,,,,,,,,,,,,,,,,,,,,,,,,,,,,,,,,,,,,,,space,112,20,2020-10-22_12h11.01.180,CDT_GNG_IUS12,2020.1.2,Linux aarch64,60,,,,,,,,,,,,,,,,,,,0,1,space,1,0.372295,,,,,,,,,,,0,2,2,16,1,,,,,,,,,,,,,,,,,,,,
,,,,,,,,,,,,,,,,,,,,,,,,,,,,,,,,,,,,,,,,,,,space,112,20,2020-10-22_12h11.01.180,CDT_GNG_IUS12,2020.1.2,Linux aarch64,60,,,,,,,,,,,,,,,,,,,0,1,space,1,0.369935,,,,,,,,,,,0,3,3,20,1,,,,,,,,,,,,,,,,,,,,
,,,,,,,,,,,,,,,,,,,,,,,,,,,,,,,,,,,,,,,,,,,space,112,20,2020-10-22_12h11.01.180,CDT_GNG_IUS12,2020.1.2,Linux aarch64,60,,,,,,,,,,,,,,,,,,,0,1,space,1,0.39448,,,,,,,,,,,0,4,4,15,1,,,,,,,,,,,,,,,,,,,,
,,,,,,,,,,,,,,,,,,,,,,,,,,,,,,,,,,,,,,,,,,,,112,20,2020-10-22_12h11.01.180,CDT_GNG_IUS12,2020.1.2,Linux aarch64,60,,,,,,,,,,,,,,,,,,,1,0,,1,,,,,,,,,,,,0,5,5,3,1,,,,,,,,,,,,,,,,,,,,
,,,,,,,,,,,,,,,,,,,,,,,,,,,,,,,,,,,,,,,,,,,space,112,20,2020-10-22_12h11.01.180,CDT_GNG_IUS12,2020.1.2,Linux aarch64,60,,,,,,,,,,,,,,,,,,,0,1,space,1,0.280155,,,,,,,,,,,0,6,6,46,1,,,,,,,,,,,,,,,,,,,,
,,,,,,,,,,,,,,,,,,,,,,,,,,,,,,,,,,,,,,,,,,,space,112,20,2020-10-22_12h11.01.180,CDT_GNG_IUS12,2020.1.2,Linux aarch64,60,,,,,,,,,,,,,,,,,,,0,1,space,1,0.318845,,,,,,,,,,,0,7,7,32,1,,,,,,,,,,,,,,,,,,,,
,,,,,,,,,,,,,,,,,,,,,,,,,,,,,,,,,,,,,,,,,,,space,112,20,2020-10-22_12h11.01.180,CDT_GNG_IUS12,2020.1.2,Linux aarch64,60,,,,,,,,,,,,,,,,,,,0,1,space,1,0.34667,,,,,,,,,,,0,8,8,42,1,,,,,,,,,,,,,,,,,,,,
,,,,,,,,,,,,,,,,,,,,,,,,,,,,,,,,,,,,,,,,,,,space,112,20,2020-10-22_12h11.01.180,CDT_GNG_IUS12,2020.1.2,Linux aarch64,60,,,,,,,,,,,,,,,,,,,0,1,space,1,0.392395,,,,,,,,,,,0,9,9,39,1,,,,,,,,,,,,,,,,,,,,
,,,,,,,,,,,,,,,,,,,,,,,,,,,,,,,,,,,,,,,,,,,space,112,20,2020-10-22_12h11.01.180,CDT_GNG_IUS12,2020.1.2,Linux aarch64,60,,,,,,,,,,,,,,,,,,,0,1,space,1,0.410665,,,,,,,,,,,0,10,10,47,1,,,,,,,,,,,,,,,,,,,,
,,,,,,,,,,,,,,,,,,,,,,,,,,,,,,,,,,,,,,,,,,,space,112,20,2020-10-22_12h11.01.180,CDT_GNG_IUS12,2020.1.2,Linux aarch64,60,,,,,,,,,,,,,,,,,,,0,1,space,1,0.44992,,,,,,,,,,,0,11,11,19,1,,,,,,,,,,,,,,,,,,,,
,,,,,,,,,,,,,,,,,,,,,,,,,,,,,,,,,,,,,,,,,,,space,112,20,2020-10-22_12h11.01.180,CDT_GNG_IUS12,2020.1.2,Linux aarch64,60,,,,,,,,,,,,,,,,,,,0,1,space,1,0.50113,,,,,,,,,,,0,12,12,23,1,,,,,,,,,,,,,,,,,,,,
,,,,,,,,,,,,,,,,,,,,,,,,,,,,,,,,,,,,,,,,,,,,112,20,2020-10-22_12h11.01.180,CDT_GNG_IUS12,2020.1.2,Linux aarch64,60,,,,,,,,,,,,,,,,,,,1,0,,1,,,,,,,,,,,,0,13,13,1,1,,,,,,,,,,,,,,,,,,,,
,,,,,,,,,,,,,,,,,,,,,,,,,,,,,,,,,,,,,,,,,,,space,112,20,2020-10-22_12h11.01.180,CDT_GNG_IUS12,2020.1.2,Linux aarch64,60,,,,,,,,,,,,,,,,,,,0,1,space,1,0.35814,,,,,,,,,,,0,14,14,40,1,,,,,,,,,,,,,,,,,,,,
,,,,,,,,,,,,,,,,,,,,,,,,,,,,,,,,,,,,,,,,,,,space,112,20,2020-10-22_12h11.01.180,CDT_GNG_IUS12,2020.1.2,Linux aarch64,60,,,,,,,,,,,,,,,,,,,0,1,space,1,0.302525,,,,,,,,,,,0,15,15,43,1,,,,,,,,,,,,,,,,,,,,
,,,,,,,,,,,,,,,,,,,,,,,,,,,,,,,,,,,,,,,,,,,space,112,20,2020-10-22_12h11.01.180,CDT_GNG_IUS12,2020.1.2,Linux aarch64,60,,,,,,,,,,,,,,,,,,,0,1,space,1,0.35896,,,,,,,,,,,0,16,16,34,1,,,,,,,,,,,,,,,,,,,,
,,,,,,,,,,,,,,,,,,,,,,,,,,,,,,,,,,,,,,,,,,,,112,20,2020-10-22_12h11.01.180,CDT_GNG_IUS12,2020.1.2,Linux aarch64,60,,,,,,,,,,,,,,,,,,,1,0,,1,,,,,,,,,,,,0,17,17,2,1,,,,,,,,,,,,,,,,,,,,
,,,,,,,,,,,,,,,,,,,,,,,,,,,,,,,,,,,,,,,,,,,space,112,20,2020-10-22_12h11.01.180,CDT_GNG_IUS12,2020.1.2,Linux aarch64,60,,,,,,,,,,,,,,,,,,,0,1,space,1,0.277585,,,,,,,,,,,0,18,18,26,1,,,,,,,,,,,,,,,,,,,,
,,,,,,,,,,,,,,,,,,,,,,,,,,,,,,,,,,,,,,,,,,,space,112,20,2020-10-22_12h11.01.180,CDT_GNG_IUS12,2020.1.2,Linux aarch64,60,,,,,,,,,,,,,,,,,,,0,1,space,1,0.293865,,,,,,,,,,,0,19,19,49,1,,,,,,,,,,,,,,,,,,,,
,,,,,,,,,,,,,,,,,,,,,,,,,,,,,,,,,,,,,,,,,,,space,112,20,2020-10-22_12h11.01.180,CDT_GNG_IUS12,2020.1.2,Linux aarch64,60,,,,,,,,,,,,,,,,,,,0,1,space,1,0.312625,,,,,,,,,,,0,20,20,29,1,,,,,,,,,,,,,,,,,,,,
,,,,,,,,,,,,,,,,,,,,,,,,,,,,,,,,,,,,,,,,,,,,112,20,2020-10-22_12h11.01.180,CDT_GNG_IUS12,2020.1.2,Linux aarch64,60,,,,,,,,,,,,,,,,,,,1,0,,1,,,,,,,,,,,,0,21,21,9,1,,,,,,,,,,,,,,,,,,,,
,,,,,,,,,,,,,,,,,,,,,,,,,,,,,,,,,,,,,,,,,,,space,112,20,2020-10-22_12h11.01.180,CDT_GNG_IUS12,2020.1.2,Linux aarch64,60,,,,,,,,,,,,,,,,,,,0,1,space,1,0.28609,,,,,,,,,,,0,22,22,31,1,,,,,,,,,,,,,,,,,,,,
,,,,,,,,,,,,,,,,,,,,,,,,,,,,,,,,,,,,,,,,,,,space,112,20,2020-10-22_12h11.01.180,CDT_GNG_IUS12,2020.1.2,Linux aarch64,60,,,,,,,,,,,,,,,,,,,0,1,space,1,0.296495,,,,,,,,,,,0,23,23,11,1,,,,,,,,,,,,,,,,,,,,
,,,,,,,,,,,,,,,,,,,,,,,,,,,,,,,,,,,,,,,,,,,space,112,20,2020-10-22_12h11.01.180,CDT_GNG_IUS12,2020.1.2,Linux aarch64,60,,,,,,,,,,,,,,,,,,,0,1,space,1,0.3092,,,,,,,,,,,0,24,24,13,1,,,,,,,,,,,,,,,,,,,,
,,,,,,,,,,,,,,,,,,,,,,,,,,,,,,,,,,,,,,,,,,,,112,20,2020-10-22_12h11.01.180,CDT_GNG_IUS12,2020.1.2,Linux aarch64,60,,,,,,,,,,,,,,,,,,,1,0,,1,,,,,,,,,,,,0,25,25,6,1,,,,,,,,,,,,,,,,,,,,
,,,,,,,,,,,,,,,,,,,,,,,,,,,,,,,,,,,,,,,,,,,,112,20,2020-10-22_12h11.01.180,CDT_GNG_IUS12,2020.1.2,Linux aarch64,60,,,,,,,,,,,,,,,,,,,1,0,space,0,0.23323,,,,,,,,,,,0,26,26,8,1,,,,,,,,,,,,,,,,,,,,
,,,,,,,,,,,,,,,,,,,,,,,,,,,,,,,,,,,,,,,,,,,space,112,20,2020-10-22_12h11.01.180,CDT_GNG_IUS12,2020.1.2,Linux aarch64,60,,,,,,,,,,,,,,,,,,,0,1,space,1,0.483785,,,,,,,,,,,0,27,27,21,1,,,,,,,,,,,,,,,,,,,,
,,,,,,,,,,,,,,,,,,,,,,,,,,,,,,,,,,,,,,,,,,,space,112,20,2020-10-22_12h11.01.180,CDT_GNG_IUS12,2020.1.2,Linux aarch64,60,,,,,,,,,,,,,,,,,,,0,1,space,1,0.51934,,,,,,,,,,,0,28,28,14,1,,,,,,,,,,,,,,,,,,,,
,,,,,,,,,,,,,,,,,,,,,,,,,,,,,,,,,,,,,,,,,,,space,112,20,2020-10-22_12h11.01.180,CDT_GNG_IUS12,2020.1.2,Linux aarch64,60,,,,,,,,,,,,,,,,,,,0,1,,0,,,,,,,,,,,,0,29,29,24,1,,,,,,,,,,,,,,,,,,,,
,,,,,,,,,,,,,,,,,,,,,,,,,,,,,,,,,,,,,,,,,,,,112,20,2020-10-22_12h11.01.180,CDT_GNG_IUS12,2020.1.2,Linux aarch64,60,,,,,,,,,,,,,,,,,,,1,0,,1,,,,,,,,,,,,0,30,30,5,1,,,,,,,,,,,,,,,,,,,,
,,,,,,,,,,,,,,,,,,,,,,,,,,,,,,,,,,,,,,,,,,,space,112,20,2020-10-22_12h11.01.180,CDT_GNG_IUS12,2020.1.2,Linux aarch64,60,,,,,,,,,,,,,,,,,,,0,1,space,1,0.36205,,,,,,,,,,,0,31,31,10,1,,,,,,,,,,,,,,,,,,,,
,,,,,,,,,,,,,,,,,,,,,,,,,,,,,,,,,,,,,,,,,,,,112,20,2020-10-22_12h11.01.180,CDT_GNG_IUS12,2020.1.2,Linux aarch64,60,,,,,,,,,,,,,,,,,,,1,0,,1,,,,,,,,,,,,0,32,32,0,1,,,,,,,,,,,,,,,,,,,,
,,,,,,,,,,,,,,,,,,,,,,,,,,,,,,,,,,,,,,,,,,,space,112,20,2020-10-22_12h11.01.180,CDT_GNG_IUS12,2020.1.2,Linux aarch64,60,,,,,,,,,,,,,,,,,,,0,1,space,1,0.26928,,,,,,,,,,,0,33,33,22,1,,,,,,,,,,,,,,,,,,,,
,,,,,,,,,,,,,,,,,,,,,,,,,,,,,,,,,,,,,,,,,,,space,112,20,2020-10-22_12h11.01.180,CDT_GNG_IUS12,2020.1.2,Linux aarch64,60,,,,,,,,,,,,,,,,,,,0,1,space,1,0.396335,,,,,,,,,,,0,34,34,18,1,,,,,,,,,,,,,,,,,,,,
,,,,,,,,,,,,,,,,,,,,,,,,,,,,,,,,,,,,,,,,,,,space,112,20,2020-10-22_12h11.01.180,CDT_GNG_IUS12,2020.1.2,Linux aarch64,60,,,,,,,,,,,,,,,,,,,0,1,space,1,0.38664,,,,,,,,,,,0,35,35,45,1,,,,,,,,,,,,,,,,,,,,
,,,,,,,,,,,,,,,,,,,,,,,,,,,,,,,,,,,,,,,,,,,space,112,20,2020-10-22_12h11.01.180,CDT_GNG_IUS12,2020.1.2,Linux aarch64,60,,,,,,,,,,,,,,,,,,,0,1,space,1,0.402595,,,,,,,,,,,0,36,36,12,1,,,,,,,,,,,,,,,,,,,,
,,,,,,,,,,,,,,,,,,,,,,,,,,,,,,,,,,,,,,,,,,,space,112,20,2020-10-22_12h11.01.180,CDT_GNG_IUS12,2020.1.2,Linux aarch64,60,,,,,,,,,,,,,,,,,,,0,1,space,1,0.416595,,,,,,,,,,,0,37,37,38,1,,,,,,,,,,,,,,,,,,,,
,,,,,,,,,,,,,,,,,,,,,,,,,,,,,,,,,,,,,,,,,,,space,112,20,2020-10-22_12h11.01.180,CDT_GNG_IUS12,2020.1.2,Linux aarch64,60,,,,,,,,,,,,,,,,,,,0,1,space,1,0.55142,,,,,,,,,,,0,38,38,35,1,,,,,,,,,,,,,,,,,,,,
,,,,,,,,,,,,,,,,,,,,,,,,,,,,,,,,,,,,,,,,,,,,112,20,2020-10-22_12h11.01.180,CDT_GNG_IUS12,2020.1.2,Linux aarch64,60,,,,,,,,,,,,,,,,,,,1,0,,1,,,,,,,,,,,,0,39,39,7,1,,,,,,,,,,,,,,,,,,,,
,,,,,,,,,,,,,,,,,,,,,,,,,,,,,,,,,,,,,,,,,,,space,112,20,2020-10-22_12h11.01.180,CDT_GNG_IUS12,2020.1.2,Linux aarch64,60,,,,,,,,,,,,,,,,,,,0,1,space,1,0.4264,,,,,,,,,,,0,40,40,25,1,,,,,,,,,,,,,,,,,,,,
,,,,,,,,,,,,,,,,,,,,,,,,,,,,,,,,,,,,,,,,,,,space,112,20,2020-10-22_12h11.01.180,CDT_GNG_IUS12,2020.1.2,Linux aarch64,60,,,,,,,,,,,,,,,,,,,0,1,space,1,0.35422,,,,,,,,,,,0,41,41,48,1,,,,,,,,,,,,,,,,,,,,
,,,,,,,,,,,,,,,,,,,,,,,,,,,,,,,,,,,,,,,,,,,space,112,20,2020-10-22_12h11.01.180,CDT_GNG_IUS12,2020.1.2,Linux aarch64,60,,,,,,,,,,,,,,,,,,,0,1,space,1,0.31628,,,,,,,,,,,0,42,42,30,1,,,,,,,,,,,,,,,,,,,,
,,,,,,,,,,,,,,,,,,,,,,,,,,,,,,,,,,,,,,,,,,,,112,20,2020-10-22_12h11.01.180,CDT_GNG_IUS12,2020.1.2,Linux aarch64,60,,,,,,,,,,,,,,,,,,,1,0,space,0,0.280915,,,,,,,,,,,0,43,43,4,1,,,,,,,,,,,,,,,,,,,,
,,,,,,,,,,,,,,,,,,,,,,,,,,,,,,,,,,,,,,,,,,,space,112,20,2020-10-22_12h11.01.180,CDT_GNG_IUS12,2020.1.2,Linux aarch64,60,,,,,,,,,,,,,,,,,,,0,1,space,1,0.382775,,,,,,,,,,,0,44,44,37,1,,,,,,,,,,,,,,,,,,,,
,,,,,,,,,,,,,,,,,,,,,,,,,,,,,,,,,,,,,,,,,,,space,112,20,2020-10-22_12h11.01.180,CDT_GNG_IUS12,2020.1.2,Linux aarch64,60,,,,,,,,,,,,,,,,,,,0,1,space,1,0.427645,,,,,,,,,,,0,45,45,36,1,,,,,,,,,,,,,,,,,,,,
,,,,,,,,,,,,,,,,,,,,,,,,,,,,,,,,,,,,,,,,,,,space,112,20,2020-10-22_12h11.01.180,CDT_GNG_IUS12,2020.1.2,Linux aarch64,60,,,,,,,,,,,,,,,,,,,0,1,space,1,0.453495,,,,,,,,,,,0,46,46,44,1,,,,,,,,,,,,,,,,,,,,
,,,,,,,,,,,,,,,,,,,,,,,,,,,,,,,,,,,,,,,,,,,space,112,20,2020-10-22_12h11.01.180,CDT_GNG_IUS12,2020.1.2,Linux aarch64,60,,,,,,,,,,,,,,,,,,,0,1,,0,,,,,,,,,,,,0,47,47,28,1,,,,,,,,,,,,,,,,,,,,
,,,,,,,,,,,,,,,,,,,,,,,,,,,,,,,,,,,,,,,,,,,space,112,20,2020-10-22_12h11.01.180,CDT_GNG_IUS12,2020.1.2,Linux aarch64,60,,,,,,,,,,,,,,,,,,,0,1,,0,,,,,,,,,,,,0,48,48,41,1,,,,,,,,,,,,,,,,,,,,
,,,,,,,,,,,,,,,,,,,,,,,,,,,,,,,,,,,,,,,,,,,space,112,20,2020-10-22_12h11.01.180,CDT_GNG_IUS12,2020.1.2,Linux aarch64,60,,,,,,,,,,,,,,,,,,,0,1,space,1,0.004945,,,,,,,,,,,0,49,49,17,1,,,,,,,,,,,,,,,,,,,,
,,,,,,,,,,,,,,,,,,,,,,,,,,,,,,,,,,,,,,,,,,,,112,20,2020-10-22_12h11.01.180,CDT_GNG_IUS12,2020.1.2,Linux aarch64,60,,,,,,,,,,,,,,,,,,,,,,,,,,,,,,,,,,,,,,,10,7.74146,0,0,0,0,1,1,"On a scale from 0 to 10, indicate your personal perception of your proficiency level for English (10 being the highest score)",,,,,,,,,,,
,,,,,,,,,,,,,,,,,,,,,,,,,,,,,,,,,,,,,,,,,,,,112,20,2020-10-22_12h11.01.180,CDT_GNG_IUS12,2020.1.2,Linux aarch64,60,,,,,,,,,,,,,,,,,,,,,,,,,,,,,,,,,,,,,,,10,3.25278,0,1,1,1,1,2,"On a scale from 0 to 10, indicate how frequently you are exposed to English (10 being 'always', 0 being 'never')",,,,,,,,,,,
,,,,,,,,,,,,,,,,,,,,,,,,,,,,,,,,,,,,,,,,,,,,112,20,2020-10-22_12h11.01.180,CDT_GNG_IUS12,2020.1.2,Linux aarch64,60,,,,,,,,,,,,,,,,,,,,,,,,,,,,,,,,,,,,,,,,,,,,,,,"On a scale from 0 to 10, indicate your personal perception of your proficiency level for English (10 being the highest score)",2.068553501,8.817205,0,0,0,0,1,1,Unforeseen events upset me greatly.,,
,,,,,,,,,,,,,,,,,,,,,,,,,,,,,,,,,,,,,,,,,,,,112,20,2020-10-22_12h11.01.180,CDT_GNG_IUS12,2020.1.2,Linux aarch64,60,,,,,,,,,,,,,,,,,,,,,,,,,,,,,,,,,,,,,,,,,,,,,,,"On a scale from 0 to 10, indicate how frequently you are exposed to English (10 being 'always', 0 being 'never')",3.031539352,4.135795,0,1,1,1,1,2,It frustrates me not having all the information I need.,,
,,,,,,,,,,,,,,,,,,,,,,,,,,,,,,,,,,,,,,,,,,,,112,20,2020-10-22_12h11.01.180,CDT_GNG_IUS12,2020.1.2,Linux aarch64,60,,,,,,,,,,,,,,,,,,,,,,,,,,,,,,,,,,,,,,,,,,,,,,,,1.95780634,5.43913,0,2,2,2,1,3,One should always look ahead so as to avoid surprises.,,
,,,,,,,,,,,,,,,,,,,,,,,,,,,,,,,,,,,,,,,,,,,,112,20,2020-10-22_12h11.01.180,CDT_GNG_IUS12,2020.1.2,Linux aarch64,60,,,,,,,,,,,,,,,,,,,,,,,,,,,,,,,,,,,,,,,,,,,,,,,,1.971194797,3.89584,0,3,3,3,1,4,"A small, unforeseen event can spoil everything, even with the best of planning. ",,
,,,,,,,,,,,,,,,,,,,,,,,,,,,,,,,,,,,,,,,,,,,,112,20,2020-10-22_12h11.01.180,CDT_GNG_IUS12,2020.1.2,Linux aarch64,60,,,,,,,,,,,,,,,,,,,,,,,,,,,,,,,,,,,,,,,,,,,,,,,,2.016238177,3.960675,0,4,4,4,1,5,I always want to know what the future has in store for me.,,
,,,,,,,,,,,,,,,,,,,,,,,,,,,,,,,,,,,,,,,,,,,,112,20,2020-10-22_12h11.01.180,CDT_GNG_IUS12,2020.1.2,Linux aarch64,60,,,,,,,,,,,,,,,,,,,,,,,,,,,,,,,,,,,,,,,,,,,,,,,,1,3.51649,0,5,5,5,1,6,I can't stand being taken by surprise.,,
,,,,,,,,,,,,,,,,,,,,,,,,,,,,,,,,,,,,,,,,,,,,112,20,2020-10-22_12h11.01.180,CDT_GNG_IUS12,2020.1.2,Linux aarch64,60,,,,,,,,,,,,,,,,,,,,,,,,,,,,,,,,,,,,,,,,,,,,,,,,2.043907731,4.212375,0,6,6,6,1,7,I should be able to organize everything in advance,,
,,,,,,,,,,,,,,,,,,,,,,,,,,,,,,,,,,,,,,,,,,,,112,20,2020-10-22_12h11.01.180,CDT_GNG_IUS12,2020.1.2,Linux aarch64,60,,,,,,,,,,,,,,,,,,,,,,,,,,,,,,,,,,,,,,,,,,,,,,,,1,2.880825,0,7,7,7,1,8,Uncertainty keeps me from living a full life.,,
,,,,,,,,,,,,,,,,,,,,,,,,,,,,,,,,,,,,,,,,,,,,112,20,2020-10-22_12h11.01.180,CDT_GNG_IUS12,2020.1.2,Linux aarch64,60,,,,,,,,,,,,,,,,,,,,,,,,,,,,,,,,,,,,,,,,,,,,,,,,1,2.70501,0,8,8,8,1,9,"When it's time to act, uncertainty paralyses me. ",,
,,,,,,,,,,,,,,,,,,,,,,,,,,,,,,,,,,,,,,,,,,,,112,20,2020-10-22_12h11.01.180,CDT_GNG_IUS12,2020.1.2,Linux aarch64,60,,,,,,,,,,,,,,,,,,,,,,,,,,,,,,,,,,,,,,,,,,,,,,,,2.044956349,3.06227,0,9,9,9,1,10,"When I am uncertain, I can't function very well. ",,
,,,,,,,,,,,,,,,,,,,,,,,,,,,,,,,,,,,,,,,,,,,,112,20,2020-10-22_12h11.01.180,CDT_GNG_IUS12,2020.1.2,Linux aarch64,60,,,,,,,,,,,,,,,,,,,,,,,,,,,,,,,,,,,,,,,,,,,,,,,,1.033033018,3.100465,0,10,10,10,1,11,The smallest doubt can stop me from acting. ,,
,,,,,,,,,,,,,,,,,,,,,,,,,,,,,,,,,,,,,,,,,,,,112,20,2020-10-22_12h11.01.180,CDT_GNG_IUS12,2020.1.2,Linux aarch64,60,,,,,,,,,,,,,,,,,,,,,,,,,,,,,,,,,,,,,,,,,,,,,,,,1.033033018,1.81999,0,11,11,11,1,12,I must get away from all uncertain situations. ,,
,,,,,,,,,,,,,,,,,,,,,,,,,,,,,,,,,,,,,,,,,,,,112,20,2020-10-22_12h11.01.180,CDT_GNG_IUS12,2020.1.2,Linux aarch64,60,,,,,,,,,,,,,,,,,,,,,,,,,,,,,,,,,,,,,,,,,,,,,,,,,,,,,,,,,x,2.1025
