key_resp_6.keys,key_resp_6.rt,key_resp_2.keys,key_resp_2.corr,key_resp_2.rt,CDT_trials_train.thisRepN,CDT_trials_train.thisTrialN,CDT_trials_train.thisN,CDT_trials_train.thisIndex,CDT_trials_train.ran,trialnum,condit,stimamt,stim1posx,stim1posy,stim1col,stim1opa,stim2posx,stim2posy,stim2col,stim2opa,stim3posx,stim3posy,stim3col,stim3opa,stim4posx,stim4posy,stim4col,stim4opa,stim5posx,stim5posy,stim5col,stim5opa,stim6posx,stim6posy,stim6col,stim6opa,stimsizex,stimsizey,stimdur,targetposx,targetposy,targetcol,corrAns,participant,age,date,expName,psychopyVersion,OS,frameRate,key_resp_5.keys,key_resp.keys,key_resp.corr,key_resp.rt,CDT_trials.thisRepN,CDT_trials.thisTrialN,CDT_trials.thisN,CDT_trials.thisIndex,CDT_trials.ran,key_resp_5.rt,trialResp_Train.keys,trialResp_Train.corr,GNGtrials_train.thisRepN,GNGtrials_train.thisTrialN,GNGtrials_train.thisN,GNGtrials_train.thisIndex,GNGtrials_train.ran,orangeOpacity,blueOpacity,trialResp_Train.rt,trialResp.keys,trialResp.corr,trialResp.rt,GNG_trials_1.thisRepN,GNG_trials_1.thisTrialN,GNG_trials_1.thisN,GNG_trials_1.thisIndex,GNG_trials_1.ran,GNG_trials_2.thisRepN,GNG_trials_2.thisTrialN,GNG_trials_2.thisN,GNG_trials_2.thisIndex,GNG_trials_2.ran,GNG_trials_3.thisRepN,GNG_trials_3.thisTrialN,GNG_trials_3.thisN,GNG_trials_3.thisIndex,GNG_trials_3.ran,slider_2.response,slider_2.rt,engprof_trials.thisRepN,engprof_trials.thisTrialN,engprof_trials.thisN,engprof_trials.thisIndex,engprof_trials.ran,qpnumber,qproficiency,slider.response,slider.rt,IUS12_trials.thisRepN,IUS12_trials.thisTrialN,IUS12_trials.thisN,IUS12_trials.thisIndex,IUS12_trials.ran,qnumber,qenglish,key_resp_end.keys,key_resp_end.rt
y,5.37228,l,0,0.96802,0,0,0,0,1,1,same,4,0.273779233,-0.054755847,black,1,-0.16426754,-0.273779233,magenta,1,-0.16426754,0.16426754,orange,1,0.16426754,0.054755847,yellow,1,0.16426754,-0.054755847,cyan,0,-0.054755847,-0.16426754,blue,0,0.05,0.05,0.15,-0.16426754,0.16426754,orange,k,132814,26,2020-08-14_16h43.17.621,CDT_GNG_IUS12,2020.1.2,Win32,60,,,,,,,,,,,,,,,,,,,,,,,,,,,,,,,,,,,,,,,,,,,,,,,,,,,,,,,,,,
,,l,1,0.956695,0,1,1,1,1,2,different,4,0.054755847,-0.054755847,orange,1,-0.273779233,0.273779233,magenta,1,0.273779233,0.16426754,yellow,1,-0.273779233,-0.16426754,blue,1,0.273779233,-0.054755847,red,0,-0.273779233,0.054755847,cyan,0,0.05,0.05,0.15,-0.273779233,-0.16426754,black,l,132814,26,2020-08-14_16h43.17.621,CDT_GNG_IUS12,2020.1.2,Win32,60,,,,,,,,,,,,,,,,,,,,,,,,,,,,,,,,,,,,,,,,,,,,,,,,,,,,,,,,,,
,,l,0,1.062045,0,2,2,2,1,3,same,6,-0.054755847,0.273779233,green,1,0.273779233,-0.273779233,magenta,1,0.273779233,0.16426754,cyan,1,-0.054755847,-0.054755847,black,1,-0.273779233,0.16426754,orange,1,0.16426754,-0.054755847,blue,1,0.05,0.05,0.15,-0.054755847,0.273779233,green,k,132814,26,2020-08-14_16h43.17.621,CDT_GNG_IUS12,2020.1.2,Win32,60,,,,,,,,,,,,,,,,,,,,,,,,,,,,,,,,,,,,,,,,,,,,,,,,,,,,,,,,,,
,,l,1,0.60422,0,3,3,3,1,4,different,6,0.16426754,-0.054755847,orange,1,-0.054755847,0.273779233,red,1,0.273779233,0.273779233,green,1,-0.054755847,-0.273779233,yellow,1,0.273779233,-0.054755847,blue,1,-0.16426754,0.16426754,black,1,0.05,0.05,0.15,0.273779233,0.273779233,cyan,l,132814,26,2020-08-14_16h43.17.621,CDT_GNG_IUS12,2020.1.2,Win32,60,,,,,,,,,,,,,,,,,,,,,,,,,,,,,,,,,,,,,,,,,,,,,,,,,,,,,,,,,,
,,,,,,,,,,56,different,4,0.16426754,0.054755847,red,1,-0.054755847,0.16426754,orange,1,0.16426754,-0.16426754,black,1,-0.273779233,-0.054755847,yellow,1,0.16426754,0.273779233,blue,0,-0.054755847,0.273779233,magenta,0,0.05,0.05,0.15,-0.273779233,-0.054755847,green,l,132814,26,2020-08-14_16h43.17.621,CDT_GNG_IUS12,2020.1.2,Win32,60,,l,1,0.818765,0,0,0,55,1,,,,,,,,,,,,,,,,,,,,,,,,,,,,,,,,,,,,,,,,,,,,,,,,,
,,,,,,,,,,68,same,6,0.16426754,-0.054755847,blue,1,-0.054755847,-0.16426754,orange,1,-0.16426754,0.054755847,red,1,0.16426754,0.273779233,magenta,1,0.054755847,-0.054755847,black,1,-0.273779233,-0.273779233,yellow,1,0.05,0.05,0.15,-0.054755847,-0.16426754,orange,k,132814,26,2020-08-14_16h43.17.621,CDT_GNG_IUS12,2020.1.2,Win32,60,,l,0,0.774405,0,1,1,67,1,,,,,,,,,,,,,,,,,,,,,,,,,,,,,,,,,,,,,,,,,,,,,,,,,
,,,,,,,,,,114,different,6,-0.16426754,0.16426754,black,1,-0.054755847,-0.273779233,orange,1,0.054755847,0.16426754,magenta,1,0.273779233,-0.16426754,green,1,-0.054755847,0.16426754,cyan,1,-0.273779233,-0.273779233,yellow,1,0.05,0.05,0.15,0.054755847,0.16426754,blue,l,132814,26,2020-08-14_16h43.17.621,CDT_GNG_IUS12,2020.1.2,Win32,60,,l,1,0.673995,0,2,2,113,1,,,,,,,,,,,,,,,,,,,,,,,,,,,,,,,,,,,,,,,,,,,,,,,,,
,,,,,,,,,,61,same,6,0.273779233,0.16426754,cyan,1,0.273779233,-0.273779233,blue,1,-0.16426754,-0.16426754,green,1,-0.16426754,0.273779233,black,1,0.16426754,0.054755847,red,1,0.273779233,-0.16426754,yellow,1,0.05,0.05,0.15,0.273779233,-0.16426754,yellow,k,132814,26,2020-08-14_16h43.17.621,CDT_GNG_IUS12,2020.1.2,Win32,60,,l,0,0.783045,0,3,3,60,1,,,,,,,,,,,,,,,,,,,,,,,,,,,,,,,,,,,,,,,,,,,,,,,,,
,,,,,,,,,,88,same,6,0.054755847,0.054755847,orange,1,0.054755847,-0.273779233,red,1,-0.16426754,-0.16426754,magenta,1,-0.16426754,0.273779233,yellow,1,0.16426754,0.16426754,blue,1,0.273779233,-0.16426754,cyan,1,0.05,0.05,0.15,-0.16426754,0.273779233,yellow,k,132814,26,2020-08-14_16h43.17.621,CDT_GNG_IUS12,2020.1.2,Win32,60,,k,1,0.56626,0,4,4,87,1,,,,,,,,,,,,,,,,,,,,,,,,,,,,,,,,,,,,,,,,,,,,,,,,,
,,,,,,,,,,113,different,6,-0.273779233,0.054755847,black,1,-0.16426754,-0.16426754,blue,1,0.054755847,-0.16426754,orange,1,0.16426754,0.16426754,red,1,-0.273779233,0.273779233,green,1,-0.273779233,-0.16426754,magenta,1,0.05,0.05,0.15,-0.273779233,-0.16426754,black,l,132814,26,2020-08-14_16h43.17.621,CDT_GNG_IUS12,2020.1.2,Win32,60,,l,1,0.683715,0,5,5,112,1,,,,,,,,,,,,,,,,,,,,,,,,,,,,,,,,,,,,,,,,,,,,,,,,,
,,,,,,,,,,95,different,6,-0.273779233,-0.16426754,magenta,1,0.16426754,0.273779233,green,1,-0.273779233,0.273779233,black,1,0.16426754,-0.273779233,orange,1,-0.054755847,-0.16426754,blue,1,0.16426754,0.054755847,cyan,1,0.05,0.05,0.15,0.16426754,0.273779233,black,l,132814,26,2020-08-14_16h43.17.621,CDT_GNG_IUS12,2020.1.2,Win32,60,,l,1,0.72102,0,6,6,94,1,,,,,,,,,,,,,,,,,,,,,,,,,,,,,,,,,,,,,,,,,,,,,,,,,
,,,,,,,,,,54,different,4,-0.054755847,-0.054755847,black,1,0.054755847,0.054755847,cyan,1,0.273779233,-0.16426754,green,1,-0.273779233,0.16426754,magenta,1,-0.054755847,-0.16426754,orange,0,0.054755847,0.16426754,blue,0,0.05,0.05,0.15,-0.273779233,0.16426754,orange,l,132814,26,2020-08-14_16h43.17.621,CDT_GNG_IUS12,2020.1.2,Win32,60,,l,1,0.451055,0,7,7,53,1,,,,,,,,,,,,,,,,,,,,,,,,,,,,,,,,,,,,,,,,,,,,,,,,,
,,,,,,,,,,50,different,4,-0.16426754,0.054755847,black,1,-0.273779233,-0.16426754,magenta,1,0.054755847,0.054755847,cyan,1,0.273779233,-0.16426754,green,1,-0.273779233,0.273779233,yellow,0,-0.16426754,-0.054755847,orange,0,0.05,0.05,0.15,-0.273779233,-0.16426754,yellow,l,132814,26,2020-08-14_16h43.17.621,CDT_GNG_IUS12,2020.1.2,Win32,60,,l,1,0.40952,0,8,8,49,1,,,,,,,,,,,,,,,,,,,,,,,,,,,,,,,,,,,,,,,,,,,,,,,,,
,,,,,,,,,,48,different,4,0.16426754,0.273779233,cyan,1,-0.054755847,-0.273779233,magenta,1,0.16426754,-0.054755847,orange,1,-0.273779233,0.273779233,blue,1,0.273779233,0.16426754,red,0,-0.054755847,-0.16426754,green,0,0.05,0.05,0.15,0.16426754,-0.054755847,red,l,132814,26,2020-08-14_16h43.17.621,CDT_GNG_IUS12,2020.1.2,Win32,60,,l,1,0.45866,0,9,9,47,1,,,,,,,,,,,,,,,,,,,,,,,,,,,,,,,,,,,,,,,,,,,,,,,,,
,,,,,,,,,,66,same,6,0.273779233,-0.273779233,cyan,1,-0.273779233,-0.054755847,black,1,-0.273779233,0.054755847,yellow,1,0.273779233,0.16426754,green,1,0.054755847,-0.16426754,orange,1,-0.273779233,-0.16426754,magenta,1,0.05,0.05,0.15,0.273779233,0.16426754,green,k,132814,26,2020-08-14_16h43.17.621,CDT_GNG_IUS12,2020.1.2,Win32,60,,l,0,0.47465,0,10,10,65,1,,,,,,,,,,,,,,,,,,,,,,,,,,,,,,,,,,,,,,,,,,,,,,,,,
,,,,,,,,,,42,different,4,0.273779233,0.16426754,cyan,1,-0.054755847,0.16426754,magenta,1,0.16426754,-0.054755847,green,1,-0.16426754,-0.16426754,red,1,0.16426754,0.273779233,black,0,-0.054755847,0.273779233,yellow,0,0.05,0.05,0.15,0.273779233,0.16426754,blue,l,132814,26,2020-08-14_16h43.17.621,CDT_GNG_IUS12,2020.1.2,Win32,60,,l,1,0.42271,0,11,11,41,1,,,,,,,,,,,,,,,,,,,,,,,,,,,,,,,,,,,,,,,,,,,,,,,,,
,,,,,,,,,,57,different,4,-0.273779233,-0.054755847,yellow,1,0.16426754,-0.054755847,green,1,-0.273779233,0.16426754,red,1,0.273779233,0.054755847,black,1,-0.16426754,-0.054755847,orange,0,0.054755847,-0.16426754,magenta,0,0.05,0.05,0.15,0.16426754,-0.054755847,orange,l,132814,26,2020-08-14_16h43.17.621,CDT_GNG_IUS12,2020.1.2,Win32,60,,k,0,0.743155,0,12,12,56,1,,,,,,,,,,,,,,,,,,,,,,,,,,,,,,,,,,,,,,,,,,,,,,,,,
,,,,,,,,,,40,different,4,-0.273779233,-0.273779233,magenta,1,0.054755847,-0.16426754,yellow,1,-0.16426754,0.054755847,red,1,0.273779233,0.273779233,orange,1,-0.054755847,-0.054755847,cyan,0,0.16426754,-0.16426754,green,0,0.05,0.05,0.15,0.273779233,0.273779233,black,l,132814,26,2020-08-14_16h43.17.621,CDT_GNG_IUS12,2020.1.2,Win32,60,,l,1,0.70057,0,13,13,39,1,,,,,,,,,,,,,,,,,,,,,,,,,,,,,,,,,,,,,,,,,,,,,,,,,
,,,,,,,,,,33,different,4,-0.273779233,0.273779233,yellow,1,0.16426754,-0.16426754,cyan,1,-0.273779233,-0.273779233,black,1,0.054755847,0.273779233,blue,1,-0.16426754,0.273779233,green,0,0.054755847,-0.273779233,orange,0,0.05,0.05,0.15,-0.273779233,-0.273779233,cyan,l,132814,26,2020-08-14_16h43.17.621,CDT_GNG_IUS12,2020.1.2,Win32,60,,l,1,0.51845,0,14,14,32,1,,,,,,,,,,,,,,,,,,,,,,,,,,,,,,,,,,,,,,,,,,,,,,,,,
,,,,,,,,,,87,same,6,0.273779233,0.16426754,green,1,-0.16426754,-0.054755847,black,1,-0.054755847,0.054755847,cyan,1,0.273779233,-0.054755847,blue,1,0.054755847,0.054755847,yellow,1,-0.273779233,-0.273779233,red,1,0.05,0.05,0.15,-0.273779233,-0.273779233,red,k,132814,26,2020-08-14_16h43.17.621,CDT_GNG_IUS12,2020.1.2,Win32,60,,l,0,0.49107,0,15,15,86,1,,,,,,,,,,,,,,,,,,,,,,,,,,,,,,,,,,,,,,,,,,,,,,,,,
,,,,,,,,,,5,same,4,0.273779233,-0.054755847,green,1,0.273779233,0.054755847,orange,1,-0.054755847,0.054755847,black,1,-0.054755847,-0.16426754,blue,1,0.054755847,-0.054755847,cyan,0,0.054755847,0.273779233,red,0,0.05,0.05,0.15,-0.054755847,-0.16426754,blue,k,132814,26,2020-08-14_16h43.17.621,CDT_GNG_IUS12,2020.1.2,Win32,60,,l,0,0.843525,0,16,16,4,1,,,,,,,,,,,,,,,,,,,,,,,,,,,,,,,,,,,,,,,,,,,,,,,,,
,,,,,,,,,,46,different,4,-0.16426754,0.273779233,yellow,1,-0.16426754,-0.16426754,green,1,0.16426754,0.054755847,black,1,0.273779233,-0.054755847,red,1,-0.16426754,0.16426754,blue,0,-0.273779233,-0.054755847,cyan,0,0.05,0.05,0.15,0.16426754,0.054755847,cyan,l,132814,26,2020-08-14_16h43.17.621,CDT_GNG_IUS12,2020.1.2,Win32,60,,l,1,0.52481,0,17,17,45,1,,,,,,,,,,,,,,,,,,,,,,,,,,,,,,,,,,,,,,,,,,,,,,,,,
,,,,,,,,,,43,different,4,-0.16426754,-0.054755847,red,1,0.273779233,0.054755847,cyan,1,-0.16426754,0.054755847,orange,1,0.054755847,-0.054755847,blue,1,-0.054755847,-0.273779233,magenta,0,0.273779233,0.273779233,yellow,0,0.05,0.05,0.15,-0.16426754,-0.054755847,yellow,l,132814,26,2020-08-14_16h43.17.621,CDT_GNG_IUS12,2020.1.2,Win32,60,,l,1,0.449785,0,18,18,42,1,,,,,,,,,,,,,,,,,,,,,,,,,,,,,,,,,,,,,,,,,,,,,,,,,
,,,,,,,,,,63,same,6,-0.273779233,0.273779233,red,1,-0.273779233,-0.16426754,orange,1,0.054755847,-0.273779233,black,1,0.16426754,0.16426754,cyan,1,-0.054755847,0.054755847,blue,1,-0.273779233,-0.054755847,magenta,1,0.05,0.05,0.15,-0.273779233,-0.054755847,magenta,k,132814,26,2020-08-14_16h43.17.621,CDT_GNG_IUS12,2020.1.2,Win32,60,,l,0,0.470665,0,19,19,62,1,,,,,,,,,,,,,,,,,,,,,,,,,,,,,,,,,,,,,,,,,,,,,,,,,
,,,,,,,,,,89,same,6,-0.054755847,-0.273779233,cyan,1,-0.16426754,0.16426754,green,1,0.273779233,0.273779233,black,1,0.273779233,-0.273779233,orange,1,-0.273779233,-0.16426754,magenta,1,-0.16426754,0.273779233,yellow,1,0.05,0.05,0.15,-0.16426754,0.273779233,yellow,k,132814,26,2020-08-14_16h43.17.621,CDT_GNG_IUS12,2020.1.2,Win32,60,,l,0,0.65932,0,20,20,88,1,,,,,,,,,,,,,,,,,,,,,,,,,,,,,,,,,,,,,,,,,,,,,,,,,
,,,,,,,,,,117,different,6,-0.054755847,0.054755847,black,1,0.054755847,0.273779233,magenta,1,-0.273779233,-0.273779233,yellow,1,0.054755847,-0.16426754,blue,1,-0.16426754,0.054755847,cyan,1,0.054755847,0.054755847,red,1,0.05,0.05,0.15,-0.16426754,0.054755847,black,l,132814,26,2020-08-14_16h43.17.621,CDT_GNG_IUS12,2020.1.2,Win32,60,,l,1,0.53392,0,21,21,116,1,,,,,,,,,,,,,,,,,,,,,,,,,,,,,,,,,,,,,,,,,,,,,,,,,
,,,,,,,,,,71,same,6,-0.054755847,-0.16426754,orange,1,0.273779233,0.054755847,green,1,0.16426754,-0.16426754,yellow,1,-0.054755847,0.054755847,blue,1,-0.054755847,-0.273779233,black,1,0.054755847,0.16426754,cyan,1,0.05,0.05,0.15,-0.054755847,0.054755847,blue,k,132814,26,2020-08-14_16h43.17.621,CDT_GNG_IUS12,2020.1.2,Win32,60,,k,1,0.52428,0,22,22,70,1,,,,,,,,,,,,,,,,,,,,,,,,,,,,,,,,,,,,,,,,,,,,,,,,,
,,,,,,,,,,9,same,4,-0.16426754,0.054755847,cyan,1,0.16426754,-0.16426754,magenta,1,-0.273779233,-0.054755847,black,1,0.054755847,0.054755847,green,1,-0.273779233,0.16426754,orange,0,0.273779233,-0.273779233,red,0,0.05,0.05,0.15,-0.273779233,-0.054755847,black,k,132814,26,2020-08-14_16h43.17.621,CDT_GNG_IUS12,2020.1.2,Win32,60,,l,0,1.04927,0,23,23,8,1,,,,,,,,,,,,,,,,,,,,,,,,,,,,,,,,,,,,,,,,,,,,,,,,,
,,,,,,,,,,45,different,4,0.054755847,0.16426754,blue,1,-0.054755847,-0.273779233,magenta,1,-0.16426754,0.16426754,black,1,0.054755847,-0.16426754,orange,1,0.273779233,0.273779233,green,0,-0.273779233,-0.16426754,cyan,0,0.05,0.05,0.15,-0.16426754,0.16426754,magenta,l,132814,26,2020-08-14_16h43.17.621,CDT_GNG_IUS12,2020.1.2,Win32,60,,l,1,0.59288,0,24,24,44,1,,,,,,,,,,,,,,,,,,,,,,,,,,,,,,,,,,,,,,,,,,,,,,,,,
,,,,,,,,,,112,different,6,-0.273779233,-0.16426754,magenta,1,-0.054755847,0.054755847,orange,1,0.054755847,0.273779233,cyan,1,0.16426754,-0.273779233,yellow,1,-0.273779233,-0.273779233,black,1,-0.16426754,0.054755847,red,1,0.05,0.05,0.15,-0.16426754,0.054755847,orange,l,132814,26,2020-08-14_16h43.17.621,CDT_GNG_IUS12,2020.1.2,Win32,60,,l,1,0.77777,0,25,25,111,1,,,,,,,,,,,,,,,,,,,,,,,,,,,,,,,,,,,,,,,,,,,,,,,,,
,,,,,,,,,,14,same,4,0.16426754,0.16426754,magenta,1,-0.16426754,0.16426754,blue,1,0.16426754,-0.16426754,green,1,-0.16426754,-0.16426754,red,1,0.16426754,0.273779233,cyan,0,-0.16426754,0.273779233,orange,0,0.05,0.05,0.15,-0.16426754,0.16426754,blue,k,132814,26,2020-08-14_16h43.17.621,CDT_GNG_IUS12,2020.1.2,Win32,60,,k,1,1.31641,0,26,26,13,1,,,,,,,,,,,,,,,,,,,,,,,,,,,,,,,,,,,,,,,,,,,,,,,,,
,,,,,,,,,,83,same,6,0.054755847,-0.16426754,cyan,1,-0.16426754,-0.16426754,blue,1,0.273779233,0.054755847,magenta,1,-0.273779233,0.273779233,green,1,0.273779233,-0.16426754,orange,1,-0.054755847,-0.054755847,yellow,1,0.05,0.05,0.15,-0.054755847,-0.054755847,yellow,k,132814,26,2020-08-14_16h43.17.621,CDT_GNG_IUS12,2020.1.2,Win32,60,,l,0,0.6884,0,27,27,82,1,,,,,,,,,,,,,,,,,,,,,,,,,,,,,,,,,,,,,,,,,,,,,,,,,
,,,,,,,,,,38,different,4,0.273779233,-0.16426754,red,1,-0.054755847,0.16426754,blue,1,-0.273779233,-0.054755847,green,1,0.273779233,0.054755847,cyan,1,0.16426754,-0.054755847,orange,0,-0.054755847,0.054755847,yellow,0,0.05,0.05,0.15,0.273779233,0.054755847,black,l,132814,26,2020-08-14_16h43.17.621,CDT_GNG_IUS12,2020.1.2,Win32,60,,l,1,0.51076,0,28,28,37,1,,,,,,,,,,,,,,,,,,,,,,,,,,,,,,,,,,,,,,,,,,,,,,,,,
,,,,,,,,,,77,same,6,0.273779233,0.273779233,black,1,-0.273779233,-0.16426754,red,1,0.16426754,-0.054755847,magenta,1,-0.054755847,0.16426754,cyan,1,0.16426754,0.273779233,orange,1,-0.16426754,-0.273779233,blue,1,0.05,0.05,0.15,-0.273779233,-0.16426754,red,k,132814,26,2020-08-14_16h43.17.621,CDT_GNG_IUS12,2020.1.2,Win32,60,,k,1,0.883415,0,29,29,76,1,,,,,,,,,,,,,,,,,,,,,,,,,,,,,,,,,,,,,,,,,,,,,,,,,
,,,,,,,,,,23,same,4,0.273779233,-0.16426754,yellow,1,0.054755847,0.273779233,red,1,-0.054755847,0.054755847,black,1,-0.273779233,-0.054755847,orange,1,0.273779233,-0.054755847,green,0,0.273779233,0.054755847,magenta,0,0.05,0.05,0.15,-0.054755847,0.054755847,black,k,132814,26,2020-08-14_16h43.17.621,CDT_GNG_IUS12,2020.1.2,Win32,60,,l,0,1.48237,0,30,30,22,1,,,,,,,,,,,,,,,,,,,,,,,,,,,,,,,,,,,,,,,,,,,,,,,,,
,,,,,,,,,,6,same,4,0.273779233,0.273779233,blue,1,-0.273779233,-0.16426754,magenta,1,-0.054755847,0.054755847,green,1,0.054755847,-0.054755847,black,1,0.054755847,0.054755847,orange,0,-0.054755847,-0.054755847,red,0,0.05,0.05,0.15,-0.054755847,0.054755847,green,k,132814,26,2020-08-14_16h43.17.621,CDT_GNG_IUS12,2020.1.2,Win32,60,,l,0,0.500025,0,31,31,5,1,,,,,,,,,,,,,,,,,,,,,,,,,,,,,,,,,,,,,,,,,,,,,,,,,
,,,,,,,,,,106,different,6,0.054755847,-0.16426754,blue,1,-0.273779233,-0.273779233,magenta,1,0.273779233,0.273779233,yellow,1,-0.273779233,0.054755847,orange,1,0.054755847,-0.054755847,green,1,-0.054755847,-0.16426754,black,1,0.05,0.05,0.15,0.054755847,-0.054755847,cyan,l,132814,26,2020-08-14_16h43.17.621,CDT_GNG_IUS12,2020.1.2,Win32,60,,l,1,0.61731,0,32,32,105,1,,,,,,,,,,,,,,,,,,,,,,,,,,,,,,,,,,,,,,,,,,,,,,,,,
,,,,,,,,,,55,different,4,0.273779233,0.054755847,yellow,1,0.054755847,-0.16426754,green,1,-0.273779233,-0.16426754,orange,1,-0.273779233,0.273779233,blue,1,0.273779233,0.273779233,red,0,0.273779233,-0.16426754,cyan,0,0.05,0.05,0.15,0.054755847,-0.16426754,red,l,132814,26,2020-08-14_16h43.17.621,CDT_GNG_IUS12,2020.1.2,Win32,60,,l,1,0.559255,0,33,33,54,1,,,,,,,,,,,,,,,,,,,,,,,,,,,,,,,,,,,,,,,,,,,,,,,,,
,,,,,,,,,,17,same,4,0.16426754,0.273779233,yellow,1,-0.054755847,0.16426754,orange,1,0.273779233,-0.054755847,cyan,1,-0.273779233,-0.054755847,green,1,0.16426754,0.16426754,blue,0,-0.054755847,0.273779233,magenta,0,0.05,0.05,0.15,0.16426754,0.273779233,yellow,k,132814,26,2020-08-14_16h43.17.621,CDT_GNG_IUS12,2020.1.2,Win32,60,,l,0,1.226315,0,34,34,16,1,,,,,,,,,,,,,,,,,,,,,,,,,,,,,,,,,,,,,,,,,,,,,,,,,
,,,,,,,,,,80,same,6,-0.273779233,0.16426754,orange,1,0.054755847,-0.273779233,yellow,1,0.054755847,0.273779233,green,1,-0.16426754,-0.273779233,red,1,-0.16426754,0.273779233,blue,1,0.273779233,-0.16426754,black,1,0.05,0.05,0.15,0.054755847,-0.273779233,yellow,k,132814,26,2020-08-14_16h43.17.621,CDT_GNG_IUS12,2020.1.2,Win32,60,,l,0,1.138705,0,35,35,79,1,,,,,,,,,,,,,,,,,,,,,,,,,,,,,,,,,,,,,,,,,,,,,,,,,
,,,,,,,,,,99,different,6,0.054755847,0.16426754,orange,1,0.16426754,-0.16426754,yellow,1,-0.16426754,0.273779233,red,1,-0.273779233,-0.054755847,magenta,1,0.16426754,0.054755847,black,1,0.054755847,-0.054755847,green,1,0.05,0.05,0.15,-0.16426754,0.273779233,blue,l,132814,26,2020-08-14_16h43.17.621,CDT_GNG_IUS12,2020.1.2,Win32,60,,l,1,0.666895,0,36,36,98,1,,,,,,,,,,,,,,,,,,,,,,,,,,,,,,,,,,,,,,,,,,,,,,,,,
,,,,,,,,,,44,different,4,0.16426754,0.16426754,green,1,0.16426754,-0.16426754,black,1,-0.16426754,-0.054755847,cyan,1,-0.16426754,0.054755847,magenta,1,0.16426754,0.054755847,blue,0,0.054755847,-0.273779233,yellow,0,0.05,0.05,0.15,0.16426754,0.16426754,red,l,132814,26,2020-08-14_16h43.17.621,CDT_GNG_IUS12,2020.1.2,Win32,60,,l,1,0.62316,0,37,37,43,1,,,,,,,,,,,,,,,,,,,,,,,,,,,,,,,,,,,,,,,,,,,,,,,,,
,,,,,,,,,,27,same,4,-0.273779233,0.054755847,blue,1,-0.16426754,-0.16426754,black,1,0.16426754,-0.273779233,cyan,1,0.273779233,0.054755847,red,1,-0.054755847,0.273779233,magenta,0,-0.054755847,-0.273779233,yellow,0,0.05,0.05,0.15,0.273779233,0.054755847,red,k,132814,26,2020-08-14_16h43.17.621,CDT_GNG_IUS12,2020.1.2,Win32,60,,k,1,0.587675,0,38,38,26,1,,,,,,,,,,,,,,,,,,,,,,,,,,,,,,,,,,,,,,,,,,,,,,,,,
,,,,,,,,,,73,same,6,0.054755847,0.16426754,blue,1,-0.273779233,0.273779233,red,1,-0.273779233,-0.16426754,green,1,0.054755847,-0.054755847,orange,1,0.16426754,0.16426754,black,1,-0.054755847,0.16426754,magenta,1,0.05,0.05,0.15,-0.273779233,0.273779233,red,k,132814,26,2020-08-14_16h43.17.621,CDT_GNG_IUS12,2020.1.2,Win32,60,,k,1,0.44471,0,39,39,72,1,,,,,,,,,,,,,,,,,,,,,,,,,,,,,,,,,,,,,,,,,,,,,,,,,
,,,,,,,,,,118,different,6,-0.16426754,-0.16426754,red,1,0.273779233,0.16426754,orange,1,-0.16426754,0.273779233,cyan,1,0.16426754,-0.273779233,black,1,-0.054755847,-0.054755847,yellow,1,0.054755847,0.054755847,green,1,0.05,0.05,0.15,-0.054755847,-0.054755847,magenta,l,132814,26,2020-08-14_16h43.17.621,CDT_GNG_IUS12,2020.1.2,Win32,60,,l,1,0.58314,0,40,40,117,1,,,,,,,,,,,,,,,,,,,,,,,,,,,,,,,,,,,,,,,,,,,,,,,,,
,,,,,,,,,,3,same,4,-0.054755847,-0.054755847,yellow,1,-0.054755847,0.054755847,cyan,1,0.16426754,-0.273779233,black,1,0.273779233,0.273779233,magenta,1,-0.054755847,-0.273779233,orange,0,-0.273779233,0.054755847,green,0,0.05,0.05,0.15,0.273779233,0.273779233,magenta,k,132814,26,2020-08-14_16h43.17.621,CDT_GNG_IUS12,2020.1.2,Win32,60,,k,1,0.683785,0,41,41,2,1,,,,,,,,,,,,,,,,,,,,,,,,,,,,,,,,,,,,,,,,,,,,,,,,,
,,,,,,,,,,97,different,6,-0.273779233,-0.273779233,orange,1,0.054755847,-0.273779233,blue,1,0.16426754,0.16426754,green,1,-0.16426754,0.054755847,cyan,1,-0.16426754,-0.16426754,black,1,0.273779233,-0.16426754,yellow,1,0.05,0.05,0.15,-0.16426754,0.054755847,yellow,l,132814,26,2020-08-14_16h43.17.621,CDT_GNG_IUS12,2020.1.2,Win32,60,,l,1,0.62619,0,42,42,96,1,,,,,,,,,,,,,,,,,,,,,,,,,,,,,,,,,,,,,,,,,,,,,,,,,
,,,,,,,,,,8,same,4,0.16426754,-0.16426754,blue,1,-0.16426754,-0.054755847,red,1,-0.273779233,0.16426754,green,1,0.054755847,0.054755847,cyan,1,0.16426754,-0.273779233,magenta,0,-0.054755847,-0.054755847,orange,0,0.05,0.05,0.15,-0.273779233,0.16426754,green,k,132814,26,2020-08-14_16h43.17.621,CDT_GNG_IUS12,2020.1.2,Win32,60,,k,1,0.53377,0,43,43,7,1,,,,,,,,,,,,,,,,,,,,,,,,,,,,,,,,,,,,,,,,,,,,,,,,,
,,,,,,,,,,12,same,4,0.054755847,0.054755847,blue,1,-0.273779233,-0.054755847,magenta,1,-0.054755847,0.273779233,black,1,0.16426754,-0.16426754,green,1,0.16426754,0.16426754,yellow,0,-0.16426754,-0.054755847,orange,0,0.05,0.05,0.15,0.054755847,0.054755847,blue,k,132814,26,2020-08-14_16h43.17.621,CDT_GNG_IUS12,2020.1.2,Win32,60,,l,0,0.5551,0,44,44,11,1,,,,,,,,,,,,,,,,,,,,,,,,,,,,,,,,,,,,,,,,,,,,,,,,,
,,,,,,,,,,37,different,4,0.273779233,-0.273779233,cyan,1,-0.054755847,0.054755847,orange,1,-0.054755847,-0.16426754,yellow,1,0.16426754,0.054755847,blue,1,0.054755847,-0.273779233,red,0,-0.273779233,0.16426754,green,0,0.05,0.05,0.15,-0.054755847,0.054755847,green,l,132814,26,2020-08-14_16h43.17.621,CDT_GNG_IUS12,2020.1.2,Win32,60,,l,1,1.01957,0,45,45,36,1,,,,,,,,,,,,,,,,,,,,,,,,,,,,,,,,,,,,,,,,,,,,,,,,,
,,,,,,,,,,15,same,4,0.054755847,-0.273779233,yellow,1,-0.273779233,-0.054755847,cyan,1,0.273779233,0.16426754,green,1,-0.16426754,0.16426754,blue,1,0.273779233,-0.054755847,magenta,0,-0.16426754,-0.054755847,orange,0,0.05,0.05,0.15,-0.273779233,-0.054755847,cyan,k,132814,26,2020-08-14_16h43.17.621,CDT_GNG_IUS12,2020.1.2,Win32,60,,l,0,0.74181,0,46,46,14,1,,,,,,,,,,,,,,,,,,,,,,,,,,,,,,,,,,,,,,,,,,,,,,,,,
,,,,,,,,,,24,same,4,0.054755847,-0.16426754,red,1,0.054755847,0.054755847,yellow,1,-0.273779233,0.16426754,orange,1,-0.273779233,-0.16426754,magenta,1,0.273779233,-0.16426754,black,0,0.273779233,0.273779233,green,0,0.05,0.05,0.15,0.054755847,-0.16426754,red,k,132814,26,2020-08-14_16h43.17.621,CDT_GNG_IUS12,2020.1.2,Win32,60,,k,1,0.54429,0,47,47,23,1,,,,,,,,,,,,,,,,,,,,,,,,,,,,,,,,,,,,,,,,,,,,,,,,,
,,,,,,,,,,120,different,6,0.16426754,-0.054755847,blue,1,-0.16426754,-0.273779233,cyan,1,0.16426754,0.16426754,magenta,1,-0.273779233,0.273779233,black,1,0.273779233,-0.16426754,green,1,-0.273779233,-0.16426754,orange,1,0.05,0.05,0.15,0.16426754,0.16426754,yellow,l,132814,26,2020-08-14_16h43.17.621,CDT_GNG_IUS12,2020.1.2,Win32,60,,l,1,0.907795,0,48,48,119,1,,,,,,,,,,,,,,,,,,,,,,,,,,,,,,,,,,,,,,,,,,,,,,,,,
,,,,,,,,,,109,different,6,-0.273779233,-0.16426754,blue,1,0.054755847,-0.16426754,black,1,-0.054755847,0.054755847,cyan,1,0.054755847,0.16426754,green,1,-0.054755847,-0.054755847,yellow,1,0.16426754,-0.273779233,orange,1,0.05,0.05,0.15,-0.273779233,-0.16426754,green,l,132814,26,2020-08-14_16h43.17.621,CDT_GNG_IUS12,2020.1.2,Win32,60,,l,1,0.65443,0,49,49,108,1,,,,,,,,,,,,,,,,,,,,,,,,,,,,,,,,,,,,,,,,,,,,,,,,,
,,,,,,,,,,28,same,4,0.16426754,-0.273779233,yellow,1,-0.054755847,0.16426754,black,1,0.16426754,0.054755847,cyan,1,-0.273779233,-0.16426754,blue,1,0.273779233,-0.273779233,orange,0,-0.054755847,0.054755847,magenta,0,0.05,0.05,0.15,-0.054755847,0.16426754,black,k,132814,26,2020-08-14_16h43.17.621,CDT_GNG_IUS12,2020.1.2,Win32,60,,l,0,0.594095,0,50,50,27,1,,,,,,,,,,,,,,,,,,,,,,,,,,,,,,,,,,,,,,,,,,,,,,,,,
,,,,,,,,,,20,same,4,0.273779233,0.054755847,magenta,1,0.054755847,-0.273779233,black,1,-0.054755847,0.16426754,blue,1,-0.273779233,-0.054755847,orange,1,0.054755847,0.054755847,red,0,0.054755847,-0.054755847,cyan,0,0.05,0.05,0.15,-0.054755847,0.16426754,blue,k,132814,26,2020-08-14_16h43.17.621,CDT_GNG_IUS12,2020.1.2,Win32,60,,l,0,0.865895,0,51,51,19,1,,,,,,,,,,,,,,,,,,,,,,,,,,,,,,,,,,,,,,,,,,,,,,,,,
,,,,,,,,,,110,different,6,-0.273779233,0.273779233,black,1,0.273779233,-0.16426754,red,1,0.054755847,0.273779233,cyan,1,-0.273779233,-0.16426754,orange,1,-0.054755847,0.054755847,magenta,1,0.16426754,-0.054755847,yellow,1,0.05,0.05,0.15,0.273779233,-0.16426754,yellow,l,132814,26,2020-08-14_16h43.17.621,CDT_GNG_IUS12,2020.1.2,Win32,60,,l,1,0.683575,0,52,52,109,1,,,,,,,,,,,,,,,,,,,,,,,,,,,,,,,,,,,,,,,,,,,,,,,,,
,,,,,,,,,,108,different,6,-0.273779233,-0.054755847,magenta,1,0.054755847,0.16426754,red,1,-0.16426754,0.054755847,cyan,1,0.054755847,-0.273779233,green,1,-0.273779233,-0.16426754,orange,1,0.273779233,0.273779233,black,1,0.05,0.05,0.15,-0.273779233,-0.054755847,blue,l,132814,26,2020-08-14_16h43.17.621,CDT_GNG_IUS12,2020.1.2,Win32,60,,l,1,0.638835,0,53,53,107,1,,,,,,,,,,,,,,,,,,,,,,,,,,,,,,,,,,,,,,,,,,,,,,,,,
,,,,,,,,,,13,same,4,0.16426754,0.273779233,orange,1,0.054755847,-0.273779233,blue,1,-0.054755847,0.054755847,magenta,1,-0.054755847,-0.16426754,black,1,0.054755847,0.16426754,yellow,0,0.16426754,-0.054755847,cyan,0,0.05,0.05,0.15,0.054755847,-0.273779233,blue,k,132814,26,2020-08-14_16h43.17.621,CDT_GNG_IUS12,2020.1.2,Win32,60,,k,1,0.636175,0,54,54,12,1,,,,,,,,,,,,,,,,,,,,,,,,,,,,,,,,,,,,,,,,,,,,,,,,,
,,,,,,,,,,69,same,6,-0.054755847,-0.054755847,black,1,0.273779233,-0.054755847,orange,1,-0.273779233,0.16426754,blue,1,0.054755847,0.054755847,yellow,1,-0.16426754,-0.16426754,green,1,0.054755847,-0.16426754,magenta,1,0.05,0.05,0.15,-0.16426754,-0.16426754,green,k,132814,26,2020-08-14_16h43.17.621,CDT_GNG_IUS12,2020.1.2,Win32,60,,k,1,0.487455,0,55,55,68,1,,,,,,,,,,,,,,,,,,,,,,,,,,,,,,,,,,,,,,,,,,,,,,,,,
,,,,,,,,,,41,different,4,0.054755847,-0.273779233,orange,1,-0.273779233,0.054755847,blue,1,-0.054755847,-0.16426754,yellow,1,0.273779233,0.16426754,red,1,0.273779233,-0.273779233,black,0,-0.273779233,0.273779233,magenta,0,0.05,0.05,0.15,-0.054755847,-0.16426754,black,l,132814,26,2020-08-14_16h43.17.621,CDT_GNG_IUS12,2020.1.2,Win32,60,,l,1,0.544095,0,56,56,40,1,,,,,,,,,,,,,,,,,,,,,,,,,,,,,,,,,,,,,,,,,,,,,,,,,
,,,,,,,,,,53,different,4,-0.16426754,0.054755847,green,1,0.273779233,0.054755847,cyan,1,-0.273779233,-0.273779233,magenta,1,0.054755847,-0.16426754,black,1,-0.054755847,0.16426754,red,0,0.273779233,0.273779233,blue,0,0.05,0.05,0.15,-0.273779233,-0.273779233,black,l,132814,26,2020-08-14_16h43.17.621,CDT_GNG_IUS12,2020.1.2,Win32,60,,l,1,0.639715,0,57,57,52,1,,,,,,,,,,,,,,,,,,,,,,,,,,,,,,,,,,,,,,,,,,,,,,,,,
,,,,,,,,,,96,different,6,-0.16426754,-0.16426754,green,1,-0.16426754,0.054755847,black,1,0.054755847,0.16426754,cyan,1,0.16426754,-0.273779233,yellow,1,-0.273779233,-0.273779233,blue,1,-0.054755847,0.054755847,red,1,0.05,0.05,0.15,-0.16426754,0.054755847,magenta,l,132814,26,2020-08-14_16h43.17.621,CDT_GNG_IUS12,2020.1.2,Win32,60,,l,1,0.568145,0,58,58,95,1,,,,,,,,,,,,,,,,,,,,,,,,,,,,,,,,,,,,,,,,,,,,,,,,,
,,,,,,,,,,81,same,6,-0.273779233,-0.273779233,green,1,-0.273779233,0.16426754,blue,1,0.054755847,-0.16426754,black,1,0.273779233,0.054755847,cyan,1,-0.16426754,-0.273779233,orange,1,-0.054755847,0.054755847,red,1,0.05,0.05,0.15,0.054755847,-0.16426754,black,k,132814,26,2020-08-14_16h43.17.621,CDT_GNG_IUS12,2020.1.2,Win32,60,s,l,0,0.486575,0,59,59,80,1,10.01072,,,,,,,,,,,,,,,,,,,,,,,,,,,,,,,,,,,,,,,,,,,,,,,,
,,,,,,,,,,67,same,6,0.273779233,-0.054755847,magenta,1,0.16426754,0.273779233,orange,1,-0.273779233,0.273779233,cyan,1,-0.16426754,-0.054755847,yellow,1,0.16426754,-0.16426754,blue,1,0.16426754,0.16426754,red,1,0.05,0.05,0.15,-0.273779233,0.273779233,cyan,k,132814,26,2020-08-14_16h43.17.621,CDT_GNG_IUS12,2020.1.2,Win32,60,,l,0,1.236335,0,60,60,66,1,,,,,,,,,,,,,,,,,,,,,,,,,,,,,,,,,,,,,,,,,,,,,,,,,
,,,,,,,,,,26,same,4,0.16426754,-0.16426754,green,1,-0.054755847,0.16426754,yellow,1,-0.273779233,-0.16426754,black,1,0.054755847,0.054755847,red,1,0.16426754,-0.054755847,cyan,0,-0.273779233,0.273779233,magenta,0,0.05,0.05,0.15,-0.054755847,0.16426754,yellow,k,132814,26,2020-08-14_16h43.17.621,CDT_GNG_IUS12,2020.1.2,Win32,60,,k,1,0.566965,0,61,61,25,1,,,,,,,,,,,,,,,,,,,,,,,,,,,,,,,,,,,,,,,,,,,,,,,,,
,,,,,,,,,,4,same,4,0.16426754,-0.16426754,black,1,-0.054755847,0.16426754,yellow,1,0.16426754,0.16426754,blue,1,-0.16426754,-0.16426754,green,1,0.054755847,-0.16426754,magenta,0,-0.054755847,0.273779233,orange,0,0.05,0.05,0.15,0.16426754,-0.16426754,black,k,132814,26,2020-08-14_16h43.17.621,CDT_GNG_IUS12,2020.1.2,Win32,60,,k,1,0.667355,0,62,62,3,1,,,,,,,,,,,,,,,,,,,,,,,,,,,,,,,,,,,,,,,,,,,,,,,,,
,,,,,,,,,,70,same,6,0.16426754,0.16426754,cyan,1,0.273779233,-0.273779233,red,1,-0.16426754,0.16426754,yellow,1,-0.273779233,-0.273779233,green,1,0.16426754,0.054755847,magenta,1,0.16426754,-0.054755847,blue,1,0.05,0.05,0.15,0.273779233,-0.273779233,red,k,132814,26,2020-08-14_16h43.17.621,CDT_GNG_IUS12,2020.1.2,Win32,60,,l,0,0.745235,0,63,63,69,1,,,,,,,,,,,,,,,,,,,,,,,,,,,,,,,,,,,,,,,,,,,,,,,,,
,,,,,,,,,,51,different,4,-0.16426754,-0.273779233,yellow,1,0.16426754,-0.273779233,cyan,1,0.273779233,0.054755847,blue,1,-0.054755847,0.273779233,green,1,-0.16426754,-0.054755847,black,0,0.273779233,-0.273779233,red,0,0.05,0.05,0.15,0.16426754,-0.273779233,red,l,132814,26,2020-08-14_16h43.17.621,CDT_GNG_IUS12,2020.1.2,Win32,60,,l,1,0.55269,0,64,64,50,1,,,,,,,,,,,,,,,,,,,,,,,,,,,,,,,,,,,,,,,,,,,,,,,,,
,,,,,,,,,,2,same,4,0.273779233,0.054755847,magenta,1,-0.273779233,0.273779233,red,1,-0.054755847,-0.054755847,yellow,1,0.273779233,-0.273779233,blue,1,0.054755847,0.16426754,green,0,-0.16426754,0.054755847,cyan,0,0.05,0.05,0.15,0.273779233,-0.273779233,blue,k,132814,26,2020-08-14_16h43.17.621,CDT_GNG_IUS12,2020.1.2,Win32,60,,l,0,0.711145,0,65,65,1,1,,,,,,,,,,,,,,,,,,,,,,,,,,,,,,,,,,,,,,,,,,,,,,,,,
,,,,,,,,,,59,different,4,0.16426754,-0.16426754,red,1,-0.054755847,-0.16426754,cyan,1,0.054755847,0.16426754,yellow,1,-0.16426754,0.273779233,green,1,0.16426754,-0.054755847,orange,0,-0.16426754,-0.054755847,black,0,0.05,0.05,0.15,-0.16426754,0.273779233,black,l,132814,26,2020-08-14_16h43.17.621,CDT_GNG_IUS12,2020.1.2,Win32,60,,l,1,0.628945,0,66,66,58,1,,,,,,,,,,,,,,,,,,,,,,,,,,,,,,,,,,,,,,,,,,,,,,,,,
,,,,,,,,,,104,different,6,0.054755847,-0.16426754,magenta,1,0.273779233,0.273779233,yellow,1,-0.273779233,0.273779233,blue,1,-0.16426754,-0.054755847,cyan,1,0.16426754,-0.054755847,orange,1,0.273779233,0.16426754,green,1,0.05,0.05,0.15,0.054755847,-0.16426754,cyan,l,132814,26,2020-08-14_16h43.17.621,CDT_GNG_IUS12,2020.1.2,Win32,60,,l,1,0.57843,0,67,67,103,1,,,,,,,,,,,,,,,,,,,,,,,,,,,,,,,,,,,,,,,,,,,,,,,,,
,,,,,,,,,,93,different,6,-0.16426754,0.16426754,red,1,0.054755847,-0.054755847,black,1,-0.054755847,-0.16426754,blue,1,0.054755847,0.273779233,magenta,1,-0.054755847,0.054755847,orange,1,0.16426754,-0.054755847,cyan,1,0.05,0.05,0.15,-0.054755847,-0.16426754,black,l,132814,26,2020-08-14_16h43.17.621,CDT_GNG_IUS12,2020.1.2,Win32,60,,l,1,0.45278,0,68,68,92,1,,,,,,,,,,,,,,,,,,,,,,,,,,,,,,,,,,,,,,,,,,,,,,,,,
,,,,,,,,,,16,same,4,0.16426754,0.16426754,cyan,1,-0.16426754,-0.273779233,red,1,-0.16426754,0.16426754,black,1,0.273779233,-0.054755847,yellow,1,0.273779233,0.273779233,orange,0,-0.054755847,-0.273779233,blue,0,0.05,0.05,0.15,-0.16426754,-0.273779233,red,k,132814,26,2020-08-14_16h43.17.621,CDT_GNG_IUS12,2020.1.2,Win32,60,,k,1,0.329255,0,69,69,15,1,,,,,,,,,,,,,,,,,,,,,,,,,,,,,,,,,,,,,,,,,,,,,,,,,
,,,,,,,,,,65,same,6,-0.273779233,-0.16426754,cyan,1,-0.054755847,0.054755847,blue,1,0.054755847,-0.054755847,red,1,0.273779233,0.054755847,green,1,-0.16426754,-0.054755847,orange,1,-0.273779233,0.273779233,yellow,1,0.05,0.05,0.15,-0.273779233,-0.16426754,cyan,k,132814,26,2020-08-14_16h43.17.621,CDT_GNG_IUS12,2020.1.2,Win32,60,,l,0,0.52484,0,70,70,64,1,,,,,,,,,,,,,,,,,,,,,,,,,,,,,,,,,,,,,,,,,,,,,,,,,
,,,,,,,,,,75,same,6,0.16426754,0.273779233,magenta,1,-0.273779233,-0.16426754,green,1,-0.273779233,0.16426754,yellow,1,0.054755847,-0.054755847,red,1,0.273779233,0.054755847,blue,1,-0.16426754,-0.054755847,cyan,1,0.05,0.05,0.15,0.054755847,-0.054755847,red,k,132814,26,2020-08-14_16h43.17.621,CDT_GNG_IUS12,2020.1.2,Win32,60,,l,0,0.83969,0,71,71,74,1,,,,,,,,,,,,,,,,,,,,,,,,,,,,,,,,,,,,,,,,,,,,,,,,,
,,,,,,,,,,31,different,4,-0.16426754,0.16426754,blue,1,0.16426754,-0.054755847,magenta,1,-0.16426754,-0.054755847,yellow,1,0.054755847,0.273779233,black,1,-0.273779233,0.054755847,red,0,0.273779233,-0.273779233,cyan,0,0.05,0.05,0.15,-0.16426754,-0.054755847,black,l,132814,26,2020-08-14_16h43.17.621,CDT_GNG_IUS12,2020.1.2,Win32,60,,l,1,0.52572,0,72,72,30,1,,,,,,,,,,,,,,,,,,,,,,,,,,,,,,,,,,,,,,,,,,,,,,,,,
,,,,,,,,,,58,different,4,-0.16426754,0.273779233,blue,1,0.16426754,0.273779233,yellow,1,0.273779233,-0.16426754,black,1,-0.16426754,-0.054755847,cyan,1,-0.16426754,0.16426754,green,0,0.16426754,0.054755847,orange,0,0.05,0.05,0.15,0.273779233,-0.16426754,magenta,l,132814,26,2020-08-14_16h43.17.621,CDT_GNG_IUS12,2020.1.2,Win32,60,,l,1,0.559215,0,73,73,57,1,,,,,,,,,,,,,,,,,,,,,,,,,,,,,,,,,,,,,,,,,,,,,,,,,
,,,,,,,,,,86,same,6,0.054755847,0.273779233,green,1,-0.054755847,0.273779233,red,1,0.16426754,-0.16426754,yellow,1,-0.054755847,-0.273779233,black,1,0.273779233,0.273779233,cyan,1,-0.273779233,0.054755847,orange,1,0.05,0.05,0.15,-0.273779233,0.054755847,orange,k,132814,26,2020-08-14_16h43.17.621,CDT_GNG_IUS12,2020.1.2,Win32,60,,l,0,0.68608,0,74,74,85,1,,,,,,,,,,,,,,,,,,,,,,,,,,,,,,,,,,,,,,,,,,,,,,,,,
,,,,,,,,,,62,same,6,0.054755847,-0.054755847,yellow,1,-0.273779233,-0.16426754,green,1,0.273779233,0.054755847,orange,1,-0.16426754,0.054755847,cyan,1,0.054755847,-0.273779233,red,1,-0.054755847,-0.054755847,blue,1,0.05,0.05,0.15,0.054755847,-0.054755847,yellow,k,132814,26,2020-08-14_16h43.17.621,CDT_GNG_IUS12,2020.1.2,Win32,60,,k,1,0.551855,0,75,75,61,1,,,,,,,,,,,,,,,,,,,,,,,,,,,,,,,,,,,,,,,,,,,,,,,,,
,,,,,,,,,,21,same,4,0.273779233,0.273779233,black,1,-0.273779233,-0.273779233,blue,1,0.054755847,-0.16426754,yellow,1,-0.273779233,0.054755847,cyan,1,0.16426754,0.273779233,magenta,0,-0.054755847,-0.054755847,green,0,0.05,0.05,0.15,0.273779233,0.273779233,black,k,132814,26,2020-08-14_16h43.17.621,CDT_GNG_IUS12,2020.1.2,Win32,60,,l,0,0.474565,0,76,76,20,1,,,,,,,,,,,,,,,,,,,,,,,,,,,,,,,,,,,,,,,,,,,,,,,,,
,,,,,,,,,,18,same,4,-0.054755847,0.273779233,black,1,-0.16426754,-0.16426754,cyan,1,0.054755847,0.16426754,red,1,0.273779233,-0.273779233,magenta,1,-0.16426754,0.273779233,orange,0,-0.054755847,-0.273779233,green,0,0.05,0.05,0.15,0.273779233,-0.273779233,magenta,k,132814,26,2020-08-14_16h43.17.621,CDT_GNG_IUS12,2020.1.2,Win32,60,,l,0,0.495275,0,77,77,17,1,,,,,,,,,,,,,,,,,,,,,,,,,,,,,,,,,,,,,,,,,,,,,,,,,
,,,,,,,,,,10,same,4,0.273779233,0.273779233,green,1,-0.16426754,-0.054755847,yellow,1,-0.16426754,0.16426754,cyan,1,0.273779233,-0.16426754,blue,1,0.273779233,0.054755847,orange,0,-0.273779233,-0.16426754,red,0,0.05,0.05,0.15,0.273779233,0.273779233,green,k,132814,26,2020-08-14_16h43.17.621,CDT_GNG_IUS12,2020.1.2,Win32,60,,l,0,0.652805,0,78,78,9,1,,,,,,,,,,,,,,,,,,,,,,,,,,,,,,,,,,,,,,,,,,,,,,,,,
,,,,,,,,,,111,different,6,0.273779233,0.273779233,green,1,0.054755847,-0.16426754,red,1,-0.16426754,-0.16426754,black,1,-0.16426754,0.16426754,magenta,1,0.054755847,0.054755847,blue,1,0.273779233,-0.16426754,yellow,1,0.05,0.05,0.15,0.273779233,-0.16426754,green,l,132814,26,2020-08-14_16h43.17.621,CDT_GNG_IUS12,2020.1.2,Win32,60,,l,1,0.576975,0,79,79,110,1,,,,,,,,,,,,,,,,,,,,,,,,,,,,,,,,,,,,,,,,,,,,,,,,,
,,,,,,,,,,103,different,6,-0.273779233,-0.16426754,black,1,0.273779233,-0.054755847,cyan,1,0.054755847,0.273779233,magenta,1,-0.054755847,0.16426754,orange,1,-0.16426754,-0.16426754,green,1,0.273779233,-0.16426754,red,1,0.05,0.05,0.15,-0.273779233,-0.16426754,blue,l,132814,26,2020-08-14_16h43.17.621,CDT_GNG_IUS12,2020.1.2,Win32,60,,l,1,0.57497,0,80,80,102,1,,,,,,,,,,,,,,,,,,,,,,,,,,,,,,,,,,,,,,,,,,,,,,,,,
,,,,,,,,,,19,same,4,-0.054755847,-0.16426754,orange,1,-0.273779233,0.273779233,red,1,0.273779233,0.054755847,yellow,1,0.273779233,-0.16426754,magenta,1,-0.273779233,-0.054755847,black,0,-0.054755847,0.273779233,blue,0,0.05,0.05,0.15,0.273779233,-0.16426754,magenta,k,132814,26,2020-08-14_16h43.17.621,CDT_GNG_IUS12,2020.1.2,Win32,60,,k,1,0.54019,0,81,81,18,1,,,,,,,,,,,,,,,,,,,,,,,,,,,,,,,,,,,,,,,,,,,,,,,,,
,,,,,,,,,,1,same,4,-0.16426754,-0.273779233,orange,1,0.054755847,0.16426754,yellow,1,-0.16426754,0.16426754,green,1,0.054755847,-0.054755847,red,1,-0.273779233,-0.16426754,cyan,0,0.16426754,0.16426754,blue,0,0.05,0.05,0.15,0.054755847,0.16426754,yellow,k,132814,26,2020-08-14_16h43.17.621,CDT_GNG_IUS12,2020.1.2,Win32,60,,k,1,0.81699,0,82,82,0,1,,,,,,,,,,,,,,,,,,,,,,,,,,,,,,,,,,,,,,,,,,,,,,,,,
,,,,,,,,,,101,different,6,0.273779233,0.273779233,yellow,1,0.054755847,-0.16426754,black,1,-0.054755847,0.054755847,cyan,1,-0.054755847,-0.16426754,magenta,1,0.273779233,0.054755847,green,1,0.16426754,-0.16426754,blue,1,0.05,0.05,0.15,0.273779233,0.273779233,green,l,132814,26,2020-08-14_16h43.17.621,CDT_GNG_IUS12,2020.1.2,Win32,60,,l,1,0.54605,0,83,83,100,1,,,,,,,,,,,,,,,,,,,,,,,,,,,,,,,,,,,,,,,,,,,,,,,,,
,,,,,,,,,,82,same,6,-0.054755847,-0.16426754,red,1,0.273779233,-0.054755847,cyan,1,0.16426754,0.273779233,blue,1,-0.054755847,0.054755847,black,1,-0.16426754,-0.16426754,yellow,1,0.273779233,-0.16426754,green,1,0.05,0.05,0.15,-0.16426754,-0.16426754,yellow,k,132814,26,2020-08-14_16h43.17.621,CDT_GNG_IUS12,2020.1.2,Win32,60,,k,1,0.71012,0,84,84,81,1,,,,,,,,,,,,,,,,,,,,,,,,,,,,,,,,,,,,,,,,,,,,,,,,,
,,,,,,,,,,49,different,4,-0.16426754,-0.273779233,black,1,0.16426754,0.16426754,red,1,-0.273779233,0.16426754,yellow,1,0.054755847,-0.273779233,green,1,-0.273779233,-0.273779233,magenta,0,0.054755847,0.273779233,blue,0,0.05,0.05,0.15,0.054755847,-0.273779233,orange,l,132814,26,2020-08-14_16h43.17.621,CDT_GNG_IUS12,2020.1.2,Win32,60,,l,1,0.56654,0,85,85,48,1,,,,,,,,,,,,,,,,,,,,,,,,,,,,,,,,,,,,,,,,,,,,,,,,,
,,,,,,,,,,84,same,6,-0.273779233,-0.16426754,black,1,0.273779233,0.273779233,blue,1,-0.054755847,0.054755847,red,1,0.16426754,-0.054755847,orange,1,-0.16426754,-0.16426754,cyan,1,0.16426754,0.16426754,magenta,1,0.05,0.05,0.15,-0.16426754,-0.16426754,cyan,k,132814,26,2020-08-14_16h43.17.621,CDT_GNG_IUS12,2020.1.2,Win32,60,,k,1,0.51922,0,86,86,83,1,,,,,,,,,,,,,,,,,,,,,,,,,,,,,,,,,,,,,,,,,,,,,,,,,
,,,,,,,,,,25,same,4,0.16426754,-0.273779233,green,1,-0.16426754,-0.273779233,black,1,0.16426754,0.054755847,cyan,1,-0.273779233,0.273779233,blue,1,0.054755847,-0.273779233,yellow,0,-0.273779233,-0.273779233,red,0,0.05,0.05,0.15,-0.273779233,0.273779233,blue,k,132814,26,2020-08-14_16h43.17.621,CDT_GNG_IUS12,2020.1.2,Win32,60,,l,0,0.72627,0,87,87,24,1,,,,,,,,,,,,,,,,,,,,,,,,,,,,,,,,,,,,,,,,,,,,,,,,,
,,,,,,,,,,7,same,4,-0.16426754,-0.054755847,yellow,1,0.273779233,0.16426754,magenta,1,-0.16426754,0.054755847,cyan,1,0.054755847,-0.054755847,black,1,-0.054755847,-0.054755847,orange,0,0.273779233,0.273779233,blue,0,0.05,0.05,0.15,0.054755847,-0.054755847,black,k,132814,26,2020-08-14_16h43.17.621,CDT_GNG_IUS12,2020.1.2,Win32,60,,l,0,0.566525,0,88,88,6,1,,,,,,,,,,,,,,,,,,,,,,,,,,,,,,,,,,,,,,,,,,,,,,,,,
,,,,,,,,,,29,same,4,0.273779233,0.054755847,magenta,1,-0.054755847,0.273779233,cyan,1,0.16426754,-0.054755847,green,1,-0.16426754,-0.054755847,black,1,0.273779233,0.16426754,orange,0,-0.16426754,0.054755847,blue,0,0.05,0.05,0.15,0.16426754,-0.054755847,green,k,132814,26,2020-08-14_16h43.17.621,CDT_GNG_IUS12,2020.1.2,Win32,60,,k,1,0.78925,0,89,89,28,1,,,,,,,,,,,,,,,,,,,,,,,,,,,,,,,,,,,,,,,,,,,,,,,,,
,,,,,,,,,,30,same,4,0.16426754,0.16426754,blue,1,0.054755847,-0.054755847,green,1,-0.273779233,-0.16426754,black,1,-0.054755847,0.273779233,yellow,1,0.16426754,0.273779233,red,0,0.16426754,-0.16426754,magenta,0,0.05,0.05,0.15,0.054755847,-0.054755847,green,k,132814,26,2020-08-14_16h43.17.621,CDT_GNG_IUS12,2020.1.2,Win32,60,,k,1,0.56989,0,90,90,29,1,,,,,,,,,,,,,,,,,,,,,,,,,,,,,,,,,,,,,,,,,,,,,,,,,
,,,,,,,,,,52,different,4,-0.273779233,-0.16426754,magenta,1,-0.273779233,0.054755847,green,1,0.273779233,-0.054755847,cyan,1,0.273779233,0.054755847,black,1,-0.16426754,-0.16426754,orange,0,-0.054755847,0.054755847,red,0,0.05,0.05,0.15,-0.273779233,-0.16426754,black,l,132814,26,2020-08-14_16h43.17.621,CDT_GNG_IUS12,2020.1.2,Win32,60,,l,1,0.70607,0,91,91,51,1,,,,,,,,,,,,,,,,,,,,,,,,,,,,,,,,,,,,,,,,,,,,,,,,,
,,,,,,,,,,22,same,4,-0.054755847,-0.16426754,green,1,-0.16426754,0.054755847,blue,1,0.16426754,0.16426754,yellow,1,0.273779233,-0.054755847,black,1,-0.273779233,-0.054755847,red,0,-0.054755847,0.16426754,cyan,0,0.05,0.05,0.15,0.273779233,-0.054755847,black,k,132814,26,2020-08-14_16h43.17.621,CDT_GNG_IUS12,2020.1.2,Win32,60,,l,0,0.60637,0,92,92,21,1,,,,,,,,,,,,,,,,,,,,,,,,,,,,,,,,,,,,,,,,,,,,,,,,,
,,,,,,,,,,94,different,6,0.273779233,-0.273779233,green,1,-0.16426754,-0.054755847,black,1,-0.273779233,0.16426754,blue,1,0.273779233,0.054755847,cyan,1,0.16426754,-0.16426754,magenta,1,-0.054755847,-0.054755847,orange,1,0.05,0.05,0.15,0.273779233,-0.273779233,magenta,l,132814,26,2020-08-14_16h43.17.621,CDT_GNG_IUS12,2020.1.2,Win32,60,,l,1,0.68758,0,93,93,93,1,,,,,,,,,,,,,,,,,,,,,,,,,,,,,,,,,,,,,,,,,,,,,,,,,
,,,,,,,,,,116,different,6,-0.273779233,0.16426754,green,1,-0.054755847,-0.054755847,orange,1,0.273779233,-0.273779233,cyan,1,0.054755847,0.273779233,red,1,-0.054755847,0.16426754,blue,1,-0.16426754,-0.054755847,yellow,1,0.05,0.05,0.15,-0.054755847,-0.054755847,magenta,l,132814,26,2020-08-14_16h43.17.621,CDT_GNG_IUS12,2020.1.2,Win32,60,,k,0,1.33416,0,94,94,115,1,,,,,,,,,,,,,,,,,,,,,,,,,,,,,,,,,,,,,,,,,,,,,,,,,
,,,,,,,,,,105,different,6,0.054755847,0.273779233,cyan,1,0.273779233,-0.16426754,magenta,1,-0.16426754,-0.054755847,yellow,1,-0.16426754,0.16426754,blue,1,0.273779233,0.16426754,orange,1,0.16426754,-0.273779233,green,1,0.05,0.05,0.15,0.16426754,-0.273779233,blue,l,132814,26,2020-08-14_16h43.17.621,CDT_GNG_IUS12,2020.1.2,Win32,60,,l,1,0.50882,0,95,95,104,1,,,,,,,,,,,,,,,,,,,,,,,,,,,,,,,,,,,,,,,,,,,,,,,,,
,,,,,,,,,,102,different,6,-0.273779233,-0.273779233,magenta,1,0.054755847,0.16426754,green,1,0.16426754,-0.273779233,yellow,1,-0.16426754,0.054755847,orange,1,-0.16426754,-0.273779233,red,1,0.273779233,0.054755847,cyan,1,0.05,0.05,0.15,-0.273779233,-0.273779233,yellow,l,132814,26,2020-08-14_16h43.17.621,CDT_GNG_IUS12,2020.1.2,Win32,60,,l,1,0.57542,0,96,96,101,1,,,,,,,,,,,,,,,,,,,,,,,,,,,,,,,,,,,,,,,,,,,,,,,,,
,,,,,,,,,,98,different,6,-0.054755847,-0.16426754,magenta,1,0.273779233,0.273779233,green,1,0.273779233,-0.273779233,red,1,-0.16426754,0.273779233,blue,1,-0.273779233,-0.16426754,cyan,1,0.273779233,0.054755847,black,1,0.05,0.05,0.15,-0.16426754,0.273779233,cyan,l,132814,26,2020-08-14_16h43.17.621,CDT_GNG_IUS12,2020.1.2,Win32,60,,l,1,0.885445,0,97,97,97,1,,,,,,,,,,,,,,,,,,,,,,,,,,,,,,,,,,,,,,,,,,,,,,,,,
,,,,,,,,,,39,different,4,0.054755847,0.054755847,green,1,0.273779233,-0.16426754,yellow,1,-0.16426754,0.054755847,orange,1,-0.273779233,-0.054755847,red,1,0.273779233,0.054755847,blue,0,0.054755847,-0.16426754,cyan,0,0.05,0.05,0.15,-0.273779233,-0.054755847,cyan,l,132814,26,2020-08-14_16h43.17.621,CDT_GNG_IUS12,2020.1.2,Win32,60,,l,1,0.751585,0,98,98,38,1,,,,,,,,,,,,,,,,,,,,,,,,,,,,,,,,,,,,,,,,,,,,,,,,,
,,,,,,,,,,78,same,6,0.054755847,0.054755847,black,1,-0.054755847,0.16426754,red,1,0.273779233,-0.273779233,blue,1,-0.054755847,-0.054755847,magenta,1,0.16426754,0.054755847,yellow,1,-0.273779233,0.16426754,cyan,1,0.05,0.05,0.15,-0.054755847,0.16426754,red,k,132814,26,2020-08-14_16h43.17.621,CDT_GNG_IUS12,2020.1.2,Win32,60,,l,0,0.441365,0,99,99,77,1,,,,,,,,,,,,,,,,,,,,,,,,,,,,,,,,,,,,,,,,,,,,,,,,,
,,,,,,,,,,92,different,6,0.16426754,0.16426754,green,1,-0.054755847,-0.054755847,cyan,1,-0.054755847,0.054755847,red,1,0.16426754,-0.054755847,magenta,1,0.054755847,0.16426754,orange,1,-0.273779233,-0.16426754,yellow,1,0.05,0.05,0.15,0.16426754,0.16426754,cyan,l,132814,26,2020-08-14_16h43.17.621,CDT_GNG_IUS12,2020.1.2,Win32,60,,l,1,0.555245,0,100,100,91,1,,,,,,,,,,,,,,,,,,,,,,,,,,,,,,,,,,,,,,,,,,,,,,,,,
,,,,,,,,,,35,different,4,-0.054755847,-0.054755847,black,1,0.054755847,0.273779233,magenta,1,-0.273779233,0.054755847,blue,1,0.273779233,-0.054755847,red,1,-0.054755847,-0.16426754,cyan,0,0.054755847,0.054755847,yellow,0,0.05,0.05,0.15,0.054755847,0.273779233,cyan,l,132814,26,2020-08-14_16h43.17.621,CDT_GNG_IUS12,2020.1.2,Win32,60,,l,1,1.12808,0,101,101,34,1,,,,,,,,,,,,,,,,,,,,,,,,,,,,,,,,,,,,,,,,,,,,,,,,,
,,,,,,,,,,60,different,4,0.273779233,0.273779233,red,1,-0.273779233,-0.054755847,blue,1,-0.273779233,0.054755847,magenta,1,0.054755847,-0.273779233,black,1,0.273779233,0.054755847,orange,0,-0.054755847,-0.16426754,yellow,0,0.05,0.05,0.15,-0.273779233,0.054755847,yellow,l,132814,26,2020-08-14_16h43.17.621,CDT_GNG_IUS12,2020.1.2,Win32,60,,l,1,0.509065,0,102,102,59,1,,,,,,,,,,,,,,,,,,,,,,,,,,,,,,,,,,,,,,,,,,,,,,,,,
,,,,,,,,,,79,same,6,0.054755847,-0.16426754,black,1,-0.054755847,-0.273779233,yellow,1,-0.273779233,0.273779233,red,1,0.054755847,0.054755847,magenta,1,0.16426754,-0.054755847,cyan,1,-0.16426754,-0.054755847,orange,1,0.05,0.05,0.15,0.054755847,0.054755847,magenta,k,132814,26,2020-08-14_16h43.17.621,CDT_GNG_IUS12,2020.1.2,Win32,60,,l,0,0.47214,0,103,103,78,1,,,,,,,,,,,,,,,,,,,,,,,,,,,,,,,,,,,,,,,,,,,,,,,,,
,,,,,,,,,,90,same,6,0.16426754,-0.054755847,black,1,-0.273779233,-0.054755847,orange,1,-0.16426754,0.16426754,cyan,1,0.273779233,0.273779233,blue,1,0.054755847,-0.054755847,magenta,1,-0.273779233,-0.273779233,yellow,1,0.05,0.05,0.15,-0.273779233,-0.054755847,orange,k,132814,26,2020-08-14_16h43.17.621,CDT_GNG_IUS12,2020.1.2,Win32,60,,l,0,0.46682,0,104,104,89,1,,,,,,,,,,,,,,,,,,,,,,,,,,,,,,,,,,,,,,,,,,,,,,,,,
,,,,,,,,,,119,different,6,-0.273779233,0.054755847,cyan,1,-0.273779233,-0.273779233,blue,1,0.16426754,0.054755847,orange,1,0.054755847,-0.16426754,yellow,1,-0.273779233,0.273779233,black,1,-0.054755847,-0.054755847,green,1,0.05,0.05,0.15,-0.273779233,-0.273779233,cyan,l,132814,26,2020-08-14_16h43.17.621,CDT_GNG_IUS12,2020.1.2,Win32,60,,k,0,1.11695,0,105,105,118,1,,,,,,,,,,,,,,,,,,,,,,,,,,,,,,,,,,,,,,,,,,,,,,,,,
,,,,,,,,,,107,different,6,0.273779233,0.16426754,cyan,1,-0.16426754,-0.273779233,magenta,1,-0.054755847,0.054755847,black,1,0.16426754,-0.054755847,blue,1,0.16426754,0.054755847,green,1,-0.273779233,-0.16426754,yellow,1,0.05,0.05,0.15,0.16426754,0.054755847,blue,l,132814,26,2020-08-14_16h43.17.621,CDT_GNG_IUS12,2020.1.2,Win32,60,,l,1,0.701445,0,106,106,106,1,,,,,,,,,,,,,,,,,,,,,,,,,,,,,,,,,,,,,,,,,,,,,,,,,
,,,,,,,,,,36,different,4,-0.16426754,-0.054755847,cyan,1,0.16426754,0.054755847,red,1,0.16426754,-0.054755847,black,1,-0.273779233,0.273779233,orange,1,-0.054755847,-0.054755847,yellow,0,0.273779233,0.273779233,green,0,0.05,0.05,0.15,0.16426754,-0.054755847,orange,l,132814,26,2020-08-14_16h43.17.621,CDT_GNG_IUS12,2020.1.2,Win32,60,,l,1,0.36349,0,107,107,35,1,,,,,,,,,,,,,,,,,,,,,,,,,,,,,,,,,,,,,,,,,,,,,,,,,
,,,,,,,,,,76,same,6,0.16426754,0.054755847,cyan,1,0.273779233,-0.273779233,red,1,-0.054755847,-0.273779233,magenta,1,-0.054755847,0.16426754,yellow,1,0.054755847,0.273779233,blue,1,0.054755847,-0.273779233,green,1,0.05,0.05,0.15,0.16426754,0.054755847,cyan,k,132814,26,2020-08-14_16h43.17.621,CDT_GNG_IUS12,2020.1.2,Win32,60,,l,0,0.58332,0,108,108,75,1,,,,,,,,,,,,,,,,,,,,,,,,,,,,,,,,,,,,,,,,,,,,,,,,,
,,,,,,,,,,74,same,6,-0.273779233,-0.273779233,magenta,1,0.16426754,0.054755847,cyan,1,-0.16426754,0.273779233,black,1,0.273779233,-0.054755847,yellow,1,-0.16426754,-0.16426754,red,1,0.054755847,0.273779233,green,1,0.05,0.05,0.15,-0.16426754,-0.16426754,red,k,132814,26,2020-08-14_16h43.17.621,CDT_GNG_IUS12,2020.1.2,Win32,60,,k,1,0.42718,0,109,109,73,1,,,,,,,,,,,,,,,,,,,,,,,,,,,,,,,,,,,,,,,,,,,,,,,,,
,,,,,,,,,,64,same,6,0.16426754,0.273779233,black,1,-0.16426754,-0.16426754,orange,1,0.16426754,-0.16426754,red,1,-0.273779233,0.054755847,magenta,1,0.054755847,0.16426754,cyan,1,-0.054755847,-0.16426754,yellow,1,0.05,0.05,0.15,0.16426754,0.273779233,black,k,132814,26,2020-08-14_16h43.17.621,CDT_GNG_IUS12,2020.1.2,Win32,60,,l,0,0.416155,0,110,110,63,1,,,,,,,,,,,,,,,,,,,,,,,,,,,,,,,,,,,,,,,,,,,,,,,,,
,,,,,,,,,,100,different,6,0.273779233,0.16426754,blue,1,-0.054755847,0.054755847,magenta,1,-0.273779233,-0.054755847,orange,1,0.273779233,-0.273779233,red,1,0.16426754,0.054755847,green,1,-0.273779233,0.054755847,yellow,1,0.05,0.05,0.15,0.273779233,0.16426754,orange,l,132814,26,2020-08-14_16h43.17.621,CDT_GNG_IUS12,2020.1.2,Win32,60,,l,1,0.55574,0,111,111,99,1,,,,,,,,,,,,,,,,,,,,,,,,,,,,,,,,,,,,,,,,,,,,,,,,,
,,,,,,,,,,72,same,6,0.273779233,-0.16426754,blue,1,0.16426754,0.273779233,yellow,1,-0.16426754,0.273779233,magenta,1,-0.273779233,-0.054755847,orange,1,0.054755847,-0.16426754,cyan,1,0.273779233,0.054755847,black,1,0.05,0.05,0.15,-0.16426754,0.273779233,magenta,k,132814,26,2020-08-14_16h43.17.621,CDT_GNG_IUS12,2020.1.2,Win32,60,,l,0,0.55816,0,112,112,71,1,,,,,,,,,,,,,,,,,,,,,,,,,,,,,,,,,,,,,,,,,,,,,,,,,
,,,,,,,,,,34,different,4,0.16426754,0.16426754,yellow,1,0.273779233,-0.16426754,cyan,1,-0.273779233,-0.273779233,magenta,1,-0.273779233,0.16426754,green,1,0.054755847,0.054755847,black,0,0.273779233,-0.273779233,orange,0,0.05,0.05,0.15,0.16426754,0.16426754,cyan,l,132814,26,2020-08-14_16h43.17.621,CDT_GNG_IUS12,2020.1.2,Win32,60,,l,1,0.45276,0,113,113,33,1,,,,,,,,,,,,,,,,,,,,,,,,,,,,,,,,,,,,,,,,,,,,,,,,,
,,,,,,,,,,47,different,4,-0.16426754,-0.054755847,orange,1,0.273779233,0.054755847,black,1,-0.16426754,0.16426754,red,1,0.273779233,-0.16426754,blue,1,-0.054755847,-0.273779233,green,0,0.16426754,0.16426754,yellow,0,0.05,0.05,0.15,0.273779233,0.054755847,red,l,132814,26,2020-08-14_16h43.17.621,CDT_GNG_IUS12,2020.1.2,Win32,60,,l,1,0.5111,0,114,114,46,1,,,,,,,,,,,,,,,,,,,,,,,,,,,,,,,,,,,,,,,,,,,,,,,,,
,,,,,,,,,,85,same,6,-0.16426754,-0.273779233,black,1,-0.16426754,0.16426754,green,1,0.16426754,-0.054755847,blue,1,0.054755847,0.054755847,magenta,1,-0.16426754,-0.054755847,red,1,-0.054755847,0.054755847,yellow,1,0.05,0.05,0.15,-0.16426754,-0.273779233,black,k,132814,26,2020-08-14_16h43.17.621,CDT_GNG_IUS12,2020.1.2,Win32,60,,l,0,0.52786,0,115,115,84,1,,,,,,,,,,,,,,,,,,,,,,,,,,,,,,,,,,,,,,,,,,,,,,,,,
,,,,,,,,,,91,different,6,-0.054755847,0.054755847,green,1,0.054755847,-0.16426754,cyan,1,-0.054755847,-0.054755847,black,1,0.16426754,0.273779233,yellow,1,-0.273779233,0.273779233,magenta,1,0.16426754,-0.054755847,red,1,0.05,0.05,0.15,0.16426754,-0.054755847,green,l,132814,26,2020-08-14_16h43.17.621,CDT_GNG_IUS12,2020.1.2,Win32,60,,l,1,0.48883,0,116,116,90,1,,,,,,,,,,,,,,,,,,,,,,,,,,,,,,,,,,,,,,,,,,,,,,,,,
,,,,,,,,,,32,different,4,-0.054755847,-0.273779233,green,1,-0.273779233,0.16426754,black,1,0.16426754,0.16426754,cyan,1,0.273779233,-0.16426754,yellow,1,-0.054755847,-0.054755847,blue,0,-0.054755847,0.273779233,orange,0,0.05,0.05,0.15,-0.054755847,-0.273779233,red,l,132814,26,2020-08-14_16h43.17.621,CDT_GNG_IUS12,2020.1.2,Win32,60,,l,1,0.39976,0,117,117,31,1,,,,,,,,,,,,,,,,,,,,,,,,,,,,,,,,,,,,,,,,,,,,,,,,,
,,,,,,,,,,115,different,6,-0.16426754,0.273779233,magenta,1,-0.273779233,-0.054755847,blue,1,0.273779233,0.273779233,red,1,0.054755847,-0.273779233,cyan,1,-0.054755847,0.16426754,green,1,-0.273779233,-0.273779233,yellow,1,0.05,0.05,0.15,-0.273779233,-0.054755847,yellow,l,132814,26,2020-08-14_16h43.17.621,CDT_GNG_IUS12,2020.1.2,Win32,60,,l,1,0.39965,0,118,118,114,1,,,,,,,,,,,,,,,,,,,,,,,,,,,,,,,,,,,,,,,,,,,,,,,,,
,,,,,,,,,,11,same,4,0.273779233,0.16426754,black,1,-0.054755847,0.273779233,cyan,1,0.16426754,-0.054755847,blue,1,-0.273779233,-0.16426754,orange,1,0.054755847,0.273779233,magenta,0,-0.273779233,0.054755847,green,0,0.05,0.05,0.15,0.273779233,0.16426754,black,k,132814,26,2020-08-14_16h43.17.621,CDT_GNG_IUS12,2020.1.2,Win32,60,,l,0,0.391325,0,119,119,10,1,,,,,,,,,,,,,,,,,,,,,,,,,,,,,,,,,,,,,,,,,,,,,,,,,
,,,,,,,,,,,,,,,,,,,,,,,,,,,,,,,,,,,,,,,,,,,,132814,26,2020-08-14_16h43.17.621,CDT_GNG_IUS12,2020.1.2,Win32,60,,,,,,,,,,,,1,0,0,0,2,1,1,0,,,,,,,,,,,,,,,,,,,,,,,,,,,,,,,,,,,,,,,
,,,,,,,,,,,,,,,,,,,,,,,,,,,,,,,,,,,,,,,,,,,space,132814,26,2020-08-14_16h43.17.621,CDT_GNG_IUS12,2020.1.2,Win32,60,,,,,,,,,,,space,1,0,1,1,4,1,0,1,0.282915,,,,,,,,,,,,,,,,,,,,,,,,,,,,,,,,,,,,,,
,,,,,,,,,,,,,,,,,,,,,,,,,,,,,,,,,,,,,,,,,,,space,132814,26,2020-08-14_16h43.17.621,CDT_GNG_IUS12,2020.1.2,Win32,60,,,,,,,,,,,space,1,0,2,2,5,1,0,1,0.291315,,,,,,,,,,,,,,,,,,,,,,,,,,,,,,,,,,,,,,
,,,,,,,,,,,,,,,,,,,,,,,,,,,,,,,,,,,,,,,,,,,,132814,26,2020-08-14_16h43.17.621,CDT_GNG_IUS12,2020.1.2,Win32,60,,,,,,,,,,,,1,0,3,3,0,1,1,0,,,,,,,,,,,,,,,,,,,,,,,,,,,,,,,,,,,,,,,
,,,,,,,,,,,,,,,,,,,,,,,,,,,,,,,,,,,,,,,,,,,space,132814,26,2020-08-14_16h43.17.621,CDT_GNG_IUS12,2020.1.2,Win32,60,,,,,,,,,,,space,1,0,4,4,6,1,0,1,0.23537,,,,,,,,,,,,,,,,,,,,,,,,,,,,,,,,,,,,,,
,,,,,,,,,,,,,,,,,,,,,,,,,,,,,,,,,,,,,,,,,,,,132814,26,2020-08-14_16h43.17.621,CDT_GNG_IUS12,2020.1.2,Win32,60,,,,,,,,,,,,1,0,5,5,3,1,1,0,,,,,,,,,,,,,,,,,,,,,,,,,,,,,,,,,,,,,,,
,,,,,,,,,,,,,,,,,,,,,,,,,,,,,,,,,,,,,,,,,,,,132814,26,2020-08-14_16h43.17.621,CDT_GNG_IUS12,2020.1.2,Win32,60,,,,,,,,,,,space,0,0,6,6,1,1,1,0,0.250995,,,,,,,,,,,,,,,,,,,,,,,,,,,,,,,,,,,,,,
,,,,,,,,,,,,,,,,,,,,,,,,,,,,,,,,,,,,,,,,,,,space,132814,26,2020-08-14_16h43.17.621,CDT_GNG_IUS12,2020.1.2,Win32,60,,,,,,,,,,,space,1,0,7,7,7,1,0,1,0.26627,,,,,,,,,,,,,,,,,,,,,,,,,,,,,,,,,,,,,,
,,,,,,,,,,,,,,,,,,,,,,,,,,,,,,,,,,,,,,,,,,,space,132814,26,2020-08-14_16h43.17.621,CDT_GNG_IUS12,2020.1.2,Win32,60,,,,,,,,,,,,,,,,,,0,1,,space,1,0.330985,0,0,0,25,1,,,,,,,,,,,,,,,,,,,,,,,,,,,,,,
,,,,,,,,,,,,,,,,,,,,,,,,,,,,,,,,,,,,,,,,,,,space,132814,26,2020-08-14_16h43.17.621,CDT_GNG_IUS12,2020.1.2,Win32,60,,,,,,,,,,,,,,,,,,0,1,,space,1,0.298015,0,1,1,40,1,,,,,,,,,,,,,,,,,,,,,,,,,,,,,,
,,,,,,,,,,,,,,,,,,,,,,,,,,,,,,,,,,,,,,,,,,,space,132814,26,2020-08-14_16h43.17.621,CDT_GNG_IUS12,2020.1.2,Win32,60,,,,,,,,,,,,,,,,,,0,1,,space,1,0.25854,0,2,2,34,1,,,,,,,,,,,,,,,,,,,,,,,,,,,,,,
,,,,,,,,,,,,,,,,,,,,,,,,,,,,,,,,,,,,,,,,,,,space,132814,26,2020-08-14_16h43.17.621,CDT_GNG_IUS12,2020.1.2,Win32,60,,,,,,,,,,,,,,,,,,0,1,,space,1,0.222335,0,3,3,27,1,,,,,,,,,,,,,,,,,,,,,,,,,,,,,,
,,,,,,,,,,,,,,,,,,,,,,,,,,,,,,,,,,,,,,,,,,,space,132814,26,2020-08-14_16h43.17.621,CDT_GNG_IUS12,2020.1.2,Win32,60,,,,,,,,,,,,,,,,,,0,1,,space,1,0.23113,0,4,4,43,1,,,,,,,,,,,,,,,,,,,,,,,,,,,,,,
,,,,,,,,,,,,,,,,,,,,,,,,,,,,,,,,,,,,,,,,,,,space,132814,26,2020-08-14_16h43.17.621,CDT_GNG_IUS12,2020.1.2,Win32,60,,,,,,,,,,,,,,,,,,0,1,,space,1,0.24141,0,5,5,16,1,,,,,,,,,,,,,,,,,,,,,,,,,,,,,,
,,,,,,,,,,,,,,,,,,,,,,,,,,,,,,,,,,,,,,,,,,,,132814,26,2020-08-14_16h43.17.621,CDT_GNG_IUS12,2020.1.2,Win32,60,,,,,,,,,,,,,,,,,,1,0,,space,0,0.253105,0,6,6,8,1,,,,,,,,,,,,,,,,,,,,,,,,,,,,,,
,,,,,,,,,,,,,,,,,,,,,,,,,,,,,,,,,,,,,,,,,,,space,132814,26,2020-08-14_16h43.17.621,CDT_GNG_IUS12,2020.1.2,Win32,60,,,,,,,,,,,,,,,,,,0,1,,space,1,0.251395,0,7,7,13,1,,,,,,,,,,,,,,,,,,,,,,,,,,,,,,
,,,,,,,,,,,,,,,,,,,,,,,,,,,,,,,,,,,,,,,,,,,,132814,26,2020-08-14_16h43.17.621,CDT_GNG_IUS12,2020.1.2,Win32,60,,,,,,,,,,,,,,,,,,1,0,,,1,,0,8,8,7,1,,,,,,,,,,,,,,,,,,,,,,,,,,,,,,
,,,,,,,,,,,,,,,,,,,,,,,,,,,,,,,,,,,,,,,,,,,space,132814,26,2020-08-14_16h43.17.621,CDT_GNG_IUS12,2020.1.2,Win32,60,,,,,,,,,,,,,,,,,,0,1,,space,1,0.48338,0,9,9,10,1,,,,,,,,,,,,,,,,,,,,,,,,,,,,,,
,,,,,,,,,,,,,,,,,,,,,,,,,,,,,,,,,,,,,,,,,,,space,132814,26,2020-08-14_16h43.17.621,CDT_GNG_IUS12,2020.1.2,Win32,60,,,,,,,,,,,,,,,,,,0,1,,space,1,0.389485,0,10,10,11,1,,,,,,,,,,,,,,,,,,,,,,,,,,,,,,
,,,,,,,,,,,,,,,,,,,,,,,,,,,,,,,,,,,,,,,,,,,space,132814,26,2020-08-14_16h43.17.621,CDT_GNG_IUS12,2020.1.2,Win32,60,,,,,,,,,,,,,,,,,,0,1,,space,1,0.26459,0,11,11,37,1,,,,,,,,,,,,,,,,,,,,,,,,,,,,,,
,,,,,,,,,,,,,,,,,,,,,,,,,,,,,,,,,,,,,,,,,,,,132814,26,2020-08-14_16h43.17.621,CDT_GNG_IUS12,2020.1.2,Win32,60,,,,,,,,,,,,,,,,,,1,0,,space,0,0.277345,0,12,12,9,1,,,,,,,,,,,,,,,,,,,,,,,,,,,,,,
,,,,,,,,,,,,,,,,,,,,,,,,,,,,,,,,,,,,,,,,,,,,132814,26,2020-08-14_16h43.17.621,CDT_GNG_IUS12,2020.1.2,Win32,60,,,,,,,,,,,,,,,,,,1,0,,space,0,0.20328,0,13,13,3,1,,,,,,,,,,,,,,,,,,,,,,,,,,,,,,
,,,,,,,,,,,,,,,,,,,,,,,,,,,,,,,,,,,,,,,,,,,space,132814,26,2020-08-14_16h43.17.621,CDT_GNG_IUS12,2020.1.2,Win32,60,,,,,,,,,,,,,,,,,,0,1,,space,1,0.344695,0,14,14,29,1,,,,,,,,,,,,,,,,,,,,,,,,,,,,,,
,,,,,,,,,,,,,,,,,,,,,,,,,,,,,,,,,,,,,,,,,,,,132814,26,2020-08-14_16h43.17.621,CDT_GNG_IUS12,2020.1.2,Win32,60,,,,,,,,,,,,,,,,,,1,0,,,1,,0,15,15,2,1,,,,,,,,,,,,,,,,,,,,,,,,,,,,,,
,,,,,,,,,,,,,,,,,,,,,,,,,,,,,,,,,,,,,,,,,,,,132814,26,2020-08-14_16h43.17.621,CDT_GNG_IUS12,2020.1.2,Win32,60,,,,,,,,,,,,,,,,,,1,0,,,1,,0,16,16,4,1,,,,,,,,,,,,,,,,,,,,,,,,,,,,,,
,,,,,,,,,,,,,,,,,,,,,,,,,,,,,,,,,,,,,,,,,,,space,132814,26,2020-08-14_16h43.17.621,CDT_GNG_IUS12,2020.1.2,Win32,60,,,,,,,,,,,,,,,,,,0,1,,space,1,0.229645,0,17,17,46,1,,,,,,,,,,,,,,,,,,,,,,,,,,,,,,
,,,,,,,,,,,,,,,,,,,,,,,,,,,,,,,,,,,,,,,,,,,space,132814,26,2020-08-14_16h43.17.621,CDT_GNG_IUS12,2020.1.2,Win32,60,,,,,,,,,,,,,,,,,,0,1,,space,1,0.24908,0,18,18,31,1,,,,,,,,,,,,,,,,,,,,,,,,,,,,,,
,,,,,,,,,,,,,,,,,,,,,,,,,,,,,,,,,,,,,,,,,,,space,132814,26,2020-08-14_16h43.17.621,CDT_GNG_IUS12,2020.1.2,Win32,60,,,,,,,,,,,,,,,,,,0,1,,space,1,0.240925,0,19,19,23,1,,,,,,,,,,,,,,,,,,,,,,,,,,,,,,
,,,,,,,,,,,,,,,,,,,,,,,,,,,,,,,,,,,,,,,,,,,space,132814,26,2020-08-14_16h43.17.621,CDT_GNG_IUS12,2020.1.2,Win32,60,,,,,,,,,,,,,,,,,,0,1,,space,1,0.28773,0,20,20,26,1,,,,,,,,,,,,,,,,,,,,,,,,,,,,,,
,,,,,,,,,,,,,,,,,,,,,,,,,,,,,,,,,,,,,,,,,,,space,132814,26,2020-08-14_16h43.17.621,CDT_GNG_IUS12,2020.1.2,Win32,60,,,,,,,,,,,,,,,,,,0,1,,space,1,0.248495,0,21,21,49,1,,,,,,,,,,,,,,,,,,,,,,,,,,,,,,
,,,,,,,,,,,,,,,,,,,,,,,,,,,,,,,,,,,,,,,,,,,space,132814,26,2020-08-14_16h43.17.621,CDT_GNG_IUS12,2020.1.2,Win32,60,,,,,,,,,,,,,,,,,,0,1,,space,1,0.28899,0,22,22,14,1,,,,,,,,,,,,,,,,,,,,,,,,,,,,,,
,,,,,,,,,,,,,,,,,,,,,,,,,,,,,,,,,,,,,,,,,,,space,132814,26,2020-08-14_16h43.17.621,CDT_GNG_IUS12,2020.1.2,Win32,60,,,,,,,,,,,,,,,,,,0,1,,space,1,0.27369,0,23,23,12,1,,,,,,,,,,,,,,,,,,,,,,,,,,,,,,
,,,,,,,,,,,,,,,,,,,,,,,,,,,,,,,,,,,,,,,,,,,space,132814,26,2020-08-14_16h43.17.621,CDT_GNG_IUS12,2020.1.2,Win32,60,,,,,,,,,,,,,,,,,,0,1,,space,1,0.24067,0,24,24,24,1,,,,,,,,,,,,,,,,,,,,,,,,,,,,,,
,,,,,,,,,,,,,,,,,,,,,,,,,,,,,,,,,,,,,,,,,,,,132814,26,2020-08-14_16h43.17.621,CDT_GNG_IUS12,2020.1.2,Win32,60,,,,,,,,,,,,,,,,,,1,0,,space,0,0.258725,0,25,25,0,1,,,,,,,,,,,,,,,,,,,,,,,,,,,,,,
,,,,,,,,,,,,,,,,,,,,,,,,,,,,,,,,,,,,,,,,,,,space,132814,26,2020-08-14_16h43.17.621,CDT_GNG_IUS12,2020.1.2,Win32,60,,,,,,,,,,,,,,,,,,0,1,,space,1,0.24773,0,26,26,35,1,,,,,,,,,,,,,,,,,,,,,,,,,,,,,,
,,,,,,,,,,,,,,,,,,,,,,,,,,,,,,,,,,,,,,,,,,,space,132814,26,2020-08-14_16h43.17.621,CDT_GNG_IUS12,2020.1.2,Win32,60,,,,,,,,,,,,,,,,,,0,1,,space,1,0.26411,0,27,27,48,1,,,,,,,,,,,,,,,,,,,,,,,,,,,,,,
,,,,,,,,,,,,,,,,,,,,,,,,,,,,,,,,,,,,,,,,,,,space,132814,26,2020-08-14_16h43.17.621,CDT_GNG_IUS12,2020.1.2,Win32,60,,,,,,,,,,,,,,,,,,0,1,,space,1,0.27102,0,28,28,20,1,,,,,,,,,,,,,,,,,,,,,,,,,,,,,,
,,,,,,,,,,,,,,,,,,,,,,,,,,,,,,,,,,,,,,,,,,,,132814,26,2020-08-14_16h43.17.621,CDT_GNG_IUS12,2020.1.2,Win32,60,,,,,,,,,,,,,,,,,,1,0,,space,0,0.247795,0,29,29,6,1,,,,,,,,,,,,,,,,,,,,,,,,,,,,,,
,,,,,,,,,,,,,,,,,,,,,,,,,,,,,,,,,,,,,,,,,,,space,132814,26,2020-08-14_16h43.17.621,CDT_GNG_IUS12,2020.1.2,Win32,60,,,,,,,,,,,,,,,,,,0,1,,space,1,0.24796,0,30,30,21,1,,,,,,,,,,,,,,,,,,,,,,,,,,,,,,
,,,,,,,,,,,,,,,,,,,,,,,,,,,,,,,,,,,,,,,,,,,space,132814,26,2020-08-14_16h43.17.621,CDT_GNG_IUS12,2020.1.2,Win32,60,,,,,,,,,,,,,,,,,,0,1,,space,1,0.221415,0,31,31,22,1,,,,,,,,,,,,,,,,,,,,,,,,,,,,,,
,,,,,,,,,,,,,,,,,,,,,,,,,,,,,,,,,,,,,,,,,,,space,132814,26,2020-08-14_16h43.17.621,CDT_GNG_IUS12,2020.1.2,Win32,60,,,,,,,,,,,,,,,,,,0,1,,space,1,0.25567,0,32,32,41,1,,,,,,,,,,,,,,,,,,,,,,,,,,,,,,
,,,,,,,,,,,,,,,,,,,,,,,,,,,,,,,,,,,,,,,,,,,,132814,26,2020-08-14_16h43.17.621,CDT_GNG_IUS12,2020.1.2,Win32,60,,,,,,,,,,,,,,,,,,1,0,,,1,,0,33,33,1,1,,,,,,,,,,,,,,,,,,,,,,,,,,,,,,
,,,,,,,,,,,,,,,,,,,,,,,,,,,,,,,,,,,,,,,,,,,space,132814,26,2020-08-14_16h43.17.621,CDT_GNG_IUS12,2020.1.2,Win32,60,,,,,,,,,,,,,,,,,,0,1,,space,1,0.191425,0,34,34,32,1,,,,,,,,,,,,,,,,,,,,,,,,,,,,,,
,,,,,,,,,,,,,,,,,,,,,,,,,,,,,,,,,,,,,,,,,,,space,132814,26,2020-08-14_16h43.17.621,CDT_GNG_IUS12,2020.1.2,Win32,60,,,,,,,,,,,,,,,,,,0,1,,space,1,0.238905,0,35,35,39,1,,,,,,,,,,,,,,,,,,,,,,,,,,,,,,
,,,,,,,,,,,,,,,,,,,,,,,,,,,,,,,,,,,,,,,,,,,space,132814,26,2020-08-14_16h43.17.621,CDT_GNG_IUS12,2020.1.2,Win32,60,,,,,,,,,,,,,,,,,,0,1,,space,1,0.281425,0,36,36,18,1,,,,,,,,,,,,,,,,,,,,,,,,,,,,,,
,,,,,,,,,,,,,,,,,,,,,,,,,,,,,,,,,,,,,,,,,,,space,132814,26,2020-08-14_16h43.17.621,CDT_GNG_IUS12,2020.1.2,Win32,60,,,,,,,,,,,,,,,,,,0,1,,space,1,0.275805,0,37,37,45,1,,,,,,,,,,,,,,,,,,,,,,,,,,,,,,
,,,,,,,,,,,,,,,,,,,,,,,,,,,,,,,,,,,,,,,,,,,space,132814,26,2020-08-14_16h43.17.621,CDT_GNG_IUS12,2020.1.2,Win32,60,,,,,,,,,,,,,,,,,,0,1,,space,1,0.27183,0,38,38,47,1,,,,,,,,,,,,,,,,,,,,,,,,,,,,,,
,,,,,,,,,,,,,,,,,,,,,,,,,,,,,,,,,,,,,,,,,,,space,132814,26,2020-08-14_16h43.17.621,CDT_GNG_IUS12,2020.1.2,Win32,60,,,,,,,,,,,,,,,,,,0,1,,space,1,0.28139,0,39,39,33,1,,,,,,,,,,,,,,,,,,,,,,,,,,,,,,
,,,,,,,,,,,,,,,,,,,,,,,,,,,,,,,,,,,,,,,,,,,,132814,26,2020-08-14_16h43.17.621,CDT_GNG_IUS12,2020.1.2,Win32,60,,,,,,,,,,,,,,,,,,1,0,,space,0,0.26431,0,40,40,5,1,,,,,,,,,,,,,,,,,,,,,,,,,,,,,,
,,,,,,,,,,,,,,,,,,,,,,,,,,,,,,,,,,,,,,,,,,,space,132814,26,2020-08-14_16h43.17.621,CDT_GNG_IUS12,2020.1.2,Win32,60,,,,,,,,,,,,,,,,,,0,1,,space,1,0.23466,0,41,41,30,1,,,,,,,,,,,,,,,,,,,,,,,,,,,,,,
,,,,,,,,,,,,,,,,,,,,,,,,,,,,,,,,,,,,,,,,,,,space,132814,26,2020-08-14_16h43.17.621,CDT_GNG_IUS12,2020.1.2,Win32,60,,,,,,,,,,,,,,,,,,0,1,,space,1,0.29029,0,42,42,44,1,,,,,,,,,,,,,,,,,,,,,,,,,,,,,,
,,,,,,,,,,,,,,,,,,,,,,,,,,,,,,,,,,,,,,,,,,,space,132814,26,2020-08-14_16h43.17.621,CDT_GNG_IUS12,2020.1.2,Win32,60,,,,,,,,,,,,,,,,,,0,1,,space,1,0.25048,0,43,43,15,1,,,,,,,,,,,,,,,,,,,,,,,,,,,,,,
,,,,,,,,,,,,,,,,,,,,,,,,,,,,,,,,,,,,,,,,,,,space,132814,26,2020-08-14_16h43.17.621,CDT_GNG_IUS12,2020.1.2,Win32,60,,,,,,,,,,,,,,,,,,0,1,,space,1,0.30708,0,44,44,19,1,,,,,,,,,,,,,,,,,,,,,,,,,,,,,,
,,,,,,,,,,,,,,,,,,,,,,,,,,,,,,,,,,,,,,,,,,,space,132814,26,2020-08-14_16h43.17.621,CDT_GNG_IUS12,2020.1.2,Win32,60,,,,,,,,,,,,,,,,,,0,1,,space,1,0.302155,0,45,45,17,1,,,,,,,,,,,,,,,,,,,,,,,,,,,,,,
,,,,,,,,,,,,,,,,,,,,,,,,,,,,,,,,,,,,,,,,,,,space,132814,26,2020-08-14_16h43.17.621,CDT_GNG_IUS12,2020.1.2,Win32,60,,,,,,,,,,,,,,,,,,0,1,,space,1,0.28418,0,46,46,28,1,,,,,,,,,,,,,,,,,,,,,,,,,,,,,,
,,,,,,,,,,,,,,,,,,,,,,,,,,,,,,,,,,,,,,,,,,,space,132814,26,2020-08-14_16h43.17.621,CDT_GNG_IUS12,2020.1.2,Win32,60,,,,,,,,,,,,,,,,,,0,1,,space,1,0.297585,0,47,47,36,1,,,,,,,,,,,,,,,,,,,,,,,,,,,,,,
,,,,,,,,,,,,,,,,,,,,,,,,,,,,,,,,,,,,,,,,,,,space,132814,26,2020-08-14_16h43.17.621,CDT_GNG_IUS12,2020.1.2,Win32,60,,,,,,,,,,,,,,,,,,0,1,,space,1,0.307505,0,48,48,42,1,,,,,,,,,,,,,,,,,,,,,,,,,,,,,,
,,,,,,,,,,,,,,,,,,,,,,,,,,,,,,,,,,,,,,,,,,,space,132814,26,2020-08-14_16h43.17.621,CDT_GNG_IUS12,2020.1.2,Win32,60,,,,,,,,,,,,,,,,,,0,1,,space,1,0.270695,0,49,49,38,1,,,,,,,,,,,,,,,,,,,,,,,,,,,,,,
,,,,,,,,,,,,,,,,,,,,,,,,,,,,,,,,,,,,,,,,,,,space,132814,26,2020-08-14_16h43.17.621,CDT_GNG_IUS12,2020.1.2,Win32,60,,,,,,,,,,,,,,,,,,0,1,,space,1,0.306505,,,,,,0,0,0,30,1,,,,,,,,,,,,,,,,,,,,,,,,,
,,,,,,,,,,,,,,,,,,,,,,,,,,,,,,,,,,,,,,,,,,,space,132814,26,2020-08-14_16h43.17.621,CDT_GNG_IUS12,2020.1.2,Win32,60,,,,,,,,,,,,,,,,,,0,1,,space,1,0.202665,,,,,,0,1,1,26,1,,,,,,,,,,,,,,,,,,,,,,,,,
,,,,,,,,,,,,,,,,,,,,,,,,,,,,,,,,,,,,,,,,,,,space,132814,26,2020-08-14_16h43.17.621,CDT_GNG_IUS12,2020.1.2,Win32,60,,,,,,,,,,,,,,,,,,0,1,,space,1,0.20663,,,,,,0,2,2,10,1,,,,,,,,,,,,,,,,,,,,,,,,,
,,,,,,,,,,,,,,,,,,,,,,,,,,,,,,,,,,,,,,,,,,,space,132814,26,2020-08-14_16h43.17.621,CDT_GNG_IUS12,2020.1.2,Win32,60,,,,,,,,,,,,,,,,,,0,1,,space,1,0.24718,,,,,,0,3,3,41,1,,,,,,,,,,,,,,,,,,,,,,,,,
,,,,,,,,,,,,,,,,,,,,,,,,,,,,,,,,,,,,,,,,,,,space,132814,26,2020-08-14_16h43.17.621,CDT_GNG_IUS12,2020.1.2,Win32,60,,,,,,,,,,,,,,,,,,0,1,,space,1,0.236865,,,,,,0,4,4,18,1,,,,,,,,,,,,,,,,,,,,,,,,,
,,,,,,,,,,,,,,,,,,,,,,,,,,,,,,,,,,,,,,,,,,,space,132814,26,2020-08-14_16h43.17.621,CDT_GNG_IUS12,2020.1.2,Win32,60,,,,,,,,,,,,,,,,,,0,1,,space,1,0.234905,,,,,,0,5,5,20,1,,,,,,,,,,,,,,,,,,,,,,,,,
,,,,,,,,,,,,,,,,,,,,,,,,,,,,,,,,,,,,,,,,,,,space,132814,26,2020-08-14_16h43.17.621,CDT_GNG_IUS12,2020.1.2,Win32,60,,,,,,,,,,,,,,,,,,0,1,,space,1,0.23865,,,,,,0,6,6,23,1,,,,,,,,,,,,,,,,,,,,,,,,,
,,,,,,,,,,,,,,,,,,,,,,,,,,,,,,,,,,,,,,,,,,,space,132814,26,2020-08-14_16h43.17.621,CDT_GNG_IUS12,2020.1.2,Win32,60,,,,,,,,,,,,,,,,,,0,1,,space,1,0.24945,,,,,,0,7,7,25,1,,,,,,,,,,,,,,,,,,,,,,,,,
,,,,,,,,,,,,,,,,,,,,,,,,,,,,,,,,,,,,,,,,,,,space,132814,26,2020-08-14_16h43.17.621,CDT_GNG_IUS12,2020.1.2,Win32,60,,,,,,,,,,,,,,,,,,0,1,,space,1,0.168305,,,,,,0,8,8,29,1,,,,,,,,,,,,,,,,,,,,,,,,,
,,,,,,,,,,,,,,,,,,,,,,,,,,,,,,,,,,,,,,,,,,,,132814,26,2020-08-14_16h43.17.621,CDT_GNG_IUS12,2020.1.2,Win32,60,,,,,,,,,,,,,,,,,,1,0,,space,0,0.20747,,,,,,0,9,9,0,1,,,,,,,,,,,,,,,,,,,,,,,,,
,,,,,,,,,,,,,,,,,,,,,,,,,,,,,,,,,,,,,,,,,,,space,132814,26,2020-08-14_16h43.17.621,CDT_GNG_IUS12,2020.1.2,Win32,60,,,,,,,,,,,,,,,,,,0,1,,space,1,0.214955,,,,,,0,10,10,14,1,,,,,,,,,,,,,,,,,,,,,,,,,
,,,,,,,,,,,,,,,,,,,,,,,,,,,,,,,,,,,,,,,,,,,space,132814,26,2020-08-14_16h43.17.621,CDT_GNG_IUS12,2020.1.2,Win32,60,,,,,,,,,,,,,,,,,,0,1,,space,1,0.317555,,,,,,0,11,11,19,1,,,,,,,,,,,,,,,,,,,,,,,,,
,,,,,,,,,,,,,,,,,,,,,,,,,,,,,,,,,,,,,,,,,,,space,132814,26,2020-08-14_16h43.17.621,CDT_GNG_IUS12,2020.1.2,Win32,60,,,,,,,,,,,,,,,,,,0,1,,space,1,0.22308,,,,,,0,12,12,17,1,,,,,,,,,,,,,,,,,,,,,,,,,
,,,,,,,,,,,,,,,,,,,,,,,,,,,,,,,,,,,,,,,,,,,,132814,26,2020-08-14_16h43.17.621,CDT_GNG_IUS12,2020.1.2,Win32,60,,,,,,,,,,,,,,,,,,1,0,,space,0,0.227215,,,,,,0,13,13,6,1,,,,,,,,,,,,,,,,,,,,,,,,,
,,,,,,,,,,,,,,,,,,,,,,,,,,,,,,,,,,,,,,,,,,,space,132814,26,2020-08-14_16h43.17.621,CDT_GNG_IUS12,2020.1.2,Win32,60,,,,,,,,,,,,,,,,,,0,1,,space,1,0.17089,,,,,,0,14,14,36,1,,,,,,,,,,,,,,,,,,,,,,,,,
,,,,,,,,,,,,,,,,,,,,,,,,,,,,,,,,,,,,,,,,,,,space,132814,26,2020-08-14_16h43.17.621,CDT_GNG_IUS12,2020.1.2,Win32,60,,,,,,,,,,,,,,,,,,0,1,,space,1,0.198955,,,,,,0,15,15,35,1,,,,,,,,,,,,,,,,,,,,,,,,,
,,,,,,,,,,,,,,,,,,,,,,,,,,,,,,,,,,,,,,,,,,,space,132814,26,2020-08-14_16h43.17.621,CDT_GNG_IUS12,2020.1.2,Win32,60,,,,,,,,,,,,,,,,,,0,1,,space,1,0.23962,,,,,,0,16,16,27,1,,,,,,,,,,,,,,,,,,,,,,,,,
,,,,,,,,,,,,,,,,,,,,,,,,,,,,,,,,,,,,,,,,,,,space,132814,26,2020-08-14_16h43.17.621,CDT_GNG_IUS12,2020.1.2,Win32,60,,,,,,,,,,,,,,,,,,0,1,,space,1,0.18941,,,,,,0,17,17,21,1,,,,,,,,,,,,,,,,,,,,,,,,,
,,,,,,,,,,,,,,,,,,,,,,,,,,,,,,,,,,,,,,,,,,,,132814,26,2020-08-14_16h43.17.621,CDT_GNG_IUS12,2020.1.2,Win32,60,,,,,,,,,,,,,,,,,,1,0,,,1,,,,,,,0,18,18,8,1,,,,,,,,,,,,,,,,,,,,,,,,,
,,,,,,,,,,,,,,,,,,,,,,,,,,,,,,,,,,,,,,,,,,,space,132814,26,2020-08-14_16h43.17.621,CDT_GNG_IUS12,2020.1.2,Win32,60,,,,,,,,,,,,,,,,,,0,1,,space,1,0.180555,,,,,,0,19,19,47,1,,,,,,,,,,,,,,,,,,,,,,,,,
,,,,,,,,,,,,,,,,,,,,,,,,,,,,,,,,,,,,,,,,,,,space,132814,26,2020-08-14_16h43.17.621,CDT_GNG_IUS12,2020.1.2,Win32,60,,,,,,,,,,,,,,,,,,0,1,,space,1,0.20435,,,,,,0,20,20,11,1,,,,,,,,,,,,,,,,,,,,,,,,,
,,,,,,,,,,,,,,,,,,,,,,,,,,,,,,,,,,,,,,,,,,,space,132814,26,2020-08-14_16h43.17.621,CDT_GNG_IUS12,2020.1.2,Win32,60,,,,,,,,,,,,,,,,,,0,1,,space,1,0.232725,,,,,,0,21,21,28,1,,,,,,,,,,,,,,,,,,,,,,,,,
,,,,,,,,,,,,,,,,,,,,,,,,,,,,,,,,,,,,,,,,,,,,132814,26,2020-08-14_16h43.17.621,CDT_GNG_IUS12,2020.1.2,Win32,60,,,,,,,,,,,,,,,,,,1,0,,space,0,0.215005,,,,,,0,22,22,3,1,,,,,,,,,,,,,,,,,,,,,,,,,
,,,,,,,,,,,,,,,,,,,,,,,,,,,,,,,,,,,,,,,,,,,space,132814,26,2020-08-14_16h43.17.621,CDT_GNG_IUS12,2020.1.2,Win32,60,,,,,,,,,,,,,,,,,,0,1,,space,1,0.12669,,,,,,0,23,23,13,1,,,,,,,,,,,,,,,,,,,,,,,,,
,,,,,,,,,,,,,,,,,,,,,,,,,,,,,,,,,,,,,,,,,,,space,132814,26,2020-08-14_16h43.17.621,CDT_GNG_IUS12,2020.1.2,Win32,60,,,,,,,,,,,,,,,,,,0,1,,space,1,0.23016,,,,,,0,24,24,40,1,,,,,,,,,,,,,,,,,,,,,,,,,
,,,,,,,,,,,,,,,,,,,,,,,,,,,,,,,,,,,,,,,,,,,space,132814,26,2020-08-14_16h43.17.621,CDT_GNG_IUS12,2020.1.2,Win32,60,,,,,,,,,,,,,,,,,,0,1,,space,1,0.227505,,,,,,0,25,25,44,1,,,,,,,,,,,,,,,,,,,,,,,,,
,,,,,,,,,,,,,,,,,,,,,,,,,,,,,,,,,,,,,,,,,,,space,132814,26,2020-08-14_16h43.17.621,CDT_GNG_IUS12,2020.1.2,Win32,60,,,,,,,,,,,,,,,,,,0,1,,space,1,0.22613,,,,,,0,26,26,38,1,,,,,,,,,,,,,,,,,,,,,,,,,
,,,,,,,,,,,,,,,,,,,,,,,,,,,,,,,,,,,,,,,,,,,space,132814,26,2020-08-14_16h43.17.621,CDT_GNG_IUS12,2020.1.2,Win32,60,,,,,,,,,,,,,,,,,,0,1,,space,1,0.215665,,,,,,0,27,27,34,1,,,,,,,,,,,,,,,,,,,,,,,,,
,,,,,,,,,,,,,,,,,,,,,,,,,,,,,,,,,,,,,,,,,,,,132814,26,2020-08-14_16h43.17.621,CDT_GNG_IUS12,2020.1.2,Win32,60,,,,,,,,,,,,,,,,,,1,0,,space,0,0.273455,,,,,,0,28,28,2,1,,,,,,,,,,,,,,,,,,,,,,,,,
,,,,,,,,,,,,,,,,,,,,,,,,,,,,,,,,,,,,,,,,,,,,132814,26,2020-08-14_16h43.17.621,CDT_GNG_IUS12,2020.1.2,Win32,60,,,,,,,,,,,,,,,,,,1,0,,space,0,0.121005,,,,,,0,29,29,5,1,,,,,,,,,,,,,,,,,,,,,,,,,
,,,,,,,,,,,,,,,,,,,,,,,,,,,,,,,,,,,,,,,,,,,space,132814,26,2020-08-14_16h43.17.621,CDT_GNG_IUS12,2020.1.2,Win32,60,,,,,,,,,,,,,,,,,,0,1,,space,1,0.281795,,,,,,0,30,30,49,1,,,,,,,,,,,,,,,,,,,,,,,,,
,,,,,,,,,,,,,,,,,,,,,,,,,,,,,,,,,,,,,,,,,,,space,132814,26,2020-08-14_16h43.17.621,CDT_GNG_IUS12,2020.1.2,Win32,60,,,,,,,,,,,,,,,,,,0,1,,space,1,0.258085,,,,,,0,31,31,42,1,,,,,,,,,,,,,,,,,,,,,,,,,
,,,,,,,,,,,,,,,,,,,,,,,,,,,,,,,,,,,,,,,,,,,,132814,26,2020-08-14_16h43.17.621,CDT_GNG_IUS12,2020.1.2,Win32,60,,,,,,,,,,,,,,,,,,1,0,,,1,,,,,,,0,32,32,7,1,,,,,,,,,,,,,,,,,,,,,,,,,
,,,,,,,,,,,,,,,,,,,,,,,,,,,,,,,,,,,,,,,,,,,,132814,26,2020-08-14_16h43.17.621,CDT_GNG_IUS12,2020.1.2,Win32,60,,,,,,,,,,,,,,,,,,1,0,,space,0,0.139795,,,,,,0,33,33,9,1,,,,,,,,,,,,,,,,,,,,,,,,,
,,,,,,,,,,,,,,,,,,,,,,,,,,,,,,,,,,,,,,,,,,,space,132814,26,2020-08-14_16h43.17.621,CDT_GNG_IUS12,2020.1.2,Win32,60,,,,,,,,,,,,,,,,,,0,1,,space,1,0.316565,,,,,,0,34,34,12,1,,,,,,,,,,,,,,,,,,,,,,,,,
,,,,,,,,,,,,,,,,,,,,,,,,,,,,,,,,,,,,,,,,,,,space,132814,26,2020-08-14_16h43.17.621,CDT_GNG_IUS12,2020.1.2,Win32,60,,,,,,,,,,,,,,,,,,0,1,,space,1,0.233725,,,,,,0,35,35,24,1,,,,,,,,,,,,,,,,,,,,,,,,,
,,,,,,,,,,,,,,,,,,,,,,,,,,,,,,,,,,,,,,,,,,,space,132814,26,2020-08-14_16h43.17.621,CDT_GNG_IUS12,2020.1.2,Win32,60,,,,,,,,,,,,,,,,,,0,1,,,0,,,,,,,0,36,36,31,1,,,,,,,,,,,,,,,,,,,,,,,,,
,,,,,,,,,,,,,,,,,,,,,,,,,,,,,,,,,,,,,,,,,,,space,132814,26,2020-08-14_16h43.17.621,CDT_GNG_IUS12,2020.1.2,Win32,60,,,,,,,,,,,,,,,,,,0,1,,space,1,0.20972,,,,,,0,37,37,32,1,,,,,,,,,,,,,,,,,,,,,,,,,
,,,,,,,,,,,,,,,,,,,,,,,,,,,,,,,,,,,,,,,,,,,,132814,26,2020-08-14_16h43.17.621,CDT_GNG_IUS12,2020.1.2,Win32,60,,,,,,,,,,,,,,,,,,1,0,,space,0,0.23147,,,,,,0,38,38,1,1,,,,,,,,,,,,,,,,,,,,,,,,,
,,,,,,,,,,,,,,,,,,,,,,,,,,,,,,,,,,,,,,,,,,,space,132814,26,2020-08-14_16h43.17.621,CDT_GNG_IUS12,2020.1.2,Win32,60,,,,,,,,,,,,,,,,,,0,1,,space,1,0.259205,,,,,,0,39,39,16,1,,,,,,,,,,,,,,,,,,,,,,,,,
,,,,,,,,,,,,,,,,,,,,,,,,,,,,,,,,,,,,,,,,,,,space,132814,26,2020-08-14_16h43.17.621,CDT_GNG_IUS12,2020.1.2,Win32,60,,,,,,,,,,,,,,,,,,0,1,,space,1,0.08668,,,,,,0,40,40,45,1,,,,,,,,,,,,,,,,,,,,,,,,,
,,,,,,,,,,,,,,,,,,,,,,,,,,,,,,,,,,,,,,,,,,,space,132814,26,2020-08-14_16h43.17.621,CDT_GNG_IUS12,2020.1.2,Win32,60,,,,,,,,,,,,,,,,,,0,1,,space,1,0.197985,,,,,,0,41,41,15,1,,,,,,,,,,,,,,,,,,,,,,,,,
,,,,,,,,,,,,,,,,,,,,,,,,,,,,,,,,,,,,,,,,,,,space,132814,26,2020-08-14_16h43.17.621,CDT_GNG_IUS12,2020.1.2,Win32,60,,,,,,,,,,,,,,,,,,0,1,,space,1,0.19888,,,,,,0,42,42,37,1,,,,,,,,,,,,,,,,,,,,,,,,,
,,,,,,,,,,,,,,,,,,,,,,,,,,,,,,,,,,,,,,,,,,,space,132814,26,2020-08-14_16h43.17.621,CDT_GNG_IUS12,2020.1.2,Win32,60,,,,,,,,,,,,,,,,,,0,1,,space,1,0.200955,,,,,,0,43,43,33,1,,,,,,,,,,,,,,,,,,,,,,,,,
,,,,,,,,,,,,,,,,,,,,,,,,,,,,,,,,,,,,,,,,,,,space,132814,26,2020-08-14_16h43.17.621,CDT_GNG_IUS12,2020.1.2,Win32,60,,,,,,,,,,,,,,,,,,0,1,,space,1,0.233325,,,,,,0,44,44,46,1,,,,,,,,,,,,,,,,,,,,,,,,,
,,,,,,,,,,,,,,,,,,,,,,,,,,,,,,,,,,,,,,,,,,,space,132814,26,2020-08-14_16h43.17.621,CDT_GNG_IUS12,2020.1.2,Win32,60,,,,,,,,,,,,,,,,,,0,1,,space,1,0.20732,,,,,,0,45,45,39,1,,,,,,,,,,,,,,,,,,,,,,,,,
,,,,,,,,,,,,,,,,,,,,,,,,,,,,,,,,,,,,,,,,,,,,132814,26,2020-08-14_16h43.17.621,CDT_GNG_IUS12,2020.1.2,Win32,60,,,,,,,,,,,,,,,,,,1,0,,space,0,0.121135,,,,,,0,46,46,4,1,,,,,,,,,,,,,,,,,,,,,,,,,
,,,,,,,,,,,,,,,,,,,,,,,,,,,,,,,,,,,,,,,,,,,space,132814,26,2020-08-14_16h43.17.621,CDT_GNG_IUS12,2020.1.2,Win32,60,,,,,,,,,,,,,,,,,,0,1,,space,1,0.154395,,,,,,0,47,47,43,1,,,,,,,,,,,,,,,,,,,,,,,,,
,,,,,,,,,,,,,,,,,,,,,,,,,,,,,,,,,,,,,,,,,,,space,132814,26,2020-08-14_16h43.17.621,CDT_GNG_IUS12,2020.1.2,Win32,60,,,,,,,,,,,,,,,,,,0,1,,space,1,0.18743,,,,,,0,48,48,22,1,,,,,,,,,,,,,,,,,,,,,,,,,
,,,,,,,,,,,,,,,,,,,,,,,,,,,,,,,,,,,,,,,,,,,space,132814,26,2020-08-14_16h43.17.621,CDT_GNG_IUS12,2020.1.2,Win32,60,,,,,,,,,,,,,,,,,,0,1,,space,1,0.21504,,,,,,0,49,49,48,1,,,,,,,,,,,,,,,,,,,,,,,,,
,,,,,,,,,,,,,,,,,,,,,,,,,,,,,,,,,,,,,,,,,,,space,132814,26,2020-08-14_16h43.17.621,CDT_GNG_IUS12,2020.1.2,Win32,60,,,,,,,,,,,,,,,,,,0,1,,space,1,0.33405,,,,,,,,,,,0,0,0,13,1,,,,,,,,,,,,,,,,,,,,
,,,,,,,,,,,,,,,,,,,,,,,,,,,,,,,,,,,,,,,,,,,space,132814,26,2020-08-14_16h43.17.621,CDT_GNG_IUS12,2020.1.2,Win32,60,,,,,,,,,,,,,,,,,,0,1,,space,1,0.214385,,,,,,,,,,,0,1,1,42,1,,,,,,,,,,,,,,,,,,,,
,,,,,,,,,,,,,,,,,,,,,,,,,,,,,,,,,,,,,,,,,,,space,132814,26,2020-08-14_16h43.17.621,CDT_GNG_IUS12,2020.1.2,Win32,60,,,,,,,,,,,,,,,,,,0,1,,space,1,0.22161,,,,,,,,,,,0,2,2,11,1,,,,,,,,,,,,,,,,,,,,
,,,,,,,,,,,,,,,,,,,,,,,,,,,,,,,,,,,,,,,,,,,,132814,26,2020-08-14_16h43.17.621,CDT_GNG_IUS12,2020.1.2,Win32,60,,,,,,,,,,,,,,,,,,1,0,,space,0,0.190955,,,,,,,,,,,0,3,3,2,1,,,,,,,,,,,,,,,,,,,,
,,,,,,,,,,,,,,,,,,,,,,,,,,,,,,,,,,,,,,,,,,,space,132814,26,2020-08-14_16h43.17.621,CDT_GNG_IUS12,2020.1.2,Win32,60,,,,,,,,,,,,,,,,,,0,1,,space,1,0.210235,,,,,,,,,,,0,4,4,25,1,,,,,,,,,,,,,,,,,,,,
,,,,,,,,,,,,,,,,,,,,,,,,,,,,,,,,,,,,,,,,,,,space,132814,26,2020-08-14_16h43.17.621,CDT_GNG_IUS12,2020.1.2,Win32,60,,,,,,,,,,,,,,,,,,0,1,,space,1,0.164225,,,,,,,,,,,0,5,5,44,1,,,,,,,,,,,,,,,,,,,,
,,,,,,,,,,,,,,,,,,,,,,,,,,,,,,,,,,,,,,,,,,,space,132814,26,2020-08-14_16h43.17.621,CDT_GNG_IUS12,2020.1.2,Win32,60,,,,,,,,,,,,,,,,,,0,1,,space,1,0.196665,,,,,,,,,,,0,6,6,22,1,,,,,,,,,,,,,,,,,,,,
,,,,,,,,,,,,,,,,,,,,,,,,,,,,,,,,,,,,,,,,,,,space,132814,26,2020-08-14_16h43.17.621,CDT_GNG_IUS12,2020.1.2,Win32,60,,,,,,,,,,,,,,,,,,0,1,,space,1,0.153725,,,,,,,,,,,0,7,7,29,1,,,,,,,,,,,,,,,,,,,,
,,,,,,,,,,,,,,,,,,,,,,,,,,,,,,,,,,,,,,,,,,,space,132814,26,2020-08-14_16h43.17.621,CDT_GNG_IUS12,2020.1.2,Win32,60,,,,,,,,,,,,,,,,,,0,1,,space,1,0.17682,,,,,,,,,,,0,8,8,26,1,,,,,,,,,,,,,,,,,,,,
,,,,,,,,,,,,,,,,,,,,,,,,,,,,,,,,,,,,,,,,,,,space,132814,26,2020-08-14_16h43.17.621,CDT_GNG_IUS12,2020.1.2,Win32,60,,,,,,,,,,,,,,,,,,0,1,,space,1,0.18863,,,,,,,,,,,0,9,9,35,1,,,,,,,,,,,,,,,,,,,,
,,,,,,,,,,,,,,,,,,,,,,,,,,,,,,,,,,,,,,,,,,,space,132814,26,2020-08-14_16h43.17.621,CDT_GNG_IUS12,2020.1.2,Win32,60,,,,,,,,,,,,,,,,,,0,1,,space,1,0.18771,,,,,,,,,,,0,10,10,40,1,,,,,,,,,,,,,,,,,,,,
,,,,,,,,,,,,,,,,,,,,,,,,,,,,,,,,,,,,,,,,,,,space,132814,26,2020-08-14_16h43.17.621,CDT_GNG_IUS12,2020.1.2,Win32,60,,,,,,,,,,,,,,,,,,0,1,,space,1,0.23119,,,,,,,,,,,0,11,11,45,1,,,,,,,,,,,,,,,,,,,,
,,,,,,,,,,,,,,,,,,,,,,,,,,,,,,,,,,,,,,,,,,,space,132814,26,2020-08-14_16h43.17.621,CDT_GNG_IUS12,2020.1.2,Win32,60,,,,,,,,,,,,,,,,,,0,1,,space,1,0.148035,,,,,,,,,,,0,12,12,37,1,,,,,,,,,,,,,,,,,,,,
,,,,,,,,,,,,,,,,,,,,,,,,,,,,,,,,,,,,,,,,,,,space,132814,26,2020-08-14_16h43.17.621,CDT_GNG_IUS12,2020.1.2,Win32,60,,,,,,,,,,,,,,,,,,0,1,,space,1,0.2145,,,,,,,,,,,0,13,13,27,1,,,,,,,,,,,,,,,,,,,,
,,,,,,,,,,,,,,,,,,,,,,,,,,,,,,,,,,,,,,,,,,,space,132814,26,2020-08-14_16h43.17.621,CDT_GNG_IUS12,2020.1.2,Win32,60,,,,,,,,,,,,,,,,,,0,1,,space,1,0.205965,,,,,,,,,,,0,14,14,38,1,,,,,,,,,,,,,,,,,,,,
,,,,,,,,,,,,,,,,,,,,,,,,,,,,,,,,,,,,,,,,,,,space,132814,26,2020-08-14_16h43.17.621,CDT_GNG_IUS12,2020.1.2,Win32,60,,,,,,,,,,,,,,,,,,0,1,,space,1,0.24744,,,,,,,,,,,0,15,15,10,1,,,,,,,,,,,,,,,,,,,,
,,,,,,,,,,,,,,,,,,,,,,,,,,,,,,,,,,,,,,,,,,,space,132814,26,2020-08-14_16h43.17.621,CDT_GNG_IUS12,2020.1.2,Win32,60,,,,,,,,,,,,,,,,,,0,1,,space,1,0.20756,,,,,,,,,,,0,16,16,33,1,,,,,,,,,,,,,,,,,,,,
,,,,,,,,,,,,,,,,,,,,,,,,,,,,,,,,,,,,,,,,,,,space,132814,26,2020-08-14_16h43.17.621,CDT_GNG_IUS12,2020.1.2,Win32,60,,,,,,,,,,,,,,,,,,0,1,,space,1,0.21842,,,,,,,,,,,0,17,17,48,1,,,,,,,,,,,,,,,,,,,,
,,,,,,,,,,,,,,,,,,,,,,,,,,,,,,,,,,,,,,,,,,,space,132814,26,2020-08-14_16h43.17.621,CDT_GNG_IUS12,2020.1.2,Win32,60,,,,,,,,,,,,,,,,,,0,1,,space,1,0.196945,,,,,,,,,,,0,18,18,46,1,,,,,,,,,,,,,,,,,,,,
,,,,,,,,,,,,,,,,,,,,,,,,,,,,,,,,,,,,,,,,,,,space,132814,26,2020-08-14_16h43.17.621,CDT_GNG_IUS12,2020.1.2,Win32,60,,,,,,,,,,,,,,,,,,0,1,,space,1,0.230455,,,,,,,,,,,0,19,19,32,1,,,,,,,,,,,,,,,,,,,,
,,,,,,,,,,,,,,,,,,,,,,,,,,,,,,,,,,,,,,,,,,,space,132814,26,2020-08-14_16h43.17.621,CDT_GNG_IUS12,2020.1.2,Win32,60,,,,,,,,,,,,,,,,,,0,1,,space,1,0.220965,,,,,,,,,,,0,20,20,14,1,,,,,,,,,,,,,,,,,,,,
,,,,,,,,,,,,,,,,,,,,,,,,,,,,,,,,,,,,,,,,,,,space,132814,26,2020-08-14_16h43.17.621,CDT_GNG_IUS12,2020.1.2,Win32,60,,,,,,,,,,,,,,,,,,0,1,,space,1,0.23776,,,,,,,,,,,0,21,21,49,1,,,,,,,,,,,,,,,,,,,,
,,,,,,,,,,,,,,,,,,,,,,,,,,,,,,,,,,,,,,,,,,,space,132814,26,2020-08-14_16h43.17.621,CDT_GNG_IUS12,2020.1.2,Win32,60,,,,,,,,,,,,,,,,,,0,1,,space,1,0.232185,,,,,,,,,,,0,22,22,31,1,,,,,,,,,,,,,,,,,,,,
,,,,,,,,,,,,,,,,,,,,,,,,,,,,,,,,,,,,,,,,,,,space,132814,26,2020-08-14_16h43.17.621,CDT_GNG_IUS12,2020.1.2,Win32,60,,,,,,,,,,,,,,,,,,0,1,,space,1,0.255065,,,,,,,,,,,0,23,23,30,1,,,,,,,,,,,,,,,,,,,,
,,,,,,,,,,,,,,,,,,,,,,,,,,,,,,,,,,,,,,,,,,,,132814,26,2020-08-14_16h43.17.621,CDT_GNG_IUS12,2020.1.2,Win32,60,,,,,,,,,,,,,,,,,,1,0,,space,0,0.51878,,,,,,,,,,,0,24,24,3,1,,,,,,,,,,,,,,,,,,,,
,,,,,,,,,,,,,,,,,,,,,,,,,,,,,,,,,,,,,,,,,,,space,132814,26,2020-08-14_16h43.17.621,CDT_GNG_IUS12,2020.1.2,Win32,60,,,,,,,,,,,,,,,,,,0,1,,,0,,,,,,,,,,,,0,25,25,36,1,,,,,,,,,,,,,,,,,,,,
,,,,,,,,,,,,,,,,,,,,,,,,,,,,,,,,,,,,,,,,,,,,132814,26,2020-08-14_16h43.17.621,CDT_GNG_IUS12,2020.1.2,Win32,60,,,,,,,,,,,,,,,,,,1,0,,space,0,0.022655,,,,,,,,,,,0,26,26,9,1,,,,,,,,,,,,,,,,,,,,
,,,,,,,,,,,,,,,,,,,,,,,,,,,,,,,,,,,,,,,,,,,,132814,26,2020-08-14_16h43.17.621,CDT_GNG_IUS12,2020.1.2,Win32,60,,,,,,,,,,,,,,,,,,1,0,,,1,,,,,,,,,,,,0,27,27,0,1,,,,,,,,,,,,,,,,,,,,
,,,,,,,,,,,,,,,,,,,,,,,,,,,,,,,,,,,,,,,,,,,space,132814,26,2020-08-14_16h43.17.621,CDT_GNG_IUS12,2020.1.2,Win32,60,,,,,,,,,,,,,,,,,,0,1,,space,1,0.21416,,,,,,,,,,,0,28,28,16,1,,,,,,,,,,,,,,,,,,,,
,,,,,,,,,,,,,,,,,,,,,,,,,,,,,,,,,,,,,,,,,,,space,132814,26,2020-08-14_16h43.17.621,CDT_GNG_IUS12,2020.1.2,Win32,60,,,,,,,,,,,,,,,,,,0,1,,space,1,0.26392,,,,,,,,,,,0,29,29,18,1,,,,,,,,,,,,,,,,,,,,
,,,,,,,,,,,,,,,,,,,,,,,,,,,,,,,,,,,,,,,,,,,space,132814,26,2020-08-14_16h43.17.621,CDT_GNG_IUS12,2020.1.2,Win32,60,,,,,,,,,,,,,,,,,,0,1,,space,1,0.23356,,,,,,,,,,,0,30,30,24,1,,,,,,,,,,,,,,,,,,,,
,,,,,,,,,,,,,,,,,,,,,,,,,,,,,,,,,,,,,,,,,,,space,132814,26,2020-08-14_16h43.17.621,CDT_GNG_IUS12,2020.1.2,Win32,60,,,,,,,,,,,,,,,,,,0,1,,space,1,0.251585,,,,,,,,,,,0,31,31,20,1,,,,,,,,,,,,,,,,,,,,
,,,,,,,,,,,,,,,,,,,,,,,,,,,,,,,,,,,,,,,,,,,space,132814,26,2020-08-14_16h43.17.621,CDT_GNG_IUS12,2020.1.2,Win32,60,,,,,,,,,,,,,,,,,,0,1,,space,1,0.217295,,,,,,,,,,,0,32,32,23,1,,,,,,,,,,,,,,,,,,,,
,,,,,,,,,,,,,,,,,,,,,,,,,,,,,,,,,,,,,,,,,,,space,132814,26,2020-08-14_16h43.17.621,CDT_GNG_IUS12,2020.1.2,Win32,60,,,,,,,,,,,,,,,,,,0,1,,space,1,0.30924,,,,,,,,,,,0,33,33,15,1,,,,,,,,,,,,,,,,,,,,
,,,,,,,,,,,,,,,,,,,,,,,,,,,,,,,,,,,,,,,,,,,,132814,26,2020-08-14_16h43.17.621,CDT_GNG_IUS12,2020.1.2,Win32,60,,,,,,,,,,,,,,,,,,1,0,,space,0,0.24924,,,,,,,,,,,0,34,34,5,1,,,,,,,,,,,,,,,,,,,,
,,,,,,,,,,,,,,,,,,,,,,,,,,,,,,,,,,,,,,,,,,,space,132814,26,2020-08-14_16h43.17.621,CDT_GNG_IUS12,2020.1.2,Win32,60,,,,,,,,,,,,,,,,,,0,1,,space,1,0.255165,,,,,,,,,,,0,35,35,17,1,,,,,,,,,,,,,,,,,,,,
,,,,,,,,,,,,,,,,,,,,,,,,,,,,,,,,,,,,,,,,,,,space,132814,26,2020-08-14_16h43.17.621,CDT_GNG_IUS12,2020.1.2,Win32,60,,,,,,,,,,,,,,,,,,0,1,,space,1,0.249725,,,,,,,,,,,0,36,36,47,1,,,,,,,,,,,,,,,,,,,,
,,,,,,,,,,,,,,,,,,,,,,,,,,,,,,,,,,,,,,,,,,,space,132814,26,2020-08-14_16h43.17.621,CDT_GNG_IUS12,2020.1.2,Win32,60,,,,,,,,,,,,,,,,,,0,1,,space,1,0.22279,,,,,,,,,,,0,37,37,12,1,,,,,,,,,,,,,,,,,,,,
,,,,,,,,,,,,,,,,,,,,,,,,,,,,,,,,,,,,,,,,,,,,132814,26,2020-08-14_16h43.17.621,CDT_GNG_IUS12,2020.1.2,Win32,60,,,,,,,,,,,,,,,,,,1,0,,space,0,0.206915,,,,,,,,,,,0,38,38,7,1,,,,,,,,,,,,,,,,,,,,
,,,,,,,,,,,,,,,,,,,,,,,,,,,,,,,,,,,,,,,,,,,space,132814,26,2020-08-14_16h43.17.621,CDT_GNG_IUS12,2020.1.2,Win32,60,,,,,,,,,,,,,,,,,,0,1,,space,1,0.20437,,,,,,,,,,,0,39,39,43,1,,,,,,,,,,,,,,,,,,,,
,,,,,,,,,,,,,,,,,,,,,,,,,,,,,,,,,,,,,,,,,,,,132814,26,2020-08-14_16h43.17.621,CDT_GNG_IUS12,2020.1.2,Win32,60,,,,,,,,,,,,,,,,,,1,0,,,1,,,,,,,,,,,,0,40,40,4,1,,,,,,,,,,,,,,,,,,,,
,,,,,,,,,,,,,,,,,,,,,,,,,,,,,,,,,,,,,,,,,,,,132814,26,2020-08-14_16h43.17.621,CDT_GNG_IUS12,2020.1.2,Win32,60,,,,,,,,,,,,,,,,,,1,0,,space,0,0.21777,,,,,,,,,,,0,41,41,1,1,,,,,,,,,,,,,,,,,,,,
,,,,,,,,,,,,,,,,,,,,,,,,,,,,,,,,,,,,,,,,,,,space,132814,26,2020-08-14_16h43.17.621,CDT_GNG_IUS12,2020.1.2,Win32,60,,,,,,,,,,,,,,,,,,0,1,,space,1,0.259525,,,,,,,,,,,0,42,42,19,1,,,,,,,,,,,,,,,,,,,,
,,,,,,,,,,,,,,,,,,,,,,,,,,,,,,,,,,,,,,,,,,,space,132814,26,2020-08-14_16h43.17.621,CDT_GNG_IUS12,2020.1.2,Win32,60,,,,,,,,,,,,,,,,,,0,1,,,0,,,,,,,,,,,,0,43,43,21,1,,,,,,,,,,,,,,,,,,,,
,,,,,,,,,,,,,,,,,,,,,,,,,,,,,,,,,,,,,,,,,,,space,132814,26,2020-08-14_16h43.17.621,CDT_GNG_IUS12,2020.1.2,Win32,60,,,,,,,,,,,,,,,,,,0,1,,space,1,0.23464,,,,,,,,,,,0,44,44,39,1,,,,,,,,,,,,,,,,,,,,
,,,,,,,,,,,,,,,,,,,,,,,,,,,,,,,,,,,,,,,,,,,,132814,26,2020-08-14_16h43.17.621,CDT_GNG_IUS12,2020.1.2,Win32,60,,,,,,,,,,,,,,,,,,1,0,,,1,,,,,,,,,,,,0,45,45,8,1,,,,,,,,,,,,,,,,,,,,
,,,,,,,,,,,,,,,,,,,,,,,,,,,,,,,,,,,,,,,,,,,,132814,26,2020-08-14_16h43.17.621,CDT_GNG_IUS12,2020.1.2,Win32,60,,,,,,,,,,,,,,,,,,1,0,,space,0,0.20149,,,,,,,,,,,0,46,46,6,1,,,,,,,,,,,,,,,,,,,,
,,,,,,,,,,,,,,,,,,,,,,,,,,,,,,,,,,,,,,,,,,,space,132814,26,2020-08-14_16h43.17.621,CDT_GNG_IUS12,2020.1.2,Win32,60,,,,,,,,,,,,,,,,,,0,1,,space,1,0.285925,,,,,,,,,,,0,47,47,34,1,,,,,,,,,,,,,,,,,,,,
,,,,,,,,,,,,,,,,,,,,,,,,,,,,,,,,,,,,,,,,,,,space,132814,26,2020-08-14_16h43.17.621,CDT_GNG_IUS12,2020.1.2,Win32,60,,,,,,,,,,,,,,,,,,0,1,,space,1,0.321695,,,,,,,,,,,0,48,48,28,1,,,,,,,,,,,,,,,,,,,,
,,,,,,,,,,,,,,,,,,,,,,,,,,,,,,,,,,,,,,,,,,,space,132814,26,2020-08-14_16h43.17.621,CDT_GNG_IUS12,2020.1.2,Win32,60,,,,,,,,,,,,,,,,,,0,1,,,0,,,,,,,,,,,,0,49,49,41,1,,,,,,,,,,,,,,,,,,,,
,,,,,,,,,,,,,,,,,,,,,,,,,,,,,,,,,,,,,,,,,,,,132814,26,2020-08-14_16h43.17.621,CDT_GNG_IUS12,2020.1.2,Win32,60,,,,,,,,,,,,,,,,,,,,,,,,,,,,,,,,,,,,,,,8.90625,9.87829,0,0,0,0,1,1,"On a scale from 0 to 10, indicate your personal perception of your proficiency level for English (10 being the highest score)",,,,,,,,,,,
,,,,,,,,,,,,,,,,,,,,,,,,,,,,,,,,,,,,,,,,,,,,132814,26,2020-08-14_16h43.17.621,CDT_GNG_IUS12,2020.1.2,Win32,60,,,,,,,,,,,,,,,,,,,,,,,,,,,,,,,,,,,,,,,8.893229167,6.48599,0,1,1,1,1,2,"On a scale from 0 to 10, indicate how frequently you are exposed to English (10 being 'always', 0 being 'never')",,,,,,,,,,,
,,,,,,,,,,,,,,,,,,,,,,,,,,,,,,,,,,,,,,,,,,,,132814,26,2020-08-14_16h43.17.621,CDT_GNG_IUS12,2020.1.2,Win32,60,,,,,,,,,,,,,,,,,,,,,,,,,,,,,,,,,,,,,,,,,,,,,,,"On a scale from 0 to 10, indicate your personal perception of your proficiency level for English (10 being the highest score)",2.984375,31.918285,0,0,0,0,1,1,Unforeseen events upset me greatly.,,
,,,,,,,,,,,,,,,,,,,,,,,,,,,,,,,,,,,,,,,,,,,,132814,26,2020-08-14_16h43.17.621,CDT_GNG_IUS12,2020.1.2,Win32,60,,,,,,,,,,,,,,,,,,,,,,,,,,,,,,,,,,,,,,,,,,,,,,,"On a scale from 0 to 10, indicate how frequently you are exposed to English (10 being 'always', 0 being 'never')",5,6.152555,0,1,1,1,1,2,It frustrates me not having all the information I need.,,
,,,,,,,,,,,,,,,,,,,,,,,,,,,,,,,,,,,,,,,,,,,,132814,26,2020-08-14_16h43.17.621,CDT_GNG_IUS12,2020.1.2,Win32,60,,,,,,,,,,,,,,,,,,,,,,,,,,,,,,,,,,,,,,,,,,,,,,,,4.041666667,4.21931,0,2,2,2,1,3,One should always look ahead so as to avoid surprises.,,
,,,,,,,,,,,,,,,,,,,,,,,,,,,,,,,,,,,,,,,,,,,,132814,26,2020-08-14_16h43.17.621,CDT_GNG_IUS12,2020.1.2,Win32,60,,,,,,,,,,,,,,,,,,,,,,,,,,,,,,,,,,,,,,,,,,,,,,,,2.984375,8.492335,0,3,3,3,1,4,"A small, unforeseen event can spoil everything, even with the best of planning. ",,
,,,,,,,,,,,,,,,,,,,,,,,,,,,,,,,,,,,,,,,,,,,,132814,26,2020-08-14_16h43.17.621,CDT_GNG_IUS12,2020.1.2,Win32,60,,,,,,,,,,,,,,,,,,,,,,,,,,,,,,,,,,,,,,,,,,,,,,,,3.973958333,6.585465,0,4,4,4,1,5,I always want to know what the future has in store for me.,,
,,,,,,,,,,,,,,,,,,,,,,,,,,,,,,,,,,,,,,,,,,,,132814,26,2020-08-14_16h43.17.621,CDT_GNG_IUS12,2020.1.2,Win32,60,,,,,,,,,,,,,,,,,,,,,,,,,,,,,,,,,,,,,,,,,,,,,,,,3.020833333,3.70586,0,5,5,5,1,6,I can't stand being taken by surprise.,,
,,,,,,,,,,,,,,,,,,,,,,,,,,,,,,,,,,,,,,,,,,,,132814,26,2020-08-14_16h43.17.621,CDT_GNG_IUS12,2020.1.2,Win32,60,,,,,,,,,,,,,,,,,,,,,,,,,,,,,,,,,,,,,,,,,,,,,,,,3.994791667,7.42942,0,6,6,6,1,7,I should be able to organize everything in advance,,
,,,,,,,,,,,,,,,,,,,,,,,,,,,,,,,,,,,,,,,,,,,,132814,26,2020-08-14_16h43.17.621,CDT_GNG_IUS12,2020.1.2,Win32,60,,,,,,,,,,,,,,,,,,,,,,,,,,,,,,,,,,,,,,,,,,,,,,,,2.010416667,6.16029,0,7,7,7,1,8,Uncertainty keeps me from living a full life.,,
,,,,,,,,,,,,,,,,,,,,,,,,,,,,,,,,,,,,,,,,,,,,132814,26,2020-08-14_16h43.17.621,CDT_GNG_IUS12,2020.1.2,Win32,60,,,,,,,,,,,,,,,,,,,,,,,,,,,,,,,,,,,,,,,,,,,,,,,,2.015625,5.36575,0,8,8,8,1,9,"When it's time to act, uncertainty paralyses me. ",,
,,,,,,,,,,,,,,,,,,,,,,,,,,,,,,,,,,,,,,,,,,,,132814,26,2020-08-14_16h43.17.621,CDT_GNG_IUS12,2020.1.2,Win32,60,,,,,,,,,,,,,,,,,,,,,,,,,,,,,,,,,,,,,,,,,,,,,,,,3.057291667,6.33598,0,9,9,9,1,10,"When I am uncertain, I can't function very well. ",,
,,,,,,,,,,,,,,,,,,,,,,,,,,,,,,,,,,,,,,,,,,,,132814,26,2020-08-14_16h43.17.621,CDT_GNG_IUS12,2020.1.2,Win32,60,,,,,,,,,,,,,,,,,,,,,,,,,,,,,,,,,,,,,,,,,,,,,,,,2.984375,8.602445,0,10,10,10,1,11,The smallest doubt can stop me from acting. ,,
,,,,,,,,,,,,,,,,,,,,,,,,,,,,,,,,,,,,,,,,,,,,132814,26,2020-08-14_16h43.17.621,CDT_GNG_IUS12,2020.1.2,Win32,60,,,,,,,,,,,,,,,,,,,,,,,,,,,,,,,,,,,,,,,,,,,,,,,,2,4.41347,0,11,11,11,1,12,I must get away from all uncertain situations. ,,
,,,,,,,,,,,,,,,,,,,,,,,,,,,,,,,,,,,,,,,,,,,,132814,26,2020-08-14_16h43.17.621,CDT_GNG_IUS12,2020.1.2,Win32,60,,,,,,,,,,,,,,,,,,,,,,,,,,,,,,,,,,,,,,,,,,,,,,,,,,,,,,,,,x,4.650655
