key_resp_6.keys,key_resp_6.rt,key_resp_2.keys,key_resp_2.corr,key_resp_2.rt,CDT_trials_train.thisRepN,CDT_trials_train.thisTrialN,CDT_trials_train.thisN,CDT_trials_train.thisIndex,CDT_trials_train.ran,trialnum,condit,stimamt,stim1posx,stim1posy,stim1col,stim1opa,stim2posx,stim2posy,stim2col,stim2opa,stim3posx,stim3posy,stim3col,stim3opa,stim4posx,stim4posy,stim4col,stim4opa,stim5posx,stim5posy,stim5col,stim5opa,stim6posx,stim6posy,stim6col,stim6opa,stimsizex,stimsizey,stimdur,targetposx,targetposy,targetcol,corrAns,participant,age,date,expName,psychopyVersion,OS,frameRate,key_resp_5.keys,key_resp.keys,key_resp.corr,key_resp.rt,CDT_trials.thisRepN,CDT_trials.thisTrialN,CDT_trials.thisN,CDT_trials.thisIndex,CDT_trials.ran,key_resp_5.rt,trialResp_Train.keys,trialResp_Train.corr,GNGtrials_train.thisRepN,GNGtrials_train.thisTrialN,GNGtrials_train.thisN,GNGtrials_train.thisIndex,GNGtrials_train.ran,orangeOpacity,blueOpacity,trialResp_Train.rt,trialResp.keys,trialResp.corr,trialResp.rt,GNG_trials_1.thisRepN,GNG_trials_1.thisTrialN,GNG_trials_1.thisN,GNG_trials_1.thisIndex,GNG_trials_1.ran,GNG_trials_2.thisRepN,GNG_trials_2.thisTrialN,GNG_trials_2.thisN,GNG_trials_2.thisIndex,GNG_trials_2.ran,GNG_trials_3.thisRepN,GNG_trials_3.thisTrialN,GNG_trials_3.thisN,GNG_trials_3.thisIndex,GNG_trials_3.ran,slider_2.response,slider_2.rt,engprof_trials.thisRepN,engprof_trials.thisTrialN,engprof_trials.thisN,engprof_trials.thisIndex,engprof_trials.ran,qpnumber,qproficiency,slider.response,slider.rt,IUS12_trials.thisRepN,IUS12_trials.thisTrialN,IUS12_trials.thisN,IUS12_trials.thisIndex,IUS12_trials.ran,qnumber,qenglish,key_resp_end.keys,key_resp_end.rt
y,7.26224,k,1,0.66864,0,0,0,0,1,1,same,4,0.273779233,-0.054755847,black,1,-0.16426754,-0.273779233,magenta,1,-0.16426754,0.16426754,orange,1,0.16426754,0.054755847,yellow,1,0.16426754,-0.054755847,cyan,0,-0.054755847,-0.16426754,blue,0,0.05,0.05,0.15,-0.16426754,0.16426754,orange,k,224478,24,2020-08-15_16h47.09.255,CDT_GNG_IUS12,2020.1.2,MacIntel,60,,,,,,,,,,,,,,,,,,,,,,,,,,,,,,,,,,,,,,,,,,,,,,,,,,,,,,,,,,
,,l,1,1.033795,0,1,1,1,1,2,different,4,0.054755847,-0.054755847,orange,1,-0.273779233,0.273779233,magenta,1,0.273779233,0.16426754,yellow,1,-0.273779233,-0.16426754,blue,1,0.273779233,-0.054755847,red,0,-0.273779233,0.054755847,cyan,0,0.05,0.05,0.15,-0.273779233,-0.16426754,black,l,224478,24,2020-08-15_16h47.09.255,CDT_GNG_IUS12,2020.1.2,MacIntel,60,,,,,,,,,,,,,,,,,,,,,,,,,,,,,,,,,,,,,,,,,,,,,,,,,,,,,,,,,,
,,l,0,1.185855,0,2,2,2,1,3,same,6,-0.054755847,0.273779233,green,1,0.273779233,-0.273779233,magenta,1,0.273779233,0.16426754,cyan,1,-0.054755847,-0.054755847,black,1,-0.273779233,0.16426754,orange,1,0.16426754,-0.054755847,blue,1,0.05,0.05,0.15,-0.054755847,0.273779233,green,k,224478,24,2020-08-15_16h47.09.255,CDT_GNG_IUS12,2020.1.2,MacIntel,60,,,,,,,,,,,,,,,,,,,,,,,,,,,,,,,,,,,,,,,,,,,,,,,,,,,,,,,,,,
,,l,1,1.268485,0,3,3,3,1,4,different,6,0.16426754,-0.054755847,orange,1,-0.054755847,0.273779233,red,1,0.273779233,0.273779233,green,1,-0.054755847,-0.273779233,yellow,1,0.273779233,-0.054755847,blue,1,-0.16426754,0.16426754,black,1,0.05,0.05,0.15,0.273779233,0.273779233,cyan,l,224478,24,2020-08-15_16h47.09.255,CDT_GNG_IUS12,2020.1.2,MacIntel,60,,,,,,,,,,,,,,,,,,,,,,,,,,,,,,,,,,,,,,,,,,,,,,,,,,,,,,,,,,
,,,,,,,,,,82,same,6,-0.054755847,-0.16426754,red,1,0.273779233,-0.054755847,cyan,1,0.16426754,0.273779233,blue,1,-0.054755847,0.054755847,black,1,-0.16426754,-0.16426754,yellow,1,0.273779233,-0.16426754,green,1,0.05,0.05,0.15,-0.16426754,-0.16426754,yellow,k,224478,24,2020-08-15_16h47.09.255,CDT_GNG_IUS12,2020.1.2,MacIntel,60,,k,1,1.28756,0,0,0,81,1,,,,,,,,,,,,,,,,,,,,,,,,,,,,,,,,,,,,,,,,,,,,,,,,,
,,,,,,,,,,3,same,4,-0.054755847,-0.054755847,yellow,1,-0.054755847,0.054755847,cyan,1,0.16426754,-0.273779233,black,1,0.273779233,0.273779233,magenta,1,-0.054755847,-0.273779233,orange,0,-0.273779233,0.054755847,green,0,0.05,0.05,0.15,0.273779233,0.273779233,magenta,k,224478,24,2020-08-15_16h47.09.255,CDT_GNG_IUS12,2020.1.2,MacIntel,60,,l,0,1.40054,0,1,1,2,1,,,,,,,,,,,,,,,,,,,,,,,,,,,,,,,,,,,,,,,,,,,,,,,,,
,,,,,,,,,,119,different,6,-0.273779233,0.054755847,cyan,1,-0.273779233,-0.273779233,blue,1,0.16426754,0.054755847,orange,1,0.054755847,-0.16426754,yellow,1,-0.273779233,0.273779233,black,1,-0.054755847,-0.054755847,green,1,0.05,0.05,0.15,-0.273779233,-0.273779233,cyan,l,224478,24,2020-08-15_16h47.09.255,CDT_GNG_IUS12,2020.1.2,MacIntel,60,,l,1,1.201065,0,2,2,118,1,,,,,,,,,,,,,,,,,,,,,,,,,,,,,,,,,,,,,,,,,,,,,,,,,
,,,,,,,,,,63,same,6,-0.273779233,0.273779233,red,1,-0.273779233,-0.16426754,orange,1,0.054755847,-0.273779233,black,1,0.16426754,0.16426754,cyan,1,-0.054755847,0.054755847,blue,1,-0.273779233,-0.054755847,magenta,1,0.05,0.05,0.15,-0.273779233,-0.054755847,magenta,k,224478,24,2020-08-15_16h47.09.255,CDT_GNG_IUS12,2020.1.2,MacIntel,60,,k,1,1.518035,0,3,3,62,1,,,,,,,,,,,,,,,,,,,,,,,,,,,,,,,,,,,,,,,,,,,,,,,,,
,,,,,,,,,,7,same,4,-0.16426754,-0.054755847,yellow,1,0.273779233,0.16426754,magenta,1,-0.16426754,0.054755847,cyan,1,0.054755847,-0.054755847,black,1,-0.054755847,-0.054755847,orange,0,0.273779233,0.273779233,blue,0,0.05,0.05,0.15,0.054755847,-0.054755847,black,k,224478,24,2020-08-15_16h47.09.255,CDT_GNG_IUS12,2020.1.2,MacIntel,60,,k,1,1.10045,0,4,4,6,1,,,,,,,,,,,,,,,,,,,,,,,,,,,,,,,,,,,,,,,,,,,,,,,,,
,,,,,,,,,,45,different,4,0.054755847,0.16426754,blue,1,-0.054755847,-0.273779233,magenta,1,-0.16426754,0.16426754,black,1,0.054755847,-0.16426754,orange,1,0.273779233,0.273779233,green,0,-0.273779233,-0.16426754,cyan,0,0.05,0.05,0.15,-0.16426754,0.16426754,magenta,l,224478,24,2020-08-15_16h47.09.255,CDT_GNG_IUS12,2020.1.2,MacIntel,60,,l,1,0.80219,0,5,5,44,1,,,,,,,,,,,,,,,,,,,,,,,,,,,,,,,,,,,,,,,,,,,,,,,,,
,,,,,,,,,,91,different,6,-0.054755847,0.054755847,green,1,0.054755847,-0.16426754,cyan,1,-0.054755847,-0.054755847,black,1,0.16426754,0.273779233,yellow,1,-0.273779233,0.273779233,magenta,1,0.16426754,-0.054755847,red,1,0.05,0.05,0.15,0.16426754,-0.054755847,green,l,224478,24,2020-08-15_16h47.09.255,CDT_GNG_IUS12,2020.1.2,MacIntel,60,,l,1,1.183995,0,6,6,90,1,,,,,,,,,,,,,,,,,,,,,,,,,,,,,,,,,,,,,,,,,,,,,,,,,
,,,,,,,,,,116,different,6,-0.273779233,0.16426754,green,1,-0.054755847,-0.054755847,orange,1,0.273779233,-0.273779233,cyan,1,0.054755847,0.273779233,red,1,-0.054755847,0.16426754,blue,1,-0.16426754,-0.054755847,yellow,1,0.05,0.05,0.15,-0.054755847,-0.054755847,magenta,l,224478,24,2020-08-15_16h47.09.255,CDT_GNG_IUS12,2020.1.2,MacIntel,60,,l,1,0.91764,0,7,7,115,1,,,,,,,,,,,,,,,,,,,,,,,,,,,,,,,,,,,,,,,,,,,,,,,,,
,,,,,,,,,,115,different,6,-0.16426754,0.273779233,magenta,1,-0.273779233,-0.054755847,blue,1,0.273779233,0.273779233,red,1,0.054755847,-0.273779233,cyan,1,-0.054755847,0.16426754,green,1,-0.273779233,-0.273779233,yellow,1,0.05,0.05,0.15,-0.273779233,-0.054755847,yellow,l,224478,24,2020-08-15_16h47.09.255,CDT_GNG_IUS12,2020.1.2,MacIntel,60,,l,1,1.135015,0,8,8,114,1,,,,,,,,,,,,,,,,,,,,,,,,,,,,,,,,,,,,,,,,,,,,,,,,,
,,,,,,,,,,37,different,4,0.273779233,-0.273779233,cyan,1,-0.054755847,0.054755847,orange,1,-0.054755847,-0.16426754,yellow,1,0.16426754,0.054755847,blue,1,0.054755847,-0.273779233,red,0,-0.273779233,0.16426754,green,0,0.05,0.05,0.15,-0.054755847,0.054755847,green,l,224478,24,2020-08-15_16h47.09.255,CDT_GNG_IUS12,2020.1.2,MacIntel,60,,l,1,0.65157,0,9,9,36,1,,,,,,,,,,,,,,,,,,,,,,,,,,,,,,,,,,,,,,,,,,,,,,,,,
,,,,,,,,,,100,different,6,0.273779233,0.16426754,blue,1,-0.054755847,0.054755847,magenta,1,-0.273779233,-0.054755847,orange,1,0.273779233,-0.273779233,red,1,0.16426754,0.054755847,green,1,-0.273779233,0.054755847,yellow,1,0.05,0.05,0.15,0.273779233,0.16426754,orange,l,224478,24,2020-08-15_16h47.09.255,CDT_GNG_IUS12,2020.1.2,MacIntel,60,,k,0,1.18433,0,10,10,99,1,,,,,,,,,,,,,,,,,,,,,,,,,,,,,,,,,,,,,,,,,,,,,,,,,
,,,,,,,,,,59,different,4,0.16426754,-0.16426754,red,1,-0.054755847,-0.16426754,cyan,1,0.054755847,0.16426754,yellow,1,-0.16426754,0.273779233,green,1,0.16426754,-0.054755847,orange,0,-0.16426754,-0.054755847,black,0,0.05,0.05,0.15,-0.16426754,0.273779233,black,l,224478,24,2020-08-15_16h47.09.255,CDT_GNG_IUS12,2020.1.2,MacIntel,60,,l,1,0.6188,0,11,11,58,1,,,,,,,,,,,,,,,,,,,,,,,,,,,,,,,,,,,,,,,,,,,,,,,,,
,,,,,,,,,,10,same,4,0.273779233,0.273779233,green,1,-0.16426754,-0.054755847,yellow,1,-0.16426754,0.16426754,cyan,1,0.273779233,-0.16426754,blue,1,0.273779233,0.054755847,orange,0,-0.273779233,-0.16426754,red,0,0.05,0.05,0.15,0.273779233,0.273779233,green,k,224478,24,2020-08-15_16h47.09.255,CDT_GNG_IUS12,2020.1.2,MacIntel,60,,k,1,1.470955,0,12,12,9,1,,,,,,,,,,,,,,,,,,,,,,,,,,,,,,,,,,,,,,,,,,,,,,,,,
,,,,,,,,,,97,different,6,-0.273779233,-0.273779233,orange,1,0.054755847,-0.273779233,blue,1,0.16426754,0.16426754,green,1,-0.16426754,0.054755847,cyan,1,-0.16426754,-0.16426754,black,1,0.273779233,-0.16426754,yellow,1,0.05,0.05,0.15,-0.16426754,0.054755847,yellow,l,224478,24,2020-08-15_16h47.09.255,CDT_GNG_IUS12,2020.1.2,MacIntel,60,,l,1,0.73508,0,13,13,96,1,,,,,,,,,,,,,,,,,,,,,,,,,,,,,,,,,,,,,,,,,,,,,,,,,
,,,,,,,,,,110,different,6,-0.273779233,0.273779233,black,1,0.273779233,-0.16426754,red,1,0.054755847,0.273779233,cyan,1,-0.273779233,-0.16426754,orange,1,-0.054755847,0.054755847,magenta,1,0.16426754,-0.054755847,yellow,1,0.05,0.05,0.15,0.273779233,-0.16426754,yellow,l,224478,24,2020-08-15_16h47.09.255,CDT_GNG_IUS12,2020.1.2,MacIntel,60,,l,1,1.018025,0,14,14,109,1,,,,,,,,,,,,,,,,,,,,,,,,,,,,,,,,,,,,,,,,,,,,,,,,,
,,,,,,,,,,106,different,6,0.054755847,-0.16426754,blue,1,-0.273779233,-0.273779233,magenta,1,0.273779233,0.273779233,yellow,1,-0.273779233,0.054755847,orange,1,0.054755847,-0.054755847,green,1,-0.054755847,-0.16426754,black,1,0.05,0.05,0.15,0.054755847,-0.054755847,cyan,l,224478,24,2020-08-15_16h47.09.255,CDT_GNG_IUS12,2020.1.2,MacIntel,60,,l,1,0.80105,0,15,15,105,1,,,,,,,,,,,,,,,,,,,,,,,,,,,,,,,,,,,,,,,,,,,,,,,,,
,,,,,,,,,,113,different,6,-0.273779233,0.054755847,black,1,-0.16426754,-0.16426754,blue,1,0.054755847,-0.16426754,orange,1,0.16426754,0.16426754,red,1,-0.273779233,0.273779233,green,1,-0.273779233,-0.16426754,magenta,1,0.05,0.05,0.15,-0.273779233,-0.16426754,black,l,224478,24,2020-08-15_16h47.09.255,CDT_GNG_IUS12,2020.1.2,MacIntel,60,,l,1,0.851065,0,16,16,112,1,,,,,,,,,,,,,,,,,,,,,,,,,,,,,,,,,,,,,,,,,,,,,,,,,
,,,,,,,,,,74,same,6,-0.273779233,-0.273779233,magenta,1,0.16426754,0.054755847,cyan,1,-0.16426754,0.273779233,black,1,0.273779233,-0.054755847,yellow,1,-0.16426754,-0.16426754,red,1,0.054755847,0.273779233,green,1,0.05,0.05,0.15,-0.16426754,-0.16426754,red,k,224478,24,2020-08-15_16h47.09.255,CDT_GNG_IUS12,2020.1.2,MacIntel,60,,k,1,1.20277,0,17,17,73,1,,,,,,,,,,,,,,,,,,,,,,,,,,,,,,,,,,,,,,,,,,,,,,,,,
,,,,,,,,,,70,same,6,0.16426754,0.16426754,cyan,1,0.273779233,-0.273779233,red,1,-0.16426754,0.16426754,yellow,1,-0.273779233,-0.273779233,green,1,0.16426754,0.054755847,magenta,1,0.16426754,-0.054755847,blue,1,0.05,0.05,0.15,0.273779233,-0.273779233,red,k,224478,24,2020-08-15_16h47.09.255,CDT_GNG_IUS12,2020.1.2,MacIntel,60,,k,1,1.015005,0,18,18,69,1,,,,,,,,,,,,,,,,,,,,,,,,,,,,,,,,,,,,,,,,,,,,,,,,,
,,,,,,,,,,103,different,6,-0.273779233,-0.16426754,black,1,0.273779233,-0.054755847,cyan,1,0.054755847,0.273779233,magenta,1,-0.054755847,0.16426754,orange,1,-0.16426754,-0.16426754,green,1,0.273779233,-0.16426754,red,1,0.05,0.05,0.15,-0.273779233,-0.16426754,blue,l,224478,24,2020-08-15_16h47.09.255,CDT_GNG_IUS12,2020.1.2,MacIntel,60,,l,1,1.619495,0,19,19,102,1,,,,,,,,,,,,,,,,,,,,,,,,,,,,,,,,,,,,,,,,,,,,,,,,,
,,,,,,,,,,13,same,4,0.16426754,0.273779233,orange,1,0.054755847,-0.273779233,blue,1,-0.054755847,0.054755847,magenta,1,-0.054755847,-0.16426754,black,1,0.054755847,0.16426754,yellow,0,0.16426754,-0.054755847,cyan,0,0.05,0.05,0.15,0.054755847,-0.273779233,blue,k,224478,24,2020-08-15_16h47.09.255,CDT_GNG_IUS12,2020.1.2,MacIntel,60,,l,0,1.35433,0,20,20,12,1,,,,,,,,,,,,,,,,,,,,,,,,,,,,,,,,,,,,,,,,,,,,,,,,,
,,,,,,,,,,12,same,4,0.054755847,0.054755847,blue,1,-0.273779233,-0.054755847,magenta,1,-0.054755847,0.273779233,black,1,0.16426754,-0.16426754,green,1,0.16426754,0.16426754,yellow,0,-0.16426754,-0.054755847,orange,0,0.05,0.05,0.15,0.054755847,0.054755847,blue,k,224478,24,2020-08-15_16h47.09.255,CDT_GNG_IUS12,2020.1.2,MacIntel,60,,k,1,0.90129,0,21,21,11,1,,,,,,,,,,,,,,,,,,,,,,,,,,,,,,,,,,,,,,,,,,,,,,,,,
,,,,,,,,,,24,same,4,0.054755847,-0.16426754,red,1,0.054755847,0.054755847,yellow,1,-0.273779233,0.16426754,orange,1,-0.273779233,-0.16426754,magenta,1,0.273779233,-0.16426754,black,0,0.273779233,0.273779233,green,0,0.05,0.05,0.15,0.054755847,-0.16426754,red,k,224478,24,2020-08-15_16h47.09.255,CDT_GNG_IUS12,2020.1.2,MacIntel,60,,k,1,0.968275,0,22,22,23,1,,,,,,,,,,,,,,,,,,,,,,,,,,,,,,,,,,,,,,,,,,,,,,,,,
,,,,,,,,,,79,same,6,0.054755847,-0.16426754,black,1,-0.054755847,-0.273779233,yellow,1,-0.273779233,0.273779233,red,1,0.054755847,0.054755847,magenta,1,0.16426754,-0.054755847,cyan,1,-0.16426754,-0.054755847,orange,1,0.05,0.05,0.15,0.054755847,0.054755847,magenta,k,224478,24,2020-08-15_16h47.09.255,CDT_GNG_IUS12,2020.1.2,MacIntel,60,,k,1,1.383265,0,23,23,78,1,,,,,,,,,,,,,,,,,,,,,,,,,,,,,,,,,,,,,,,,,,,,,,,,,
,,,,,,,,,,15,same,4,0.054755847,-0.273779233,yellow,1,-0.273779233,-0.054755847,cyan,1,0.273779233,0.16426754,green,1,-0.16426754,0.16426754,blue,1,0.273779233,-0.054755847,magenta,0,-0.16426754,-0.054755847,orange,0,0.05,0.05,0.15,-0.273779233,-0.054755847,cyan,k,224478,24,2020-08-15_16h47.09.255,CDT_GNG_IUS12,2020.1.2,MacIntel,60,,k,1,1.11981,0,24,24,14,1,,,,,,,,,,,,,,,,,,,,,,,,,,,,,,,,,,,,,,,,,,,,,,,,,
,,,,,,,,,,87,same,6,0.273779233,0.16426754,green,1,-0.16426754,-0.054755847,black,1,-0.054755847,0.054755847,cyan,1,0.273779233,-0.054755847,blue,1,0.054755847,0.054755847,yellow,1,-0.273779233,-0.273779233,red,1,0.05,0.05,0.15,-0.273779233,-0.273779233,red,k,224478,24,2020-08-15_16h47.09.255,CDT_GNG_IUS12,2020.1.2,MacIntel,60,,k,1,0.76856,0,25,25,86,1,,,,,,,,,,,,,,,,,,,,,,,,,,,,,,,,,,,,,,,,,,,,,,,,,
,,,,,,,,,,78,same,6,0.054755847,0.054755847,black,1,-0.054755847,0.16426754,red,1,0.273779233,-0.273779233,blue,1,-0.054755847,-0.054755847,magenta,1,0.16426754,0.054755847,yellow,1,-0.273779233,0.16426754,cyan,1,0.05,0.05,0.15,-0.054755847,0.16426754,red,k,224478,24,2020-08-15_16h47.09.255,CDT_GNG_IUS12,2020.1.2,MacIntel,60,,l,0,1.40074,0,26,26,77,1,,,,,,,,,,,,,,,,,,,,,,,,,,,,,,,,,,,,,,,,,,,,,,,,,
,,,,,,,,,,67,same,6,0.273779233,-0.054755847,magenta,1,0.16426754,0.273779233,orange,1,-0.273779233,0.273779233,cyan,1,-0.16426754,-0.054755847,yellow,1,0.16426754,-0.16426754,blue,1,0.16426754,0.16426754,red,1,0.05,0.05,0.15,-0.273779233,0.273779233,cyan,k,224478,24,2020-08-15_16h47.09.255,CDT_GNG_IUS12,2020.1.2,MacIntel,60,,k,1,0.834495,0,27,27,66,1,,,,,,,,,,,,,,,,,,,,,,,,,,,,,,,,,,,,,,,,,,,,,,,,,
,,,,,,,,,,6,same,4,0.273779233,0.273779233,blue,1,-0.273779233,-0.16426754,magenta,1,-0.054755847,0.054755847,green,1,0.054755847,-0.054755847,black,1,0.054755847,0.054755847,orange,0,-0.054755847,-0.054755847,red,0,0.05,0.05,0.15,-0.054755847,0.054755847,green,k,224478,24,2020-08-15_16h47.09.255,CDT_GNG_IUS12,2020.1.2,MacIntel,60,,k,1,1.216525,0,28,28,5,1,,,,,,,,,,,,,,,,,,,,,,,,,,,,,,,,,,,,,,,,,,,,,,,,,
,,,,,,,,,,28,same,4,0.16426754,-0.273779233,yellow,1,-0.054755847,0.16426754,black,1,0.16426754,0.054755847,cyan,1,-0.273779233,-0.16426754,blue,1,0.273779233,-0.273779233,orange,0,-0.054755847,0.054755847,magenta,0,0.05,0.05,0.15,-0.054755847,0.16426754,black,k,224478,24,2020-08-15_16h47.09.255,CDT_GNG_IUS12,2020.1.2,MacIntel,60,,k,1,0.80173,0,29,29,27,1,,,,,,,,,,,,,,,,,,,,,,,,,,,,,,,,,,,,,,,,,,,,,,,,,
,,,,,,,,,,92,different,6,0.16426754,0.16426754,green,1,-0.054755847,-0.054755847,cyan,1,-0.054755847,0.054755847,red,1,0.16426754,-0.054755847,magenta,1,0.054755847,0.16426754,orange,1,-0.273779233,-0.16426754,yellow,1,0.05,0.05,0.15,0.16426754,0.16426754,cyan,l,224478,24,2020-08-15_16h47.09.255,CDT_GNG_IUS12,2020.1.2,MacIntel,60,,l,1,0.76686,0,30,30,91,1,,,,,,,,,,,,,,,,,,,,,,,,,,,,,,,,,,,,,,,,,,,,,,,,,
,,,,,,,,,,36,different,4,-0.16426754,-0.054755847,cyan,1,0.16426754,0.054755847,red,1,0.16426754,-0.054755847,black,1,-0.273779233,0.273779233,orange,1,-0.054755847,-0.054755847,yellow,0,0.273779233,0.273779233,green,0,0.05,0.05,0.15,0.16426754,-0.054755847,orange,l,224478,24,2020-08-15_16h47.09.255,CDT_GNG_IUS12,2020.1.2,MacIntel,60,,l,1,1.38578,0,31,31,35,1,,,,,,,,,,,,,,,,,,,,,,,,,,,,,,,,,,,,,,,,,,,,,,,,,
,,,,,,,,,,8,same,4,0.16426754,-0.16426754,blue,1,-0.16426754,-0.054755847,red,1,-0.273779233,0.16426754,green,1,0.054755847,0.054755847,cyan,1,0.16426754,-0.273779233,magenta,0,-0.054755847,-0.054755847,orange,0,0.05,0.05,0.15,-0.273779233,0.16426754,green,k,224478,24,2020-08-15_16h47.09.255,CDT_GNG_IUS12,2020.1.2,MacIntel,60,,k,1,0.78301,0,32,32,7,1,,,,,,,,,,,,,,,,,,,,,,,,,,,,,,,,,,,,,,,,,,,,,,,,,
,,,,,,,,,,4,same,4,0.16426754,-0.16426754,black,1,-0.054755847,0.16426754,yellow,1,0.16426754,0.16426754,blue,1,-0.16426754,-0.16426754,green,1,0.054755847,-0.16426754,magenta,0,-0.054755847,0.273779233,orange,0,0.05,0.05,0.15,0.16426754,-0.16426754,black,k,224478,24,2020-08-15_16h47.09.255,CDT_GNG_IUS12,2020.1.2,MacIntel,60,,k,1,0.73556,0,33,33,3,1,,,,,,,,,,,,,,,,,,,,,,,,,,,,,,,,,,,,,,,,,,,,,,,,,
,,,,,,,,,,102,different,6,-0.273779233,-0.273779233,magenta,1,0.054755847,0.16426754,green,1,0.16426754,-0.273779233,yellow,1,-0.16426754,0.054755847,orange,1,-0.16426754,-0.273779233,red,1,0.273779233,0.054755847,cyan,1,0.05,0.05,0.15,-0.273779233,-0.273779233,yellow,l,224478,24,2020-08-15_16h47.09.255,CDT_GNG_IUS12,2020.1.2,MacIntel,60,,l,1,0.78446,0,34,34,101,1,,,,,,,,,,,,,,,,,,,,,,,,,,,,,,,,,,,,,,,,,,,,,,,,,
,,,,,,,,,,54,different,4,-0.054755847,-0.054755847,black,1,0.054755847,0.054755847,cyan,1,0.273779233,-0.16426754,green,1,-0.273779233,0.16426754,magenta,1,-0.054755847,-0.16426754,orange,0,0.054755847,0.16426754,blue,0,0.05,0.05,0.15,-0.273779233,0.16426754,orange,l,224478,24,2020-08-15_16h47.09.255,CDT_GNG_IUS12,2020.1.2,MacIntel,60,,l,1,1.15027,0,35,35,53,1,,,,,,,,,,,,,,,,,,,,,,,,,,,,,,,,,,,,,,,,,,,,,,,,,
,,,,,,,,,,18,same,4,-0.054755847,0.273779233,black,1,-0.16426754,-0.16426754,cyan,1,0.054755847,0.16426754,red,1,0.273779233,-0.273779233,magenta,1,-0.16426754,0.273779233,orange,0,-0.054755847,-0.273779233,green,0,0.05,0.05,0.15,0.273779233,-0.273779233,magenta,k,224478,24,2020-08-15_16h47.09.255,CDT_GNG_IUS12,2020.1.2,MacIntel,60,,k,1,1.35044,0,36,36,17,1,,,,,,,,,,,,,,,,,,,,,,,,,,,,,,,,,,,,,,,,,,,,,,,,,
,,,,,,,,,,108,different,6,-0.273779233,-0.054755847,magenta,1,0.054755847,0.16426754,red,1,-0.16426754,0.054755847,cyan,1,0.054755847,-0.273779233,green,1,-0.273779233,-0.16426754,orange,1,0.273779233,0.273779233,black,1,0.05,0.05,0.15,-0.273779233,-0.054755847,blue,l,224478,24,2020-08-15_16h47.09.255,CDT_GNG_IUS12,2020.1.2,MacIntel,60,,l,1,2.919055,0,37,37,107,1,,,,,,,,,,,,,,,,,,,,,,,,,,,,,,,,,,,,,,,,,,,,,,,,,
,,,,,,,,,,19,same,4,-0.054755847,-0.16426754,orange,1,-0.273779233,0.273779233,red,1,0.273779233,0.054755847,yellow,1,0.273779233,-0.16426754,magenta,1,-0.273779233,-0.054755847,black,0,-0.054755847,0.273779233,blue,0,0.05,0.05,0.15,0.273779233,-0.16426754,magenta,k,224478,24,2020-08-15_16h47.09.255,CDT_GNG_IUS12,2020.1.2,MacIntel,60,,k,1,0.817195,0,38,38,18,1,,,,,,,,,,,,,,,,,,,,,,,,,,,,,,,,,,,,,,,,,,,,,,,,,
,,,,,,,,,,60,different,4,0.273779233,0.273779233,red,1,-0.273779233,-0.054755847,blue,1,-0.273779233,0.054755847,magenta,1,0.054755847,-0.273779233,black,1,0.273779233,0.054755847,orange,0,-0.054755847,-0.16426754,yellow,0,0.05,0.05,0.15,-0.273779233,0.054755847,yellow,l,224478,24,2020-08-15_16h47.09.255,CDT_GNG_IUS12,2020.1.2,MacIntel,60,,l,1,0.738985,0,39,39,59,1,,,,,,,,,,,,,,,,,,,,,,,,,,,,,,,,,,,,,,,,,,,,,,,,,
,,,,,,,,,,76,same,6,0.16426754,0.054755847,cyan,1,0.273779233,-0.273779233,red,1,-0.054755847,-0.273779233,magenta,1,-0.054755847,0.16426754,yellow,1,0.054755847,0.273779233,blue,1,0.054755847,-0.273779233,green,1,0.05,0.05,0.15,0.16426754,0.054755847,cyan,k,224478,24,2020-08-15_16h47.09.255,CDT_GNG_IUS12,2020.1.2,MacIntel,60,,l,0,0.75261,0,40,40,75,1,,,,,,,,,,,,,,,,,,,,,,,,,,,,,,,,,,,,,,,,,,,,,,,,,
,,,,,,,,,,81,same,6,-0.273779233,-0.273779233,green,1,-0.273779233,0.16426754,blue,1,0.054755847,-0.16426754,black,1,0.273779233,0.054755847,cyan,1,-0.16426754,-0.273779233,orange,1,-0.054755847,0.054755847,red,1,0.05,0.05,0.15,0.054755847,-0.16426754,black,k,224478,24,2020-08-15_16h47.09.255,CDT_GNG_IUS12,2020.1.2,MacIntel,60,,k,1,0.767975,0,41,41,80,1,,,,,,,,,,,,,,,,,,,,,,,,,,,,,,,,,,,,,,,,,,,,,,,,,
,,,,,,,,,,66,same,6,0.273779233,-0.273779233,cyan,1,-0.273779233,-0.054755847,black,1,-0.273779233,0.054755847,yellow,1,0.273779233,0.16426754,green,1,0.054755847,-0.16426754,orange,1,-0.273779233,-0.16426754,magenta,1,0.05,0.05,0.15,0.273779233,0.16426754,green,k,224478,24,2020-08-15_16h47.09.255,CDT_GNG_IUS12,2020.1.2,MacIntel,60,,l,0,1.150345,0,42,42,65,1,,,,,,,,,,,,,,,,,,,,,,,,,,,,,,,,,,,,,,,,,,,,,,,,,
,,,,,,,,,,32,different,4,-0.054755847,-0.273779233,green,1,-0.273779233,0.16426754,black,1,0.16426754,0.16426754,cyan,1,0.273779233,-0.16426754,yellow,1,-0.054755847,-0.054755847,blue,0,-0.054755847,0.273779233,orange,0,0.05,0.05,0.15,-0.054755847,-0.273779233,red,l,224478,24,2020-08-15_16h47.09.255,CDT_GNG_IUS12,2020.1.2,MacIntel,60,,l,1,0.65051,0,43,43,31,1,,,,,,,,,,,,,,,,,,,,,,,,,,,,,,,,,,,,,,,,,,,,,,,,,
,,,,,,,,,,58,different,4,-0.16426754,0.273779233,blue,1,0.16426754,0.273779233,yellow,1,0.273779233,-0.16426754,black,1,-0.16426754,-0.054755847,cyan,1,-0.16426754,0.16426754,green,0,0.16426754,0.054755847,orange,0,0.05,0.05,0.15,0.273779233,-0.16426754,magenta,l,224478,24,2020-08-15_16h47.09.255,CDT_GNG_IUS12,2020.1.2,MacIntel,60,,l,1,1.72098,0,44,44,57,1,,,,,,,,,,,,,,,,,,,,,,,,,,,,,,,,,,,,,,,,,,,,,,,,,
,,,,,,,,,,9,same,4,-0.16426754,0.054755847,cyan,1,0.16426754,-0.16426754,magenta,1,-0.273779233,-0.054755847,black,1,0.054755847,0.054755847,green,1,-0.273779233,0.16426754,orange,0,0.273779233,-0.273779233,red,0,0.05,0.05,0.15,-0.273779233,-0.054755847,black,k,224478,24,2020-08-15_16h47.09.255,CDT_GNG_IUS12,2020.1.2,MacIntel,60,,k,1,0.97856,0,45,45,8,1,,,,,,,,,,,,,,,,,,,,,,,,,,,,,,,,,,,,,,,,,,,,,,,,,
,,,,,,,,,,96,different,6,-0.16426754,-0.16426754,green,1,-0.16426754,0.054755847,black,1,0.054755847,0.16426754,cyan,1,0.16426754,-0.273779233,yellow,1,-0.273779233,-0.273779233,blue,1,-0.054755847,0.054755847,red,1,0.05,0.05,0.15,-0.16426754,0.054755847,magenta,l,224478,24,2020-08-15_16h47.09.255,CDT_GNG_IUS12,2020.1.2,MacIntel,60,,l,1,0.562815,0,46,46,95,1,,,,,,,,,,,,,,,,,,,,,,,,,,,,,,,,,,,,,,,,,,,,,,,,,
,,,,,,,,,,73,same,6,0.054755847,0.16426754,blue,1,-0.273779233,0.273779233,red,1,-0.273779233,-0.16426754,green,1,0.054755847,-0.054755847,orange,1,0.16426754,0.16426754,black,1,-0.054755847,0.16426754,magenta,1,0.05,0.05,0.15,-0.273779233,0.273779233,red,k,224478,24,2020-08-15_16h47.09.255,CDT_GNG_IUS12,2020.1.2,MacIntel,60,,l,0,1.138485,0,47,47,72,1,,,,,,,,,,,,,,,,,,,,,,,,,,,,,,,,,,,,,,,,,,,,,,,,,
,,,,,,,,,,50,different,4,-0.16426754,0.054755847,black,1,-0.273779233,-0.16426754,magenta,1,0.054755847,0.054755847,cyan,1,0.273779233,-0.16426754,green,1,-0.273779233,0.273779233,yellow,0,-0.16426754,-0.054755847,orange,0,0.05,0.05,0.15,-0.273779233,-0.16426754,yellow,l,224478,24,2020-08-15_16h47.09.255,CDT_GNG_IUS12,2020.1.2,MacIntel,60,,l,1,0.65169,0,48,48,49,1,,,,,,,,,,,,,,,,,,,,,,,,,,,,,,,,,,,,,,,,,,,,,,,,,
,,,,,,,,,,47,different,4,-0.16426754,-0.054755847,orange,1,0.273779233,0.054755847,black,1,-0.16426754,0.16426754,red,1,0.273779233,-0.16426754,blue,1,-0.054755847,-0.273779233,green,0,0.16426754,0.16426754,yellow,0,0.05,0.05,0.15,0.273779233,0.054755847,red,l,224478,24,2020-08-15_16h47.09.255,CDT_GNG_IUS12,2020.1.2,MacIntel,60,,l,1,0.656225,0,49,49,46,1,,,,,,,,,,,,,,,,,,,,,,,,,,,,,,,,,,,,,,,,,,,,,,,,,
,,,,,,,,,,1,same,4,-0.16426754,-0.273779233,orange,1,0.054755847,0.16426754,yellow,1,-0.16426754,0.16426754,green,1,0.054755847,-0.054755847,red,1,-0.273779233,-0.16426754,cyan,0,0.16426754,0.16426754,blue,0,0.05,0.05,0.15,0.054755847,0.16426754,yellow,k,224478,24,2020-08-15_16h47.09.255,CDT_GNG_IUS12,2020.1.2,MacIntel,60,,k,1,0.69558,0,50,50,0,1,,,,,,,,,,,,,,,,,,,,,,,,,,,,,,,,,,,,,,,,,,,,,,,,,
,,,,,,,,,,31,different,4,-0.16426754,0.16426754,blue,1,0.16426754,-0.054755847,magenta,1,-0.16426754,-0.054755847,yellow,1,0.054755847,0.273779233,black,1,-0.273779233,0.054755847,red,0,0.273779233,-0.273779233,cyan,0,0.05,0.05,0.15,-0.16426754,-0.054755847,black,l,224478,24,2020-08-15_16h47.09.255,CDT_GNG_IUS12,2020.1.2,MacIntel,60,,l,1,0.684235,0,51,51,30,1,,,,,,,,,,,,,,,,,,,,,,,,,,,,,,,,,,,,,,,,,,,,,,,,,
,,,,,,,,,,90,same,6,0.16426754,-0.054755847,black,1,-0.273779233,-0.054755847,orange,1,-0.16426754,0.16426754,cyan,1,0.273779233,0.273779233,blue,1,0.054755847,-0.054755847,magenta,1,-0.273779233,-0.273779233,yellow,1,0.05,0.05,0.15,-0.273779233,-0.054755847,orange,k,224478,24,2020-08-15_16h47.09.255,CDT_GNG_IUS12,2020.1.2,MacIntel,60,,k,1,0.56927,0,52,52,89,1,,,,,,,,,,,,,,,,,,,,,,,,,,,,,,,,,,,,,,,,,,,,,,,,,
,,,,,,,,,,46,different,4,-0.16426754,0.273779233,yellow,1,-0.16426754,-0.16426754,green,1,0.16426754,0.054755847,black,1,0.273779233,-0.054755847,red,1,-0.16426754,0.16426754,blue,0,-0.273779233,-0.054755847,cyan,0,0.05,0.05,0.15,0.16426754,0.054755847,cyan,l,224478,24,2020-08-15_16h47.09.255,CDT_GNG_IUS12,2020.1.2,MacIntel,60,,l,1,0.618965,0,53,53,45,1,,,,,,,,,,,,,,,,,,,,,,,,,,,,,,,,,,,,,,,,,,,,,,,,,
,,,,,,,,,,93,different,6,-0.16426754,0.16426754,red,1,0.054755847,-0.054755847,black,1,-0.054755847,-0.16426754,blue,1,0.054755847,0.273779233,magenta,1,-0.054755847,0.054755847,orange,1,0.16426754,-0.054755847,cyan,1,0.05,0.05,0.15,-0.054755847,-0.16426754,black,l,224478,24,2020-08-15_16h47.09.255,CDT_GNG_IUS12,2020.1.2,MacIntel,60,,l,1,1.168395,0,54,54,92,1,,,,,,,,,,,,,,,,,,,,,,,,,,,,,,,,,,,,,,,,,,,,,,,,,
,,,,,,,,,,25,same,4,0.16426754,-0.273779233,green,1,-0.16426754,-0.273779233,black,1,0.16426754,0.054755847,cyan,1,-0.273779233,0.273779233,blue,1,0.054755847,-0.273779233,yellow,0,-0.273779233,-0.273779233,red,0,0.05,0.05,0.15,-0.273779233,0.273779233,blue,k,224478,24,2020-08-15_16h47.09.255,CDT_GNG_IUS12,2020.1.2,MacIntel,60,,l,0,0.750845,0,55,55,24,1,,,,,,,,,,,,,,,,,,,,,,,,,,,,,,,,,,,,,,,,,,,,,,,,,
,,,,,,,,,,30,same,4,0.16426754,0.16426754,blue,1,0.054755847,-0.054755847,green,1,-0.273779233,-0.16426754,black,1,-0.054755847,0.273779233,yellow,1,0.16426754,0.273779233,red,0,0.16426754,-0.16426754,magenta,0,0.05,0.05,0.15,0.054755847,-0.054755847,green,k,224478,24,2020-08-15_16h47.09.255,CDT_GNG_IUS12,2020.1.2,MacIntel,60,,k,1,0.666945,0,56,56,29,1,,,,,,,,,,,,,,,,,,,,,,,,,,,,,,,,,,,,,,,,,,,,,,,,,
,,,,,,,,,,29,same,4,0.273779233,0.054755847,magenta,1,-0.054755847,0.273779233,cyan,1,0.16426754,-0.054755847,green,1,-0.16426754,-0.054755847,black,1,0.273779233,0.16426754,orange,0,-0.16426754,0.054755847,blue,0,0.05,0.05,0.15,0.16426754,-0.054755847,green,k,224478,24,2020-08-15_16h47.09.255,CDT_GNG_IUS12,2020.1.2,MacIntel,60,,k,1,0.831915,0,57,57,28,1,,,,,,,,,,,,,,,,,,,,,,,,,,,,,,,,,,,,,,,,,,,,,,,,,
,,,,,,,,,,64,same,6,0.16426754,0.273779233,black,1,-0.16426754,-0.16426754,orange,1,0.16426754,-0.16426754,red,1,-0.273779233,0.054755847,magenta,1,0.054755847,0.16426754,cyan,1,-0.054755847,-0.16426754,yellow,1,0.05,0.05,0.15,0.16426754,0.273779233,black,k,224478,24,2020-08-15_16h47.09.255,CDT_GNG_IUS12,2020.1.2,MacIntel,60,,l,0,0.95154,0,58,58,63,1,,,,,,,,,,,,,,,,,,,,,,,,,,,,,,,,,,,,,,,,,,,,,,,,,
,,,,,,,,,,75,same,6,0.16426754,0.273779233,magenta,1,-0.273779233,-0.16426754,green,1,-0.273779233,0.16426754,yellow,1,0.054755847,-0.054755847,red,1,0.273779233,0.054755847,blue,1,-0.16426754,-0.054755847,cyan,1,0.05,0.05,0.15,0.054755847,-0.054755847,red,k,224478,24,2020-08-15_16h47.09.255,CDT_GNG_IUS12,2020.1.2,MacIntel,60,s,k,1,0.73484,0,59,59,74,1,5.91799,,,,,,,,,,,,,,,,,,,,,,,,,,,,,,,,,,,,,,,,,,,,,,,,
,,,,,,,,,,114,different,6,-0.16426754,0.16426754,black,1,-0.054755847,-0.273779233,orange,1,0.054755847,0.16426754,magenta,1,0.273779233,-0.16426754,green,1,-0.054755847,0.16426754,cyan,1,-0.273779233,-0.273779233,yellow,1,0.05,0.05,0.15,0.054755847,0.16426754,blue,l,224478,24,2020-08-15_16h47.09.255,CDT_GNG_IUS12,2020.1.2,MacIntel,60,,l,1,0.550545,0,60,60,113,1,,,,,,,,,,,,,,,,,,,,,,,,,,,,,,,,,,,,,,,,,,,,,,,,,
,,,,,,,,,,65,same,6,-0.273779233,-0.16426754,cyan,1,-0.054755847,0.054755847,blue,1,0.054755847,-0.054755847,red,1,0.273779233,0.054755847,green,1,-0.16426754,-0.054755847,orange,1,-0.273779233,0.273779233,yellow,1,0.05,0.05,0.15,-0.273779233,-0.16426754,cyan,k,224478,24,2020-08-15_16h47.09.255,CDT_GNG_IUS12,2020.1.2,MacIntel,60,,l,0,1.11698,0,61,61,64,1,,,,,,,,,,,,,,,,,,,,,,,,,,,,,,,,,,,,,,,,,,,,,,,,,
,,,,,,,,,,117,different,6,-0.054755847,0.054755847,black,1,0.054755847,0.273779233,magenta,1,-0.273779233,-0.273779233,yellow,1,0.054755847,-0.16426754,blue,1,-0.16426754,0.054755847,cyan,1,0.054755847,0.054755847,red,1,0.05,0.05,0.15,-0.16426754,0.054755847,black,l,224478,24,2020-08-15_16h47.09.255,CDT_GNG_IUS12,2020.1.2,MacIntel,60,,l,1,0.634295,0,62,62,116,1,,,,,,,,,,,,,,,,,,,,,,,,,,,,,,,,,,,,,,,,,,,,,,,,,
,,,,,,,,,,48,different,4,0.16426754,0.273779233,cyan,1,-0.054755847,-0.273779233,magenta,1,0.16426754,-0.054755847,orange,1,-0.273779233,0.273779233,blue,1,0.273779233,0.16426754,red,0,-0.054755847,-0.16426754,green,0,0.05,0.05,0.15,0.16426754,-0.054755847,red,l,224478,24,2020-08-15_16h47.09.255,CDT_GNG_IUS12,2020.1.2,MacIntel,60,,l,1,0.585225,0,63,63,47,1,,,,,,,,,,,,,,,,,,,,,,,,,,,,,,,,,,,,,,,,,,,,,,,,,
,,,,,,,,,,80,same,6,-0.273779233,0.16426754,orange,1,0.054755847,-0.273779233,yellow,1,0.054755847,0.273779233,green,1,-0.16426754,-0.273779233,red,1,-0.16426754,0.273779233,blue,1,0.273779233,-0.16426754,black,1,0.05,0.05,0.15,0.054755847,-0.273779233,yellow,k,224478,24,2020-08-15_16h47.09.255,CDT_GNG_IUS12,2020.1.2,MacIntel,60,,l,0,1.03396,0,64,64,79,1,,,,,,,,,,,,,,,,,,,,,,,,,,,,,,,,,,,,,,,,,,,,,,,,,
,,,,,,,,,,33,different,4,-0.273779233,0.273779233,yellow,1,0.16426754,-0.16426754,cyan,1,-0.273779233,-0.273779233,black,1,0.054755847,0.273779233,blue,1,-0.16426754,0.273779233,green,0,0.054755847,-0.273779233,orange,0,0.05,0.05,0.15,-0.273779233,-0.273779233,cyan,l,224478,24,2020-08-15_16h47.09.255,CDT_GNG_IUS12,2020.1.2,MacIntel,60,,l,1,1.232565,0,65,65,32,1,,,,,,,,,,,,,,,,,,,,,,,,,,,,,,,,,,,,,,,,,,,,,,,,,
,,,,,,,,,,118,different,6,-0.16426754,-0.16426754,red,1,0.273779233,0.16426754,orange,1,-0.16426754,0.273779233,cyan,1,0.16426754,-0.273779233,black,1,-0.054755847,-0.054755847,yellow,1,0.054755847,0.054755847,green,1,0.05,0.05,0.15,-0.054755847,-0.054755847,magenta,l,224478,24,2020-08-15_16h47.09.255,CDT_GNG_IUS12,2020.1.2,MacIntel,60,,l,1,0.822535,0,66,66,117,1,,,,,,,,,,,,,,,,,,,,,,,,,,,,,,,,,,,,,,,,,,,,,,,,,
,,,,,,,,,,107,different,6,0.273779233,0.16426754,cyan,1,-0.16426754,-0.273779233,magenta,1,-0.054755847,0.054755847,black,1,0.16426754,-0.054755847,blue,1,0.16426754,0.054755847,green,1,-0.273779233,-0.16426754,yellow,1,0.05,0.05,0.15,0.16426754,0.054755847,blue,l,224478,24,2020-08-15_16h47.09.255,CDT_GNG_IUS12,2020.1.2,MacIntel,60,,l,1,1.434395,0,67,67,106,1,,,,,,,,,,,,,,,,,,,,,,,,,,,,,,,,,,,,,,,,,,,,,,,,,
,,,,,,,,,,27,same,4,-0.273779233,0.054755847,blue,1,-0.16426754,-0.16426754,black,1,0.16426754,-0.273779233,cyan,1,0.273779233,0.054755847,red,1,-0.054755847,0.273779233,magenta,0,-0.054755847,-0.273779233,yellow,0,0.05,0.05,0.15,0.273779233,0.054755847,red,k,224478,24,2020-08-15_16h47.09.255,CDT_GNG_IUS12,2020.1.2,MacIntel,60,,k,1,0.56831,0,68,68,26,1,,,,,,,,,,,,,,,,,,,,,,,,,,,,,,,,,,,,,,,,,,,,,,,,,
,,,,,,,,,,101,different,6,0.273779233,0.273779233,yellow,1,0.054755847,-0.16426754,black,1,-0.054755847,0.054755847,cyan,1,-0.054755847,-0.16426754,magenta,1,0.273779233,0.054755847,green,1,0.16426754,-0.16426754,blue,1,0.05,0.05,0.15,0.273779233,0.273779233,green,l,224478,24,2020-08-15_16h47.09.255,CDT_GNG_IUS12,2020.1.2,MacIntel,60,,l,1,1.267075,0,69,69,100,1,,,,,,,,,,,,,,,,,,,,,,,,,,,,,,,,,,,,,,,,,,,,,,,,,
,,,,,,,,,,98,different,6,-0.054755847,-0.16426754,magenta,1,0.273779233,0.273779233,green,1,0.273779233,-0.273779233,red,1,-0.16426754,0.273779233,blue,1,-0.273779233,-0.16426754,cyan,1,0.273779233,0.054755847,black,1,0.05,0.05,0.15,-0.16426754,0.273779233,cyan,l,224478,24,2020-08-15_16h47.09.255,CDT_GNG_IUS12,2020.1.2,MacIntel,60,,l,1,0.684315,0,70,70,97,1,,,,,,,,,,,,,,,,,,,,,,,,,,,,,,,,,,,,,,,,,,,,,,,,,
,,,,,,,,,,94,different,6,0.273779233,-0.273779233,green,1,-0.16426754,-0.054755847,black,1,-0.273779233,0.16426754,blue,1,0.273779233,0.054755847,cyan,1,0.16426754,-0.16426754,magenta,1,-0.054755847,-0.054755847,orange,1,0.05,0.05,0.15,0.273779233,-0.273779233,magenta,l,224478,24,2020-08-15_16h47.09.255,CDT_GNG_IUS12,2020.1.2,MacIntel,60,,k,0,0.65273,0,71,71,93,1,,,,,,,,,,,,,,,,,,,,,,,,,,,,,,,,,,,,,,,,,,,,,,,,,
,,,,,,,,,,5,same,4,0.273779233,-0.054755847,green,1,0.273779233,0.054755847,orange,1,-0.054755847,0.054755847,black,1,-0.054755847,-0.16426754,blue,1,0.054755847,-0.054755847,cyan,0,0.054755847,0.273779233,red,0,0.05,0.05,0.15,-0.054755847,-0.16426754,blue,k,224478,24,2020-08-15_16h47.09.255,CDT_GNG_IUS12,2020.1.2,MacIntel,60,,k,1,0.700945,0,72,72,4,1,,,,,,,,,,,,,,,,,,,,,,,,,,,,,,,,,,,,,,,,,,,,,,,,,
,,,,,,,,,,16,same,4,0.16426754,0.16426754,cyan,1,-0.16426754,-0.273779233,red,1,-0.16426754,0.16426754,black,1,0.273779233,-0.054755847,yellow,1,0.273779233,0.273779233,orange,0,-0.054755847,-0.273779233,blue,0,0.05,0.05,0.15,-0.16426754,-0.273779233,red,k,224478,24,2020-08-15_16h47.09.255,CDT_GNG_IUS12,2020.1.2,MacIntel,60,,l,0,1.10609,0,73,73,15,1,,,,,,,,,,,,,,,,,,,,,,,,,,,,,,,,,,,,,,,,,,,,,,,,,
,,,,,,,,,,34,different,4,0.16426754,0.16426754,yellow,1,0.273779233,-0.16426754,cyan,1,-0.273779233,-0.273779233,magenta,1,-0.273779233,0.16426754,green,1,0.054755847,0.054755847,black,0,0.273779233,-0.273779233,orange,0,0.05,0.05,0.15,0.16426754,0.16426754,cyan,l,224478,24,2020-08-15_16h47.09.255,CDT_GNG_IUS12,2020.1.2,MacIntel,60,,l,1,0.801305,0,74,74,33,1,,,,,,,,,,,,,,,,,,,,,,,,,,,,,,,,,,,,,,,,,,,,,,,,,
,,,,,,,,,,112,different,6,-0.273779233,-0.16426754,magenta,1,-0.054755847,0.054755847,orange,1,0.054755847,0.273779233,cyan,1,0.16426754,-0.273779233,yellow,1,-0.273779233,-0.273779233,black,1,-0.16426754,0.054755847,red,1,0.05,0.05,0.15,-0.16426754,0.054755847,orange,l,224478,24,2020-08-15_16h47.09.255,CDT_GNG_IUS12,2020.1.2,MacIntel,60,,l,1,0.754645,0,75,75,111,1,,,,,,,,,,,,,,,,,,,,,,,,,,,,,,,,,,,,,,,,,,,,,,,,,
,,,,,,,,,,62,same,6,0.054755847,-0.054755847,yellow,1,-0.273779233,-0.16426754,green,1,0.273779233,0.054755847,orange,1,-0.16426754,0.054755847,cyan,1,0.054755847,-0.273779233,red,1,-0.054755847,-0.054755847,blue,1,0.05,0.05,0.15,0.054755847,-0.054755847,yellow,k,224478,24,2020-08-15_16h47.09.255,CDT_GNG_IUS12,2020.1.2,MacIntel,60,,k,1,0.51673,0,76,76,61,1,,,,,,,,,,,,,,,,,,,,,,,,,,,,,,,,,,,,,,,,,,,,,,,,,
,,,,,,,,,,95,different,6,-0.273779233,-0.16426754,magenta,1,0.16426754,0.273779233,green,1,-0.273779233,0.273779233,black,1,0.16426754,-0.273779233,orange,1,-0.054755847,-0.16426754,blue,1,0.16426754,0.054755847,cyan,1,0.05,0.05,0.15,0.16426754,0.273779233,black,l,224478,24,2020-08-15_16h47.09.255,CDT_GNG_IUS12,2020.1.2,MacIntel,60,,l,1,0.754485,0,77,77,94,1,,,,,,,,,,,,,,,,,,,,,,,,,,,,,,,,,,,,,,,,,,,,,,,,,
,,,,,,,,,,39,different,4,0.054755847,0.054755847,green,1,0.273779233,-0.16426754,yellow,1,-0.16426754,0.054755847,orange,1,-0.273779233,-0.054755847,red,1,0.273779233,0.054755847,blue,0,0.054755847,-0.16426754,cyan,0,0.05,0.05,0.15,-0.273779233,-0.054755847,cyan,l,224478,24,2020-08-15_16h47.09.255,CDT_GNG_IUS12,2020.1.2,MacIntel,60,,l,1,0.55242,0,78,78,38,1,,,,,,,,,,,,,,,,,,,,,,,,,,,,,,,,,,,,,,,,,,,,,,,,,
,,,,,,,,,,44,different,4,0.16426754,0.16426754,green,1,0.16426754,-0.16426754,black,1,-0.16426754,-0.054755847,cyan,1,-0.16426754,0.054755847,magenta,1,0.16426754,0.054755847,blue,0,0.054755847,-0.273779233,yellow,0,0.05,0.05,0.15,0.16426754,0.16426754,red,l,224478,24,2020-08-15_16h47.09.255,CDT_GNG_IUS12,2020.1.2,MacIntel,60,,l,1,0.4551,0,79,79,43,1,,,,,,,,,,,,,,,,,,,,,,,,,,,,,,,,,,,,,,,,,,,,,,,,,
,,,,,,,,,,51,different,4,-0.16426754,-0.273779233,yellow,1,0.16426754,-0.273779233,cyan,1,0.273779233,0.054755847,blue,1,-0.054755847,0.273779233,green,1,-0.16426754,-0.054755847,black,0,0.273779233,-0.273779233,red,0,0.05,0.05,0.15,0.16426754,-0.273779233,red,l,224478,24,2020-08-15_16h47.09.255,CDT_GNG_IUS12,2020.1.2,MacIntel,60,,l,1,0.603065,0,80,80,50,1,,,,,,,,,,,,,,,,,,,,,,,,,,,,,,,,,,,,,,,,,,,,,,,,,
,,,,,,,,,,17,same,4,0.16426754,0.273779233,yellow,1,-0.054755847,0.16426754,orange,1,0.273779233,-0.054755847,cyan,1,-0.273779233,-0.054755847,green,1,0.16426754,0.16426754,blue,0,-0.054755847,0.273779233,magenta,0,0.05,0.05,0.15,0.16426754,0.273779233,yellow,k,224478,24,2020-08-15_16h47.09.255,CDT_GNG_IUS12,2020.1.2,MacIntel,60,,k,1,0.589615,0,81,81,16,1,,,,,,,,,,,,,,,,,,,,,,,,,,,,,,,,,,,,,,,,,,,,,,,,,
,,,,,,,,,,56,different,4,0.16426754,0.054755847,red,1,-0.054755847,0.16426754,orange,1,0.16426754,-0.16426754,black,1,-0.273779233,-0.054755847,yellow,1,0.16426754,0.273779233,blue,0,-0.054755847,0.273779233,magenta,0,0.05,0.05,0.15,-0.273779233,-0.054755847,green,l,224478,24,2020-08-15_16h47.09.255,CDT_GNG_IUS12,2020.1.2,MacIntel,60,,l,1,0.468935,0,82,82,55,1,,,,,,,,,,,,,,,,,,,,,,,,,,,,,,,,,,,,,,,,,,,,,,,,,
,,,,,,,,,,21,same,4,0.273779233,0.273779233,black,1,-0.273779233,-0.273779233,blue,1,0.054755847,-0.16426754,yellow,1,-0.273779233,0.054755847,cyan,1,0.16426754,0.273779233,magenta,0,-0.054755847,-0.054755847,green,0,0.05,0.05,0.15,0.273779233,0.273779233,black,k,224478,24,2020-08-15_16h47.09.255,CDT_GNG_IUS12,2020.1.2,MacIntel,60,,k,1,1.40236,0,83,83,20,1,,,,,,,,,,,,,,,,,,,,,,,,,,,,,,,,,,,,,,,,,,,,,,,,,
,,,,,,,,,,2,same,4,0.273779233,0.054755847,magenta,1,-0.273779233,0.273779233,red,1,-0.054755847,-0.054755847,yellow,1,0.273779233,-0.273779233,blue,1,0.054755847,0.16426754,green,0,-0.16426754,0.054755847,cyan,0,0.05,0.05,0.15,0.273779233,-0.273779233,blue,k,224478,24,2020-08-15_16h47.09.255,CDT_GNG_IUS12,2020.1.2,MacIntel,60,,l,0,0.651455,0,84,84,1,1,,,,,,,,,,,,,,,,,,,,,,,,,,,,,,,,,,,,,,,,,,,,,,,,,
,,,,,,,,,,14,same,4,0.16426754,0.16426754,magenta,1,-0.16426754,0.16426754,blue,1,0.16426754,-0.16426754,green,1,-0.16426754,-0.16426754,red,1,0.16426754,0.273779233,cyan,0,-0.16426754,0.273779233,orange,0,0.05,0.05,0.15,-0.16426754,0.16426754,blue,k,224478,24,2020-08-15_16h47.09.255,CDT_GNG_IUS12,2020.1.2,MacIntel,60,,k,1,0.667965,0,85,85,13,1,,,,,,,,,,,,,,,,,,,,,,,,,,,,,,,,,,,,,,,,,,,,,,,,,
,,,,,,,,,,49,different,4,-0.16426754,-0.273779233,black,1,0.16426754,0.16426754,red,1,-0.273779233,0.16426754,yellow,1,0.054755847,-0.273779233,green,1,-0.273779233,-0.273779233,magenta,0,0.054755847,0.273779233,blue,0,0.05,0.05,0.15,0.054755847,-0.273779233,orange,l,224478,24,2020-08-15_16h47.09.255,CDT_GNG_IUS12,2020.1.2,MacIntel,60,,l,1,0.584865,0,86,86,48,1,,,,,,,,,,,,,,,,,,,,,,,,,,,,,,,,,,,,,,,,,,,,,,,,,
,,,,,,,,,,20,same,4,0.273779233,0.054755847,magenta,1,0.054755847,-0.273779233,black,1,-0.054755847,0.16426754,blue,1,-0.273779233,-0.054755847,orange,1,0.054755847,0.054755847,red,0,0.054755847,-0.054755847,cyan,0,0.05,0.05,0.15,-0.054755847,0.16426754,blue,k,224478,24,2020-08-15_16h47.09.255,CDT_GNG_IUS12,2020.1.2,MacIntel,60,,k,1,1.01755,0,87,87,19,1,,,,,,,,,,,,,,,,,,,,,,,,,,,,,,,,,,,,,,,,,,,,,,,,,
,,,,,,,,,,53,different,4,-0.16426754,0.054755847,green,1,0.273779233,0.054755847,cyan,1,-0.273779233,-0.273779233,magenta,1,0.054755847,-0.16426754,black,1,-0.054755847,0.16426754,red,0,0.273779233,0.273779233,blue,0,0.05,0.05,0.15,-0.273779233,-0.273779233,black,l,224478,24,2020-08-15_16h47.09.255,CDT_GNG_IUS12,2020.1.2,MacIntel,60,,l,1,0.66821,0,88,88,52,1,,,,,,,,,,,,,,,,,,,,,,,,,,,,,,,,,,,,,,,,,,,,,,,,,
,,,,,,,,,,72,same,6,0.273779233,-0.16426754,blue,1,0.16426754,0.273779233,yellow,1,-0.16426754,0.273779233,magenta,1,-0.273779233,-0.054755847,orange,1,0.054755847,-0.16426754,cyan,1,0.273779233,0.054755847,black,1,0.05,0.05,0.15,-0.16426754,0.273779233,magenta,k,224478,24,2020-08-15_16h47.09.255,CDT_GNG_IUS12,2020.1.2,MacIntel,60,,k,1,0.720985,0,89,89,71,1,,,,,,,,,,,,,,,,,,,,,,,,,,,,,,,,,,,,,,,,,,,,,,,,,
,,,,,,,,,,23,same,4,0.273779233,-0.16426754,yellow,1,0.054755847,0.273779233,red,1,-0.054755847,0.054755847,black,1,-0.273779233,-0.054755847,orange,1,0.273779233,-0.054755847,green,0,0.273779233,0.054755847,magenta,0,0.05,0.05,0.15,-0.054755847,0.054755847,black,k,224478,24,2020-08-15_16h47.09.255,CDT_GNG_IUS12,2020.1.2,MacIntel,60,,k,1,0.48448,0,90,90,22,1,,,,,,,,,,,,,,,,,,,,,,,,,,,,,,,,,,,,,,,,,,,,,,,,,
,,,,,,,,,,71,same,6,-0.054755847,-0.16426754,orange,1,0.273779233,0.054755847,green,1,0.16426754,-0.16426754,yellow,1,-0.054755847,0.054755847,blue,1,-0.054755847,-0.273779233,black,1,0.054755847,0.16426754,cyan,1,0.05,0.05,0.15,-0.054755847,0.054755847,blue,k,224478,24,2020-08-15_16h47.09.255,CDT_GNG_IUS12,2020.1.2,MacIntel,60,,k,1,0.400615,0,91,91,70,1,,,,,,,,,,,,,,,,,,,,,,,,,,,,,,,,,,,,,,,,,,,,,,,,,
,,,,,,,,,,85,same,6,-0.16426754,-0.273779233,black,1,-0.16426754,0.16426754,green,1,0.16426754,-0.054755847,blue,1,0.054755847,0.054755847,magenta,1,-0.16426754,-0.054755847,red,1,-0.054755847,0.054755847,yellow,1,0.05,0.05,0.15,-0.16426754,-0.273779233,black,k,224478,24,2020-08-15_16h47.09.255,CDT_GNG_IUS12,2020.1.2,MacIntel,60,,l,0,0.650805,0,92,92,84,1,,,,,,,,,,,,,,,,,,,,,,,,,,,,,,,,,,,,,,,,,,,,,,,,,
,,,,,,,,,,40,different,4,-0.273779233,-0.273779233,magenta,1,0.054755847,-0.16426754,yellow,1,-0.16426754,0.054755847,red,1,0.273779233,0.273779233,orange,1,-0.054755847,-0.054755847,cyan,0,0.16426754,-0.16426754,green,0,0.05,0.05,0.15,0.273779233,0.273779233,black,l,224478,24,2020-08-15_16h47.09.255,CDT_GNG_IUS12,2020.1.2,MacIntel,60,,l,1,0.517555,0,93,93,39,1,,,,,,,,,,,,,,,,,,,,,,,,,,,,,,,,,,,,,,,,,,,,,,,,,
,,,,,,,,,,105,different,6,0.054755847,0.273779233,cyan,1,0.273779233,-0.16426754,magenta,1,-0.16426754,-0.054755847,yellow,1,-0.16426754,0.16426754,blue,1,0.273779233,0.16426754,orange,1,0.16426754,-0.273779233,green,1,0.05,0.05,0.15,0.16426754,-0.273779233,blue,l,224478,24,2020-08-15_16h47.09.255,CDT_GNG_IUS12,2020.1.2,MacIntel,60,,l,1,0.567865,0,94,94,104,1,,,,,,,,,,,,,,,,,,,,,,,,,,,,,,,,,,,,,,,,,,,,,,,,,
,,,,,,,,,,42,different,4,0.273779233,0.16426754,cyan,1,-0.054755847,0.16426754,magenta,1,0.16426754,-0.054755847,green,1,-0.16426754,-0.16426754,red,1,0.16426754,0.273779233,black,0,-0.054755847,0.273779233,yellow,0,0.05,0.05,0.15,0.273779233,0.16426754,blue,l,224478,24,2020-08-15_16h47.09.255,CDT_GNG_IUS12,2020.1.2,MacIntel,60,,l,1,0.66779,0,95,95,41,1,,,,,,,,,,,,,,,,,,,,,,,,,,,,,,,,,,,,,,,,,,,,,,,,,
,,,,,,,,,,61,same,6,0.273779233,0.16426754,cyan,1,0.273779233,-0.273779233,blue,1,-0.16426754,-0.16426754,green,1,-0.16426754,0.273779233,black,1,0.16426754,0.054755847,red,1,0.273779233,-0.16426754,yellow,1,0.05,0.05,0.15,0.273779233,-0.16426754,yellow,k,224478,24,2020-08-15_16h47.09.255,CDT_GNG_IUS12,2020.1.2,MacIntel,60,,l,0,0.58426,0,96,96,60,1,,,,,,,,,,,,,,,,,,,,,,,,,,,,,,,,,,,,,,,,,,,,,,,,,
,,,,,,,,,,109,different,6,-0.273779233,-0.16426754,blue,1,0.054755847,-0.16426754,black,1,-0.054755847,0.054755847,cyan,1,0.054755847,0.16426754,green,1,-0.054755847,-0.054755847,yellow,1,0.16426754,-0.273779233,orange,1,0.05,0.05,0.15,-0.273779233,-0.16426754,green,l,224478,24,2020-08-15_16h47.09.255,CDT_GNG_IUS12,2020.1.2,MacIntel,60,,l,1,0.617245,0,97,97,108,1,,,,,,,,,,,,,,,,,,,,,,,,,,,,,,,,,,,,,,,,,,,,,,,,,
,,,,,,,,,,86,same,6,0.054755847,0.273779233,green,1,-0.054755847,0.273779233,red,1,0.16426754,-0.16426754,yellow,1,-0.054755847,-0.273779233,black,1,0.273779233,0.273779233,cyan,1,-0.273779233,0.054755847,orange,1,0.05,0.05,0.15,-0.273779233,0.054755847,orange,k,224478,24,2020-08-15_16h47.09.255,CDT_GNG_IUS12,2020.1.2,MacIntel,60,,k,1,0.667755,0,98,98,85,1,,,,,,,,,,,,,,,,,,,,,,,,,,,,,,,,,,,,,,,,,,,,,,,,,
,,,,,,,,,,111,different,6,0.273779233,0.273779233,green,1,0.054755847,-0.16426754,red,1,-0.16426754,-0.16426754,black,1,-0.16426754,0.16426754,magenta,1,0.054755847,0.054755847,blue,1,0.273779233,-0.16426754,yellow,1,0.05,0.05,0.15,0.273779233,-0.16426754,green,l,224478,24,2020-08-15_16h47.09.255,CDT_GNG_IUS12,2020.1.2,MacIntel,60,,l,1,0.715805,0,99,99,110,1,,,,,,,,,,,,,,,,,,,,,,,,,,,,,,,,,,,,,,,,,,,,,,,,,
,,,,,,,,,,55,different,4,0.273779233,0.054755847,yellow,1,0.054755847,-0.16426754,green,1,-0.273779233,-0.16426754,orange,1,-0.273779233,0.273779233,blue,1,0.273779233,0.273779233,red,0,0.273779233,-0.16426754,cyan,0,0.05,0.05,0.15,0.054755847,-0.16426754,red,l,224478,24,2020-08-15_16h47.09.255,CDT_GNG_IUS12,2020.1.2,MacIntel,60,,l,1,0.518555,0,100,100,54,1,,,,,,,,,,,,,,,,,,,,,,,,,,,,,,,,,,,,,,,,,,,,,,,,,
,,,,,,,,,,57,different,4,-0.273779233,-0.054755847,yellow,1,0.16426754,-0.054755847,green,1,-0.273779233,0.16426754,red,1,0.273779233,0.054755847,black,1,-0.16426754,-0.054755847,orange,0,0.054755847,-0.16426754,magenta,0,0.05,0.05,0.15,0.16426754,-0.054755847,orange,l,224478,24,2020-08-15_16h47.09.255,CDT_GNG_IUS12,2020.1.2,MacIntel,60,,l,1,0.568225,0,101,101,56,1,,,,,,,,,,,,,,,,,,,,,,,,,,,,,,,,,,,,,,,,,,,,,,,,,
,,,,,,,,,,84,same,6,-0.273779233,-0.16426754,black,1,0.273779233,0.273779233,blue,1,-0.054755847,0.054755847,red,1,0.16426754,-0.054755847,orange,1,-0.16426754,-0.16426754,cyan,1,0.16426754,0.16426754,magenta,1,0.05,0.05,0.15,-0.16426754,-0.16426754,cyan,k,224478,24,2020-08-15_16h47.09.255,CDT_GNG_IUS12,2020.1.2,MacIntel,60,,l,0,0.88421,0,102,102,83,1,,,,,,,,,,,,,,,,,,,,,,,,,,,,,,,,,,,,,,,,,,,,,,,,,
,,,,,,,,,,52,different,4,-0.273779233,-0.16426754,magenta,1,-0.273779233,0.054755847,green,1,0.273779233,-0.054755847,cyan,1,0.273779233,0.054755847,black,1,-0.16426754,-0.16426754,orange,0,-0.054755847,0.054755847,red,0,0.05,0.05,0.15,-0.273779233,-0.16426754,black,l,224478,24,2020-08-15_16h47.09.255,CDT_GNG_IUS12,2020.1.2,MacIntel,60,,k,0,0.81734,0,103,103,51,1,,,,,,,,,,,,,,,,,,,,,,,,,,,,,,,,,,,,,,,,,,,,,,,,,
,,,,,,,,,,68,same,6,0.16426754,-0.054755847,blue,1,-0.054755847,-0.16426754,orange,1,-0.16426754,0.054755847,red,1,0.16426754,0.273779233,magenta,1,0.054755847,-0.054755847,black,1,-0.273779233,-0.273779233,yellow,1,0.05,0.05,0.15,-0.054755847,-0.16426754,orange,k,224478,24,2020-08-15_16h47.09.255,CDT_GNG_IUS12,2020.1.2,MacIntel,60,,l,0,0.63593,0,104,104,67,1,,,,,,,,,,,,,,,,,,,,,,,,,,,,,,,,,,,,,,,,,,,,,,,,,
,,,,,,,,,,22,same,4,-0.054755847,-0.16426754,green,1,-0.16426754,0.054755847,blue,1,0.16426754,0.16426754,yellow,1,0.273779233,-0.054755847,black,1,-0.273779233,-0.054755847,red,0,-0.054755847,0.16426754,cyan,0,0.05,0.05,0.15,0.273779233,-0.054755847,black,k,224478,24,2020-08-15_16h47.09.255,CDT_GNG_IUS12,2020.1.2,MacIntel,60,,k,1,0.684925,0,105,105,21,1,,,,,,,,,,,,,,,,,,,,,,,,,,,,,,,,,,,,,,,,,,,,,,,,,
,,,,,,,,,,41,different,4,0.054755847,-0.273779233,orange,1,-0.273779233,0.054755847,blue,1,-0.054755847,-0.16426754,yellow,1,0.273779233,0.16426754,red,1,0.273779233,-0.273779233,black,0,-0.273779233,0.273779233,magenta,0,0.05,0.05,0.15,-0.054755847,-0.16426754,black,l,224478,24,2020-08-15_16h47.09.255,CDT_GNG_IUS12,2020.1.2,MacIntel,60,,l,1,0.534335,0,106,106,40,1,,,,,,,,,,,,,,,,,,,,,,,,,,,,,,,,,,,,,,,,,,,,,,,,,
,,,,,,,,,,88,same,6,0.054755847,0.054755847,orange,1,0.054755847,-0.273779233,red,1,-0.16426754,-0.16426754,magenta,1,-0.16426754,0.273779233,yellow,1,0.16426754,0.16426754,blue,1,0.273779233,-0.16426754,cyan,1,0.05,0.05,0.15,-0.16426754,0.273779233,yellow,k,224478,24,2020-08-15_16h47.09.255,CDT_GNG_IUS12,2020.1.2,MacIntel,60,,k,1,0.73535,0,107,107,87,1,,,,,,,,,,,,,,,,,,,,,,,,,,,,,,,,,,,,,,,,,,,,,,,,,
,,,,,,,,,,99,different,6,0.054755847,0.16426754,orange,1,0.16426754,-0.16426754,yellow,1,-0.16426754,0.273779233,red,1,-0.273779233,-0.054755847,magenta,1,0.16426754,0.054755847,black,1,0.054755847,-0.054755847,green,1,0.05,0.05,0.15,-0.16426754,0.273779233,blue,l,224478,24,2020-08-15_16h47.09.255,CDT_GNG_IUS12,2020.1.2,MacIntel,60,,l,1,0.6706,0,108,108,98,1,,,,,,,,,,,,,,,,,,,,,,,,,,,,,,,,,,,,,,,,,,,,,,,,,
,,,,,,,,,,120,different,6,0.16426754,-0.054755847,blue,1,-0.16426754,-0.273779233,cyan,1,0.16426754,0.16426754,magenta,1,-0.273779233,0.273779233,black,1,0.273779233,-0.16426754,green,1,-0.273779233,-0.16426754,orange,1,0.05,0.05,0.15,0.16426754,0.16426754,yellow,l,224478,24,2020-08-15_16h47.09.255,CDT_GNG_IUS12,2020.1.2,MacIntel,60,,l,1,0.551395,0,109,109,119,1,,,,,,,,,,,,,,,,,,,,,,,,,,,,,,,,,,,,,,,,,,,,,,,,,
,,,,,,,,,,83,same,6,0.054755847,-0.16426754,cyan,1,-0.16426754,-0.16426754,blue,1,0.273779233,0.054755847,magenta,1,-0.273779233,0.273779233,green,1,0.273779233,-0.16426754,orange,1,-0.054755847,-0.054755847,yellow,1,0.05,0.05,0.15,-0.054755847,-0.054755847,yellow,k,224478,24,2020-08-15_16h47.09.255,CDT_GNG_IUS12,2020.1.2,MacIntel,60,,k,1,0.754865,0,110,110,82,1,,,,,,,,,,,,,,,,,,,,,,,,,,,,,,,,,,,,,,,,,,,,,,,,,
,,,,,,,,,,43,different,4,-0.16426754,-0.054755847,red,1,0.273779233,0.054755847,cyan,1,-0.16426754,0.054755847,orange,1,0.054755847,-0.054755847,blue,1,-0.054755847,-0.273779233,magenta,0,0.273779233,0.273779233,yellow,0,0.05,0.05,0.15,-0.16426754,-0.054755847,yellow,l,224478,24,2020-08-15_16h47.09.255,CDT_GNG_IUS12,2020.1.2,MacIntel,60,,l,1,0.61651,0,111,111,42,1,,,,,,,,,,,,,,,,,,,,,,,,,,,,,,,,,,,,,,,,,,,,,,,,,
,,,,,,,,,,11,same,4,0.273779233,0.16426754,black,1,-0.054755847,0.273779233,cyan,1,0.16426754,-0.054755847,blue,1,-0.273779233,-0.16426754,orange,1,0.054755847,0.273779233,magenta,0,-0.273779233,0.054755847,green,0,0.05,0.05,0.15,0.273779233,0.16426754,black,k,224478,24,2020-08-15_16h47.09.255,CDT_GNG_IUS12,2020.1.2,MacIntel,60,,l,0,0.91684,0,112,112,10,1,,,,,,,,,,,,,,,,,,,,,,,,,,,,,,,,,,,,,,,,,,,,,,,,,
,,,,,,,,,,69,same,6,-0.054755847,-0.054755847,black,1,0.273779233,-0.054755847,orange,1,-0.273779233,0.16426754,blue,1,0.054755847,0.054755847,yellow,1,-0.16426754,-0.16426754,green,1,0.054755847,-0.16426754,magenta,1,0.05,0.05,0.15,-0.16426754,-0.16426754,green,k,224478,24,2020-08-15_16h47.09.255,CDT_GNG_IUS12,2020.1.2,MacIntel,60,,l,0,0.75188,0,113,113,68,1,,,,,,,,,,,,,,,,,,,,,,,,,,,,,,,,,,,,,,,,,,,,,,,,,
,,,,,,,,,,77,same,6,0.273779233,0.273779233,black,1,-0.273779233,-0.16426754,red,1,0.16426754,-0.054755847,magenta,1,-0.054755847,0.16426754,cyan,1,0.16426754,0.273779233,orange,1,-0.16426754,-0.273779233,blue,1,0.05,0.05,0.15,-0.273779233,-0.16426754,red,k,224478,24,2020-08-15_16h47.09.255,CDT_GNG_IUS12,2020.1.2,MacIntel,60,,l,0,0.71738,0,114,114,76,1,,,,,,,,,,,,,,,,,,,,,,,,,,,,,,,,,,,,,,,,,,,,,,,,,
,,,,,,,,,,89,same,6,-0.054755847,-0.273779233,cyan,1,-0.16426754,0.16426754,green,1,0.273779233,0.273779233,black,1,0.273779233,-0.273779233,orange,1,-0.273779233,-0.16426754,magenta,1,-0.16426754,0.273779233,yellow,1,0.05,0.05,0.15,-0.16426754,0.273779233,yellow,k,224478,24,2020-08-15_16h47.09.255,CDT_GNG_IUS12,2020.1.2,MacIntel,60,,l,0,0.767755,0,115,115,88,1,,,,,,,,,,,,,,,,,,,,,,,,,,,,,,,,,,,,,,,,,,,,,,,,,
,,,,,,,,,,104,different,6,0.054755847,-0.16426754,magenta,1,0.273779233,0.273779233,yellow,1,-0.273779233,0.273779233,blue,1,-0.16426754,-0.054755847,cyan,1,0.16426754,-0.054755847,orange,1,0.273779233,0.16426754,green,1,0.05,0.05,0.15,0.054755847,-0.16426754,cyan,l,224478,24,2020-08-15_16h47.09.255,CDT_GNG_IUS12,2020.1.2,MacIntel,60,,l,1,0.73446,0,116,116,103,1,,,,,,,,,,,,,,,,,,,,,,,,,,,,,,,,,,,,,,,,,,,,,,,,,
,,,,,,,,,,35,different,4,-0.054755847,-0.054755847,black,1,0.054755847,0.273779233,magenta,1,-0.273779233,0.054755847,blue,1,0.273779233,-0.054755847,red,1,-0.054755847,-0.16426754,cyan,0,0.054755847,0.054755847,yellow,0,0.05,0.05,0.15,0.054755847,0.273779233,cyan,l,224478,24,2020-08-15_16h47.09.255,CDT_GNG_IUS12,2020.1.2,MacIntel,60,,l,1,0.80113,0,117,117,34,1,,,,,,,,,,,,,,,,,,,,,,,,,,,,,,,,,,,,,,,,,,,,,,,,,
,,,,,,,,,,38,different,4,0.273779233,-0.16426754,red,1,-0.054755847,0.16426754,blue,1,-0.273779233,-0.054755847,green,1,0.273779233,0.054755847,cyan,1,0.16426754,-0.054755847,orange,0,-0.054755847,0.054755847,yellow,0,0.05,0.05,0.15,0.273779233,0.054755847,black,l,224478,24,2020-08-15_16h47.09.255,CDT_GNG_IUS12,2020.1.2,MacIntel,60,,l,1,1.318875,0,118,118,37,1,,,,,,,,,,,,,,,,,,,,,,,,,,,,,,,,,,,,,,,,,,,,,,,,,
,,,,,,,,,,26,same,4,0.16426754,-0.16426754,green,1,-0.054755847,0.16426754,yellow,1,-0.273779233,-0.16426754,black,1,0.054755847,0.054755847,red,1,0.16426754,-0.054755847,cyan,0,-0.273779233,0.273779233,magenta,0,0.05,0.05,0.15,-0.054755847,0.16426754,yellow,k,224478,24,2020-08-15_16h47.09.255,CDT_GNG_IUS12,2020.1.2,MacIntel,60,,k,1,0.58559,0,119,119,25,1,,,,,,,,,,,,,,,,,,,,,,,,,,,,,,,,,,,,,,,,,,,,,,,,,
,,,,,,,,,,,,,,,,,,,,,,,,,,,,,,,,,,,,,,,,,,,,224478,24,2020-08-15_16h47.09.255,CDT_GNG_IUS12,2020.1.2,MacIntel,60,,,,,,,,,,,,1,0,0,0,3,1,1,0,,,,,,,,,,,,,,,,,,,,,,,,,,,,,,,,,,,,,,,
,,,,,,,,,,,,,,,,,,,,,,,,,,,,,,,,,,,,,,,,,,,space,224478,24,2020-08-15_16h47.09.255,CDT_GNG_IUS12,2020.1.2,MacIntel,60,,,,,,,,,,,space,1,0,1,1,5,1,0,1,0.61979,,,,,,,,,,,,,,,,,,,,,,,,,,,,,,,,,,,,,,
,,,,,,,,,,,,,,,,,,,,,,,,,,,,,,,,,,,,,,,,,,,,224478,24,2020-08-15_16h47.09.255,CDT_GNG_IUS12,2020.1.2,MacIntel,60,,,,,,,,,,,,1,0,2,2,2,1,1,0,,,,,,,,,,,,,,,,,,,,,,,,,,,,,,,,,,,,,,,
,,,,,,,,,,,,,,,,,,,,,,,,,,,,,,,,,,,,,,,,,,,space,224478,24,2020-08-15_16h47.09.255,CDT_GNG_IUS12,2020.1.2,MacIntel,60,,,,,,,,,,,space,1,0,3,3,4,1,0,1,0.350645,,,,,,,,,,,,,,,,,,,,,,,,,,,,,,,,,,,,,,
,,,,,,,,,,,,,,,,,,,,,,,,,,,,,,,,,,,,,,,,,,,,224478,24,2020-08-15_16h47.09.255,CDT_GNG_IUS12,2020.1.2,MacIntel,60,,,,,,,,,,,,1,0,4,4,1,1,1,0,,,,,,,,,,,,,,,,,,,,,,,,,,,,,,,,,,,,,,,
,,,,,,,,,,,,,,,,,,,,,,,,,,,,,,,,,,,,,,,,,,,space,224478,24,2020-08-15_16h47.09.255,CDT_GNG_IUS12,2020.1.2,MacIntel,60,,,,,,,,,,,space,1,0,5,5,7,1,0,1,0.33797,,,,,,,,,,,,,,,,,,,,,,,,,,,,,,,,,,,,,,
,,,,,,,,,,,,,,,,,,,,,,,,,,,,,,,,,,,,,,,,,,,,224478,24,2020-08-15_16h47.09.255,CDT_GNG_IUS12,2020.1.2,MacIntel,60,,,,,,,,,,,,1,0,6,6,0,1,1,0,,,,,,,,,,,,,,,,,,,,,,,,,,,,,,,,,,,,,,,
,,,,,,,,,,,,,,,,,,,,,,,,,,,,,,,,,,,,,,,,,,,space,224478,24,2020-08-15_16h47.09.255,CDT_GNG_IUS12,2020.1.2,MacIntel,60,,,,,,,,,,,space,1,0,7,7,6,1,0,1,0.284885,,,,,,,,,,,,,,,,,,,,,,,,,,,,,,,,,,,,,,
,,,,,,,,,,,,,,,,,,,,,,,,,,,,,,,,,,,,,,,,,,,space,224478,24,2020-08-15_16h47.09.255,CDT_GNG_IUS12,2020.1.2,MacIntel,60,,,,,,,,,,,,,,,,,,0,1,,space,1,0.38341,0,0,0,48,1,,,,,,,,,,,,,,,,,,,,,,,,,,,,,,
,,,,,,,,,,,,,,,,,,,,,,,,,,,,,,,,,,,,,,,,,,,space,224478,24,2020-08-15_16h47.09.255,CDT_GNG_IUS12,2020.1.2,MacIntel,60,,,,,,,,,,,,,,,,,,0,1,,,0,,0,1,1,18,1,,,,,,,,,,,,,,,,,,,,,,,,,,,,,,
,,,,,,,,,,,,,,,,,,,,,,,,,,,,,,,,,,,,,,,,,,,space,224478,24,2020-08-15_16h47.09.255,CDT_GNG_IUS12,2020.1.2,MacIntel,60,,,,,,,,,,,,,,,,,,0,1,,space,1,0.30209,0,2,2,12,1,,,,,,,,,,,,,,,,,,,,,,,,,,,,,,
,,,,,,,,,,,,,,,,,,,,,,,,,,,,,,,,,,,,,,,,,,,space,224478,24,2020-08-15_16h47.09.255,CDT_GNG_IUS12,2020.1.2,MacIntel,60,,,,,,,,,,,,,,,,,,0,1,,space,1,0.268285,0,3,3,15,1,,,,,,,,,,,,,,,,,,,,,,,,,,,,,,
,,,,,,,,,,,,,,,,,,,,,,,,,,,,,,,,,,,,,,,,,,,space,224478,24,2020-08-15_16h47.09.255,CDT_GNG_IUS12,2020.1.2,MacIntel,60,,,,,,,,,,,,,,,,,,0,1,,space,1,0.302815,0,4,4,42,1,,,,,,,,,,,,,,,,,,,,,,,,,,,,,,
,,,,,,,,,,,,,,,,,,,,,,,,,,,,,,,,,,,,,,,,,,,space,224478,24,2020-08-15_16h47.09.255,CDT_GNG_IUS12,2020.1.2,MacIntel,60,,,,,,,,,,,,,,,,,,0,1,,space,1,0.317295,0,5,5,20,1,,,,,,,,,,,,,,,,,,,,,,,,,,,,,,
,,,,,,,,,,,,,,,,,,,,,,,,,,,,,,,,,,,,,,,,,,,,224478,24,2020-08-15_16h47.09.255,CDT_GNG_IUS12,2020.1.2,MacIntel,60,,,,,,,,,,,,,,,,,,1,0,,,1,,0,6,6,2,1,,,,,,,,,,,,,,,,,,,,,,,,,,,,,,
,,,,,,,,,,,,,,,,,,,,,,,,,,,,,,,,,,,,,,,,,,,space,224478,24,2020-08-15_16h47.09.255,CDT_GNG_IUS12,2020.1.2,MacIntel,60,,,,,,,,,,,,,,,,,,0,1,,space,1,0.29965,0,7,7,47,1,,,,,,,,,,,,,,,,,,,,,,,,,,,,,,
,,,,,,,,,,,,,,,,,,,,,,,,,,,,,,,,,,,,,,,,,,,space,224478,24,2020-08-15_16h47.09.255,CDT_GNG_IUS12,2020.1.2,MacIntel,60,,,,,,,,,,,,,,,,,,0,1,,space,1,0.418255,0,8,8,45,1,,,,,,,,,,,,,,,,,,,,,,,,,,,,,,
,,,,,,,,,,,,,,,,,,,,,,,,,,,,,,,,,,,,,,,,,,,space,224478,24,2020-08-15_16h47.09.255,CDT_GNG_IUS12,2020.1.2,MacIntel,60,,,,,,,,,,,,,,,,,,0,1,,space,1,0.384475,0,9,9,33,1,,,,,,,,,,,,,,,,,,,,,,,,,,,,,,
,,,,,,,,,,,,,,,,,,,,,,,,,,,,,,,,,,,,,,,,,,,space,224478,24,2020-08-15_16h47.09.255,CDT_GNG_IUS12,2020.1.2,MacIntel,60,,,,,,,,,,,,,,,,,,0,1,,space,1,0.367665,0,10,10,49,1,,,,,,,,,,,,,,,,,,,,,,,,,,,,,,
,,,,,,,,,,,,,,,,,,,,,,,,,,,,,,,,,,,,,,,,,,,space,224478,24,2020-08-15_16h47.09.255,CDT_GNG_IUS12,2020.1.2,MacIntel,60,,,,,,,,,,,,,,,,,,0,1,,space,1,0.31816,0,11,11,36,1,,,,,,,,,,,,,,,,,,,,,,,,,,,,,,
,,,,,,,,,,,,,,,,,,,,,,,,,,,,,,,,,,,,,,,,,,,space,224478,24,2020-08-15_16h47.09.255,CDT_GNG_IUS12,2020.1.2,MacIntel,60,,,,,,,,,,,,,,,,,,0,1,,space,1,0.30326,0,12,12,40,1,,,,,,,,,,,,,,,,,,,,,,,,,,,,,,
,,,,,,,,,,,,,,,,,,,,,,,,,,,,,,,,,,,,,,,,,,,space,224478,24,2020-08-15_16h47.09.255,CDT_GNG_IUS12,2020.1.2,MacIntel,60,,,,,,,,,,,,,,,,,,0,1,,space,1,0.30199,0,13,13,46,1,,,,,,,,,,,,,,,,,,,,,,,,,,,,,,
,,,,,,,,,,,,,,,,,,,,,,,,,,,,,,,,,,,,,,,,,,,,224478,24,2020-08-15_16h47.09.255,CDT_GNG_IUS12,2020.1.2,MacIntel,60,,,,,,,,,,,,,,,,,,1,0,,,1,,0,14,14,4,1,,,,,,,,,,,,,,,,,,,,,,,,,,,,,,
,,,,,,,,,,,,,,,,,,,,,,,,,,,,,,,,,,,,,,,,,,,space,224478,24,2020-08-15_16h47.09.255,CDT_GNG_IUS12,2020.1.2,MacIntel,60,,,,,,,,,,,,,,,,,,0,1,,space,1,0.27173,0,15,15,38,1,,,,,,,,,,,,,,,,,,,,,,,,,,,,,,
,,,,,,,,,,,,,,,,,,,,,,,,,,,,,,,,,,,,,,,,,,,,224478,24,2020-08-15_16h47.09.255,CDT_GNG_IUS12,2020.1.2,MacIntel,60,,,,,,,,,,,,,,,,,,1,0,,,1,,0,16,16,9,1,,,,,,,,,,,,,,,,,,,,,,,,,,,,,,
,,,,,,,,,,,,,,,,,,,,,,,,,,,,,,,,,,,,,,,,,,,space,224478,24,2020-08-15_16h47.09.255,CDT_GNG_IUS12,2020.1.2,MacIntel,60,,,,,,,,,,,,,,,,,,0,1,,space,1,0.266005,0,17,17,27,1,,,,,,,,,,,,,,,,,,,,,,,,,,,,,,
,,,,,,,,,,,,,,,,,,,,,,,,,,,,,,,,,,,,,,,,,,,,224478,24,2020-08-15_16h47.09.255,CDT_GNG_IUS12,2020.1.2,MacIntel,60,,,,,,,,,,,,,,,,,,1,0,,,1,,0,18,18,3,1,,,,,,,,,,,,,,,,,,,,,,,,,,,,,,
,,,,,,,,,,,,,,,,,,,,,,,,,,,,,,,,,,,,,,,,,,,space,224478,24,2020-08-15_16h47.09.255,CDT_GNG_IUS12,2020.1.2,MacIntel,60,,,,,,,,,,,,,,,,,,0,1,,space,1,0.26851,0,19,19,19,1,,,,,,,,,,,,,,,,,,,,,,,,,,,,,,
,,,,,,,,,,,,,,,,,,,,,,,,,,,,,,,,,,,,,,,,,,,space,224478,24,2020-08-15_16h47.09.255,CDT_GNG_IUS12,2020.1.2,MacIntel,60,,,,,,,,,,,,,,,,,,0,1,,,0,,0,20,20,31,1,,,,,,,,,,,,,,,,,,,,,,,,,,,,,,
,,,,,,,,,,,,,,,,,,,,,,,,,,,,,,,,,,,,,,,,,,,,224478,24,2020-08-15_16h47.09.255,CDT_GNG_IUS12,2020.1.2,MacIntel,60,,,,,,,,,,,,,,,,,,1,0,,space,0,0.001515,0,21,21,7,1,,,,,,,,,,,,,,,,,,,,,,,,,,,,,,
,,,,,,,,,,,,,,,,,,,,,,,,,,,,,,,,,,,,,,,,,,,,224478,24,2020-08-15_16h47.09.255,CDT_GNG_IUS12,2020.1.2,MacIntel,60,,,,,,,,,,,,,,,,,,1,0,,,1,,0,22,22,5,1,,,,,,,,,,,,,,,,,,,,,,,,,,,,,,
,,,,,,,,,,,,,,,,,,,,,,,,,,,,,,,,,,,,,,,,,,,,224478,24,2020-08-15_16h47.09.255,CDT_GNG_IUS12,2020.1.2,MacIntel,60,,,,,,,,,,,,,,,,,,1,0,,,1,,0,23,23,6,1,,,,,,,,,,,,,,,,,,,,,,,,,,,,,,
,,,,,,,,,,,,,,,,,,,,,,,,,,,,,,,,,,,,,,,,,,,space,224478,24,2020-08-15_16h47.09.255,CDT_GNG_IUS12,2020.1.2,MacIntel,60,,,,,,,,,,,,,,,,,,0,1,,space,1,0.370405,0,24,24,21,1,,,,,,,,,,,,,,,,,,,,,,,,,,,,,,
,,,,,,,,,,,,,,,,,,,,,,,,,,,,,,,,,,,,,,,,,,,space,224478,24,2020-08-15_16h47.09.255,CDT_GNG_IUS12,2020.1.2,MacIntel,60,,,,,,,,,,,,,,,,,,0,1,,space,1,0.451325,0,25,25,32,1,,,,,,,,,,,,,,,,,,,,,,,,,,,,,,
,,,,,,,,,,,,,,,,,,,,,,,,,,,,,,,,,,,,,,,,,,,,224478,24,2020-08-15_16h47.09.255,CDT_GNG_IUS12,2020.1.2,MacIntel,60,,,,,,,,,,,,,,,,,,1,0,,,1,,0,26,26,0,1,,,,,,,,,,,,,,,,,,,,,,,,,,,,,,
,,,,,,,,,,,,,,,,,,,,,,,,,,,,,,,,,,,,,,,,,,,space,224478,24,2020-08-15_16h47.09.255,CDT_GNG_IUS12,2020.1.2,MacIntel,60,,,,,,,,,,,,,,,,,,0,1,,space,1,0.33898,0,27,27,26,1,,,,,,,,,,,,,,,,,,,,,,,,,,,,,,
,,,,,,,,,,,,,,,,,,,,,,,,,,,,,,,,,,,,,,,,,,,space,224478,24,2020-08-15_16h47.09.255,CDT_GNG_IUS12,2020.1.2,MacIntel,60,,,,,,,,,,,,,,,,,,0,1,,space,1,0.350615,0,28,28,34,1,,,,,,,,,,,,,,,,,,,,,,,,,,,,,,
,,,,,,,,,,,,,,,,,,,,,,,,,,,,,,,,,,,,,,,,,,,,224478,24,2020-08-15_16h47.09.255,CDT_GNG_IUS12,2020.1.2,MacIntel,60,,,,,,,,,,,,,,,,,,1,0,,,1,,0,29,29,8,1,,,,,,,,,,,,,,,,,,,,,,,,,,,,,,
,,,,,,,,,,,,,,,,,,,,,,,,,,,,,,,,,,,,,,,,,,,space,224478,24,2020-08-15_16h47.09.255,CDT_GNG_IUS12,2020.1.2,MacIntel,60,,,,,,,,,,,,,,,,,,0,1,,space,1,0.269535,0,30,30,17,1,,,,,,,,,,,,,,,,,,,,,,,,,,,,,,
,,,,,,,,,,,,,,,,,,,,,,,,,,,,,,,,,,,,,,,,,,,space,224478,24,2020-08-15_16h47.09.255,CDT_GNG_IUS12,2020.1.2,MacIntel,60,,,,,,,,,,,,,,,,,,0,1,,space,1,0.372485,0,31,31,13,1,,,,,,,,,,,,,,,,,,,,,,,,,,,,,,
,,,,,,,,,,,,,,,,,,,,,,,,,,,,,,,,,,,,,,,,,,,space,224478,24,2020-08-15_16h47.09.255,CDT_GNG_IUS12,2020.1.2,MacIntel,60,,,,,,,,,,,,,,,,,,0,1,,space,1,0.35096,0,32,32,22,1,,,,,,,,,,,,,,,,,,,,,,,,,,,,,,
,,,,,,,,,,,,,,,,,,,,,,,,,,,,,,,,,,,,,,,,,,,space,224478,24,2020-08-15_16h47.09.255,CDT_GNG_IUS12,2020.1.2,MacIntel,60,,,,,,,,,,,,,,,,,,0,1,,space,1,0.31806,0,33,33,10,1,,,,,,,,,,,,,,,,,,,,,,,,,,,,,,
,,,,,,,,,,,,,,,,,,,,,,,,,,,,,,,,,,,,,,,,,,,space,224478,24,2020-08-15_16h47.09.255,CDT_GNG_IUS12,2020.1.2,MacIntel,60,,,,,,,,,,,,,,,,,,0,1,,space,1,0.3024,0,34,34,30,1,,,,,,,,,,,,,,,,,,,,,,,,,,,,,,
,,,,,,,,,,,,,,,,,,,,,,,,,,,,,,,,,,,,,,,,,,,space,224478,24,2020-08-15_16h47.09.255,CDT_GNG_IUS12,2020.1.2,MacIntel,60,,,,,,,,,,,,,,,,,,0,1,,space,1,0.32032,0,35,35,25,1,,,,,,,,,,,,,,,,,,,,,,,,,,,,,,
,,,,,,,,,,,,,,,,,,,,,,,,,,,,,,,,,,,,,,,,,,,,224478,24,2020-08-15_16h47.09.255,CDT_GNG_IUS12,2020.1.2,MacIntel,60,,,,,,,,,,,,,,,,,,1,0,,,1,,0,36,36,1,1,,,,,,,,,,,,,,,,,,,,,,,,,,,,,,
,,,,,,,,,,,,,,,,,,,,,,,,,,,,,,,,,,,,,,,,,,,space,224478,24,2020-08-15_16h47.09.255,CDT_GNG_IUS12,2020.1.2,MacIntel,60,,,,,,,,,,,,,,,,,,0,1,,space,1,0.29064,0,37,37,24,1,,,,,,,,,,,,,,,,,,,,,,,,,,,,,,
,,,,,,,,,,,,,,,,,,,,,,,,,,,,,,,,,,,,,,,,,,,space,224478,24,2020-08-15_16h47.09.255,CDT_GNG_IUS12,2020.1.2,MacIntel,60,,,,,,,,,,,,,,,,,,0,1,,space,1,0.271485,0,38,38,29,1,,,,,,,,,,,,,,,,,,,,,,,,,,,,,,
,,,,,,,,,,,,,,,,,,,,,,,,,,,,,,,,,,,,,,,,,,,space,224478,24,2020-08-15_16h47.09.255,CDT_GNG_IUS12,2020.1.2,MacIntel,60,,,,,,,,,,,,,,,,,,0,1,,space,1,0.23801,0,39,39,23,1,,,,,,,,,,,,,,,,,,,,,,,,,,,,,,
,,,,,,,,,,,,,,,,,,,,,,,,,,,,,,,,,,,,,,,,,,,space,224478,24,2020-08-15_16h47.09.255,CDT_GNG_IUS12,2020.1.2,MacIntel,60,,,,,,,,,,,,,,,,,,0,1,,space,1,0.30172,0,40,40,41,1,,,,,,,,,,,,,,,,,,,,,,,,,,,,,,
,,,,,,,,,,,,,,,,,,,,,,,,,,,,,,,,,,,,,,,,,,,space,224478,24,2020-08-15_16h47.09.255,CDT_GNG_IUS12,2020.1.2,MacIntel,60,,,,,,,,,,,,,,,,,,0,1,,space,1,0.25453,0,41,41,28,1,,,,,,,,,,,,,,,,,,,,,,,,,,,,,,
,,,,,,,,,,,,,,,,,,,,,,,,,,,,,,,,,,,,,,,,,,,space,224478,24,2020-08-15_16h47.09.255,CDT_GNG_IUS12,2020.1.2,MacIntel,60,,,,,,,,,,,,,,,,,,0,1,,space,1,0.300805,0,42,42,35,1,,,,,,,,,,,,,,,,,,,,,,,,,,,,,,
,,,,,,,,,,,,,,,,,,,,,,,,,,,,,,,,,,,,,,,,,,,space,224478,24,2020-08-15_16h47.09.255,CDT_GNG_IUS12,2020.1.2,MacIntel,60,,,,,,,,,,,,,,,,,,0,1,,space,1,0.300845,0,43,43,37,1,,,,,,,,,,,,,,,,,,,,,,,,,,,,,,
,,,,,,,,,,,,,,,,,,,,,,,,,,,,,,,,,,,,,,,,,,,space,224478,24,2020-08-15_16h47.09.255,CDT_GNG_IUS12,2020.1.2,MacIntel,60,,,,,,,,,,,,,,,,,,0,1,,space,1,0.28643,0,44,44,16,1,,,,,,,,,,,,,,,,,,,,,,,,,,,,,,
,,,,,,,,,,,,,,,,,,,,,,,,,,,,,,,,,,,,,,,,,,,space,224478,24,2020-08-15_16h47.09.255,CDT_GNG_IUS12,2020.1.2,MacIntel,60,,,,,,,,,,,,,,,,,,0,1,,space,1,0.334785,0,45,45,14,1,,,,,,,,,,,,,,,,,,,,,,,,,,,,,,
,,,,,,,,,,,,,,,,,,,,,,,,,,,,,,,,,,,,,,,,,,,space,224478,24,2020-08-15_16h47.09.255,CDT_GNG_IUS12,2020.1.2,MacIntel,60,,,,,,,,,,,,,,,,,,0,1,,space,1,0.272105,0,46,46,39,1,,,,,,,,,,,,,,,,,,,,,,,,,,,,,,
,,,,,,,,,,,,,,,,,,,,,,,,,,,,,,,,,,,,,,,,,,,space,224478,24,2020-08-15_16h47.09.255,CDT_GNG_IUS12,2020.1.2,MacIntel,60,,,,,,,,,,,,,,,,,,0,1,,space,1,0.28473,0,47,47,44,1,,,,,,,,,,,,,,,,,,,,,,,,,,,,,,
,,,,,,,,,,,,,,,,,,,,,,,,,,,,,,,,,,,,,,,,,,,space,224478,24,2020-08-15_16h47.09.255,CDT_GNG_IUS12,2020.1.2,MacIntel,60,,,,,,,,,,,,,,,,,,0,1,,space,1,0.268245,0,48,48,11,1,,,,,,,,,,,,,,,,,,,,,,,,,,,,,,
,,,,,,,,,,,,,,,,,,,,,,,,,,,,,,,,,,,,,,,,,,,space,224478,24,2020-08-15_16h47.09.255,CDT_GNG_IUS12,2020.1.2,MacIntel,60,,,,,,,,,,,,,,,,,,0,1,,space,1,0.25616,0,49,49,43,1,,,,,,,,,,,,,,,,,,,,,,,,,,,,,,
,,,,,,,,,,,,,,,,,,,,,,,,,,,,,,,,,,,,,,,,,,,space,224478,24,2020-08-15_16h47.09.255,CDT_GNG_IUS12,2020.1.2,MacIntel,60,,,,,,,,,,,,,,,,,,0,1,,space,1,0.36093,,,,,,0,0,0,30,1,,,,,,,,,,,,,,,,,,,,,,,,,
,,,,,,,,,,,,,,,,,,,,,,,,,,,,,,,,,,,,,,,,,,,space,224478,24,2020-08-15_16h47.09.255,CDT_GNG_IUS12,2020.1.2,MacIntel,60,,,,,,,,,,,,,,,,,,0,1,,space,1,0.273445,,,,,,0,1,1,49,1,,,,,,,,,,,,,,,,,,,,,,,,,
,,,,,,,,,,,,,,,,,,,,,,,,,,,,,,,,,,,,,,,,,,,space,224478,24,2020-08-15_16h47.09.255,CDT_GNG_IUS12,2020.1.2,MacIntel,60,,,,,,,,,,,,,,,,,,0,1,,space,1,0.26544,,,,,,0,2,2,29,1,,,,,,,,,,,,,,,,,,,,,,,,,
,,,,,,,,,,,,,,,,,,,,,,,,,,,,,,,,,,,,,,,,,,,,224478,24,2020-08-15_16h47.09.255,CDT_GNG_IUS12,2020.1.2,MacIntel,60,,,,,,,,,,,,,,,,,,1,0,,space,0,0.24801,,,,,,0,3,3,7,1,,,,,,,,,,,,,,,,,,,,,,,,,
,,,,,,,,,,,,,,,,,,,,,,,,,,,,,,,,,,,,,,,,,,,space,224478,24,2020-08-15_16h47.09.255,CDT_GNG_IUS12,2020.1.2,MacIntel,60,,,,,,,,,,,,,,,,,,0,1,,space,1,0.301365,,,,,,0,4,4,24,1,,,,,,,,,,,,,,,,,,,,,,,,,
,,,,,,,,,,,,,,,,,,,,,,,,,,,,,,,,,,,,,,,,,,,space,224478,24,2020-08-15_16h47.09.255,CDT_GNG_IUS12,2020.1.2,MacIntel,60,,,,,,,,,,,,,,,,,,0,1,,space,1,0.286595,,,,,,0,5,5,18,1,,,,,,,,,,,,,,,,,,,,,,,,,
,,,,,,,,,,,,,,,,,,,,,,,,,,,,,,,,,,,,,,,,,,,space,224478,24,2020-08-15_16h47.09.255,CDT_GNG_IUS12,2020.1.2,MacIntel,60,,,,,,,,,,,,,,,,,,0,1,,space,1,0.288665,,,,,,0,6,6,28,1,,,,,,,,,,,,,,,,,,,,,,,,,
,,,,,,,,,,,,,,,,,,,,,,,,,,,,,,,,,,,,,,,,,,,space,224478,24,2020-08-15_16h47.09.255,CDT_GNG_IUS12,2020.1.2,MacIntel,60,,,,,,,,,,,,,,,,,,0,1,,space,1,0.278635,,,,,,0,7,7,47,1,,,,,,,,,,,,,,,,,,,,,,,,,
,,,,,,,,,,,,,,,,,,,,,,,,,,,,,,,,,,,,,,,,,,,,224478,24,2020-08-15_16h47.09.255,CDT_GNG_IUS12,2020.1.2,MacIntel,60,,,,,,,,,,,,,,,,,,1,0,,,1,,,,,,,0,8,8,8,1,,,,,,,,,,,,,,,,,,,,,,,,,
,,,,,,,,,,,,,,,,,,,,,,,,,,,,,,,,,,,,,,,,,,,space,224478,24,2020-08-15_16h47.09.255,CDT_GNG_IUS12,2020.1.2,MacIntel,60,,,,,,,,,,,,,,,,,,0,1,,space,1,0.262375,,,,,,0,9,9,46,1,,,,,,,,,,,,,,,,,,,,,,,,,
,,,,,,,,,,,,,,,,,,,,,,,,,,,,,,,,,,,,,,,,,,,space,224478,24,2020-08-15_16h47.09.255,CDT_GNG_IUS12,2020.1.2,MacIntel,60,,,,,,,,,,,,,,,,,,0,1,,space,1,0.252125,,,,,,0,10,10,16,1,,,,,,,,,,,,,,,,,,,,,,,,,
,,,,,,,,,,,,,,,,,,,,,,,,,,,,,,,,,,,,,,,,,,,,224478,24,2020-08-15_16h47.09.255,CDT_GNG_IUS12,2020.1.2,MacIntel,60,,,,,,,,,,,,,,,,,,1,0,,,1,,,,,,,0,11,11,0,1,,,,,,,,,,,,,,,,,,,,,,,,,
,,,,,,,,,,,,,,,,,,,,,,,,,,,,,,,,,,,,,,,,,,,,224478,24,2020-08-15_16h47.09.255,CDT_GNG_IUS12,2020.1.2,MacIntel,60,,,,,,,,,,,,,,,,,,1,0,,,1,,,,,,,0,12,12,5,1,,,,,,,,,,,,,,,,,,,,,,,,,
,,,,,,,,,,,,,,,,,,,,,,,,,,,,,,,,,,,,,,,,,,,,224478,24,2020-08-15_16h47.09.255,CDT_GNG_IUS12,2020.1.2,MacIntel,60,,,,,,,,,,,,,,,,,,1,0,,,1,,,,,,,0,13,13,4,1,,,,,,,,,,,,,,,,,,,,,,,,,
,,,,,,,,,,,,,,,,,,,,,,,,,,,,,,,,,,,,,,,,,,,space,224478,24,2020-08-15_16h47.09.255,CDT_GNG_IUS12,2020.1.2,MacIntel,60,,,,,,,,,,,,,,,,,,0,1,,space,1,0.3011,,,,,,0,14,14,33,1,,,,,,,,,,,,,,,,,,,,,,,,,
,,,,,,,,,,,,,,,,,,,,,,,,,,,,,,,,,,,,,,,,,,,space,224478,24,2020-08-15_16h47.09.255,CDT_GNG_IUS12,2020.1.2,MacIntel,60,,,,,,,,,,,,,,,,,,0,1,,space,1,0.301115,,,,,,0,15,15,25,1,,,,,,,,,,,,,,,,,,,,,,,,,
,,,,,,,,,,,,,,,,,,,,,,,,,,,,,,,,,,,,,,,,,,,space,224478,24,2020-08-15_16h47.09.255,CDT_GNG_IUS12,2020.1.2,MacIntel,60,,,,,,,,,,,,,,,,,,0,1,,space,1,0.30199,,,,,,0,16,16,31,1,,,,,,,,,,,,,,,,,,,,,,,,,
,,,,,,,,,,,,,,,,,,,,,,,,,,,,,,,,,,,,,,,,,,,space,224478,24,2020-08-15_16h47.09.255,CDT_GNG_IUS12,2020.1.2,MacIntel,60,,,,,,,,,,,,,,,,,,0,1,,space,1,0.28448,,,,,,0,17,17,10,1,,,,,,,,,,,,,,,,,,,,,,,,,
,,,,,,,,,,,,,,,,,,,,,,,,,,,,,,,,,,,,,,,,,,,space,224478,24,2020-08-15_16h47.09.255,CDT_GNG_IUS12,2020.1.2,MacIntel,60,,,,,,,,,,,,,,,,,,0,1,,space,1,0.30054,,,,,,0,18,18,17,1,,,,,,,,,,,,,,,,,,,,,,,,,
,,,,,,,,,,,,,,,,,,,,,,,,,,,,,,,,,,,,,,,,,,,space,224478,24,2020-08-15_16h47.09.255,CDT_GNG_IUS12,2020.1.2,MacIntel,60,,,,,,,,,,,,,,,,,,0,1,,space,1,0.3015,,,,,,0,19,19,43,1,,,,,,,,,,,,,,,,,,,,,,,,,
,,,,,,,,,,,,,,,,,,,,,,,,,,,,,,,,,,,,,,,,,,,space,224478,24,2020-08-15_16h47.09.255,CDT_GNG_IUS12,2020.1.2,MacIntel,60,,,,,,,,,,,,,,,,,,0,1,,space,1,0.300695,,,,,,0,20,20,42,1,,,,,,,,,,,,,,,,,,,,,,,,,
,,,,,,,,,,,,,,,,,,,,,,,,,,,,,,,,,,,,,,,,,,,space,224478,24,2020-08-15_16h47.09.255,CDT_GNG_IUS12,2020.1.2,MacIntel,60,,,,,,,,,,,,,,,,,,0,1,,space,1,0.30053,,,,,,0,21,21,34,1,,,,,,,,,,,,,,,,,,,,,,,,,
,,,,,,,,,,,,,,,,,,,,,,,,,,,,,,,,,,,,,,,,,,,space,224478,24,2020-08-15_16h47.09.255,CDT_GNG_IUS12,2020.1.2,MacIntel,60,,,,,,,,,,,,,,,,,,0,1,,space,1,0.30507,,,,,,0,22,22,15,1,,,,,,,,,,,,,,,,,,,,,,,,,
,,,,,,,,,,,,,,,,,,,,,,,,,,,,,,,,,,,,,,,,,,,space,224478,24,2020-08-15_16h47.09.255,CDT_GNG_IUS12,2020.1.2,MacIntel,60,,,,,,,,,,,,,,,,,,0,1,,space,1,0.284625,,,,,,0,23,23,22,1,,,,,,,,,,,,,,,,,,,,,,,,,
,,,,,,,,,,,,,,,,,,,,,,,,,,,,,,,,,,,,,,,,,,,space,224478,24,2020-08-15_16h47.09.255,CDT_GNG_IUS12,2020.1.2,MacIntel,60,,,,,,,,,,,,,,,,,,0,1,,space,1,0.28459,,,,,,0,24,24,27,1,,,,,,,,,,,,,,,,,,,,,,,,,
,,,,,,,,,,,,,,,,,,,,,,,,,,,,,,,,,,,,,,,,,,,space,224478,24,2020-08-15_16h47.09.255,CDT_GNG_IUS12,2020.1.2,MacIntel,60,,,,,,,,,,,,,,,,,,0,1,,space,1,0.285415,,,,,,0,25,25,36,1,,,,,,,,,,,,,,,,,,,,,,,,,
,,,,,,,,,,,,,,,,,,,,,,,,,,,,,,,,,,,,,,,,,,,space,224478,24,2020-08-15_16h47.09.255,CDT_GNG_IUS12,2020.1.2,MacIntel,60,,,,,,,,,,,,,,,,,,0,1,,space,1,0.267865,,,,,,0,26,26,37,1,,,,,,,,,,,,,,,,,,,,,,,,,
,,,,,,,,,,,,,,,,,,,,,,,,,,,,,,,,,,,,,,,,,,,space,224478,24,2020-08-15_16h47.09.255,CDT_GNG_IUS12,2020.1.2,MacIntel,60,,,,,,,,,,,,,,,,,,0,1,,space,1,0.25181,,,,,,0,27,27,32,1,,,,,,,,,,,,,,,,,,,,,,,,,
,,,,,,,,,,,,,,,,,,,,,,,,,,,,,,,,,,,,,,,,,,,space,224478,24,2020-08-15_16h47.09.255,CDT_GNG_IUS12,2020.1.2,MacIntel,60,,,,,,,,,,,,,,,,,,0,1,,space,1,0.279255,,,,,,0,28,28,13,1,,,,,,,,,,,,,,,,,,,,,,,,,
,,,,,,,,,,,,,,,,,,,,,,,,,,,,,,,,,,,,,,,,,,,space,224478,24,2020-08-15_16h47.09.255,CDT_GNG_IUS12,2020.1.2,MacIntel,60,,,,,,,,,,,,,,,,,,0,1,,space,1,0.253415,,,,,,0,29,29,12,1,,,,,,,,,,,,,,,,,,,,,,,,,
,,,,,,,,,,,,,,,,,,,,,,,,,,,,,,,,,,,,,,,,,,,space,224478,24,2020-08-15_16h47.09.255,CDT_GNG_IUS12,2020.1.2,MacIntel,60,,,,,,,,,,,,,,,,,,0,1,,space,1,0.2511,,,,,,0,30,30,40,1,,,,,,,,,,,,,,,,,,,,,,,,,
,,,,,,,,,,,,,,,,,,,,,,,,,,,,,,,,,,,,,,,,,,,space,224478,24,2020-08-15_16h47.09.255,CDT_GNG_IUS12,2020.1.2,MacIntel,60,,,,,,,,,,,,,,,,,,0,1,,space,1,0.267445,,,,,,0,31,31,23,1,,,,,,,,,,,,,,,,,,,,,,,,,
,,,,,,,,,,,,,,,,,,,,,,,,,,,,,,,,,,,,,,,,,,,space,224478,24,2020-08-15_16h47.09.255,CDT_GNG_IUS12,2020.1.2,MacIntel,60,,,,,,,,,,,,,,,,,,0,1,,space,1,0.302145,,,,,,0,32,32,35,1,,,,,,,,,,,,,,,,,,,,,,,,,
,,,,,,,,,,,,,,,,,,,,,,,,,,,,,,,,,,,,,,,,,,,space,224478,24,2020-08-15_16h47.09.255,CDT_GNG_IUS12,2020.1.2,MacIntel,60,,,,,,,,,,,,,,,,,,0,1,,space,1,0.237795,,,,,,0,33,33,21,1,,,,,,,,,,,,,,,,,,,,,,,,,
,,,,,,,,,,,,,,,,,,,,,,,,,,,,,,,,,,,,,,,,,,,space,224478,24,2020-08-15_16h47.09.255,CDT_GNG_IUS12,2020.1.2,MacIntel,60,,,,,,,,,,,,,,,,,,0,1,,space,1,0.284175,,,,,,0,34,34,48,1,,,,,,,,,,,,,,,,,,,,,,,,,
,,,,,,,,,,,,,,,,,,,,,,,,,,,,,,,,,,,,,,,,,,,space,224478,24,2020-08-15_16h47.09.255,CDT_GNG_IUS12,2020.1.2,MacIntel,60,,,,,,,,,,,,,,,,,,0,1,,space,1,0.285385,,,,,,0,35,35,14,1,,,,,,,,,,,,,,,,,,,,,,,,,
,,,,,,,,,,,,,,,,,,,,,,,,,,,,,,,,,,,,,,,,,,,space,224478,24,2020-08-15_16h47.09.255,CDT_GNG_IUS12,2020.1.2,MacIntel,60,,,,,,,,,,,,,,,,,,0,1,,space,1,0.26748,,,,,,0,36,36,20,1,,,,,,,,,,,,,,,,,,,,,,,,,
,,,,,,,,,,,,,,,,,,,,,,,,,,,,,,,,,,,,,,,,,,,,224478,24,2020-08-15_16h47.09.255,CDT_GNG_IUS12,2020.1.2,MacIntel,60,,,,,,,,,,,,,,,,,,1,0,,,1,,,,,,,0,37,37,6,1,,,,,,,,,,,,,,,,,,,,,,,,,
,,,,,,,,,,,,,,,,,,,,,,,,,,,,,,,,,,,,,,,,,,,,224478,24,2020-08-15_16h47.09.255,CDT_GNG_IUS12,2020.1.2,MacIntel,60,,,,,,,,,,,,,,,,,,1,0,,,1,,,,,,,0,38,38,3,1,,,,,,,,,,,,,,,,,,,,,,,,,
,,,,,,,,,,,,,,,,,,,,,,,,,,,,,,,,,,,,,,,,,,,space,224478,24,2020-08-15_16h47.09.255,CDT_GNG_IUS12,2020.1.2,MacIntel,60,,,,,,,,,,,,,,,,,,0,1,,space,1,0.3338,,,,,,0,39,39,38,1,,,,,,,,,,,,,,,,,,,,,,,,,
,,,,,,,,,,,,,,,,,,,,,,,,,,,,,,,,,,,,,,,,,,,space,224478,24,2020-08-15_16h47.09.255,CDT_GNG_IUS12,2020.1.2,MacIntel,60,,,,,,,,,,,,,,,,,,0,1,,space,1,0.25377,,,,,,0,40,40,39,1,,,,,,,,,,,,,,,,,,,,,,,,,
,,,,,,,,,,,,,,,,,,,,,,,,,,,,,,,,,,,,,,,,,,,,224478,24,2020-08-15_16h47.09.255,CDT_GNG_IUS12,2020.1.2,MacIntel,60,,,,,,,,,,,,,,,,,,1,0,,,1,,,,,,,0,41,41,9,1,,,,,,,,,,,,,,,,,,,,,,,,,
,,,,,,,,,,,,,,,,,,,,,,,,,,,,,,,,,,,,,,,,,,,,224478,24,2020-08-15_16h47.09.255,CDT_GNG_IUS12,2020.1.2,MacIntel,60,,,,,,,,,,,,,,,,,,1,0,,,1,,,,,,,0,42,42,1,1,,,,,,,,,,,,,,,,,,,,,,,,,
,,,,,,,,,,,,,,,,,,,,,,,,,,,,,,,,,,,,,,,,,,,space,224478,24,2020-08-15_16h47.09.255,CDT_GNG_IUS12,2020.1.2,MacIntel,60,,,,,,,,,,,,,,,,,,0,1,,space,1,0.33476,,,,,,0,43,43,41,1,,,,,,,,,,,,,,,,,,,,,,,,,
,,,,,,,,,,,,,,,,,,,,,,,,,,,,,,,,,,,,,,,,,,,space,224478,24,2020-08-15_16h47.09.255,CDT_GNG_IUS12,2020.1.2,MacIntel,60,,,,,,,,,,,,,,,,,,0,1,,space,1,0.28479,,,,,,0,44,44,19,1,,,,,,,,,,,,,,,,,,,,,,,,,
,,,,,,,,,,,,,,,,,,,,,,,,,,,,,,,,,,,,,,,,,,,,224478,24,2020-08-15_16h47.09.255,CDT_GNG_IUS12,2020.1.2,MacIntel,60,,,,,,,,,,,,,,,,,,1,0,,,1,,,,,,,0,45,45,2,1,,,,,,,,,,,,,,,,,,,,,,,,,
,,,,,,,,,,,,,,,,,,,,,,,,,,,,,,,,,,,,,,,,,,,space,224478,24,2020-08-15_16h47.09.255,CDT_GNG_IUS12,2020.1.2,MacIntel,60,,,,,,,,,,,,,,,,,,0,1,,space,1,0.267915,,,,,,0,46,46,26,1,,,,,,,,,,,,,,,,,,,,,,,,,
,,,,,,,,,,,,,,,,,,,,,,,,,,,,,,,,,,,,,,,,,,,space,224478,24,2020-08-15_16h47.09.255,CDT_GNG_IUS12,2020.1.2,MacIntel,60,,,,,,,,,,,,,,,,,,0,1,,space,1,0.28375,,,,,,0,47,47,45,1,,,,,,,,,,,,,,,,,,,,,,,,,
,,,,,,,,,,,,,,,,,,,,,,,,,,,,,,,,,,,,,,,,,,,space,224478,24,2020-08-15_16h47.09.255,CDT_GNG_IUS12,2020.1.2,MacIntel,60,,,,,,,,,,,,,,,,,,0,1,,space,1,0.2338,,,,,,0,48,48,11,1,,,,,,,,,,,,,,,,,,,,,,,,,
,,,,,,,,,,,,,,,,,,,,,,,,,,,,,,,,,,,,,,,,,,,space,224478,24,2020-08-15_16h47.09.255,CDT_GNG_IUS12,2020.1.2,MacIntel,60,,,,,,,,,,,,,,,,,,0,1,,space,1,0.27923,,,,,,0,49,49,44,1,,,,,,,,,,,,,,,,,,,,,,,,,
,,,,,,,,,,,,,,,,,,,,,,,,,,,,,,,,,,,,,,,,,,,,224478,24,2020-08-15_16h47.09.255,CDT_GNG_IUS12,2020.1.2,MacIntel,60,,,,,,,,,,,,,,,,,,1,0,,,1,,,,,,,,,,,,0,0,0,6,1,,,,,,,,,,,,,,,,,,,,
,,,,,,,,,,,,,,,,,,,,,,,,,,,,,,,,,,,,,,,,,,,space,224478,24,2020-08-15_16h47.09.255,CDT_GNG_IUS12,2020.1.2,MacIntel,60,,,,,,,,,,,,,,,,,,0,1,,space,1,0.367745,,,,,,,,,,,0,1,1,46,1,,,,,,,,,,,,,,,,,,,,
,,,,,,,,,,,,,,,,,,,,,,,,,,,,,,,,,,,,,,,,,,,space,224478,24,2020-08-15_16h47.09.255,CDT_GNG_IUS12,2020.1.2,MacIntel,60,,,,,,,,,,,,,,,,,,0,1,,space,1,0.301645,,,,,,,,,,,0,2,2,44,1,,,,,,,,,,,,,,,,,,,,
,,,,,,,,,,,,,,,,,,,,,,,,,,,,,,,,,,,,,,,,,,,space,224478,24,2020-08-15_16h47.09.255,CDT_GNG_IUS12,2020.1.2,MacIntel,60,,,,,,,,,,,,,,,,,,0,1,,space,1,0.284775,,,,,,,,,,,0,3,3,36,1,,,,,,,,,,,,,,,,,,,,
,,,,,,,,,,,,,,,,,,,,,,,,,,,,,,,,,,,,,,,,,,,,224478,24,2020-08-15_16h47.09.255,CDT_GNG_IUS12,2020.1.2,MacIntel,60,,,,,,,,,,,,,,,,,,1,0,,,1,,,,,,,,,,,,0,4,4,2,1,,,,,,,,,,,,,,,,,,,,
,,,,,,,,,,,,,,,,,,,,,,,,,,,,,,,,,,,,,,,,,,,space,224478,24,2020-08-15_16h47.09.255,CDT_GNG_IUS12,2020.1.2,MacIntel,60,,,,,,,,,,,,,,,,,,0,1,,space,1,0.30154,,,,,,,,,,,0,5,5,35,1,,,,,,,,,,,,,,,,,,,,
,,,,,,,,,,,,,,,,,,,,,,,,,,,,,,,,,,,,,,,,,,,,224478,24,2020-08-15_16h47.09.255,CDT_GNG_IUS12,2020.1.2,MacIntel,60,,,,,,,,,,,,,,,,,,1,0,,space,0,0.439095,,,,,,,,,,,0,6,6,7,1,,,,,,,,,,,,,,,,,,,,
,,,,,,,,,,,,,,,,,,,,,,,,,,,,,,,,,,,,,,,,,,,space,224478,24,2020-08-15_16h47.09.255,CDT_GNG_IUS12,2020.1.2,MacIntel,60,,,,,,,,,,,,,,,,,,0,1,,,0,,,,,,,,,,,,0,7,7,15,1,,,,,,,,,,,,,,,,,,,,
,,,,,,,,,,,,,,,,,,,,,,,,,,,,,,,,,,,,,,,,,,,space,224478,24,2020-08-15_16h47.09.255,CDT_GNG_IUS12,2020.1.2,MacIntel,60,,,,,,,,,,,,,,,,,,0,1,,space,1,0.436485,,,,,,,,,,,0,8,8,38,1,,,,,,,,,,,,,,,,,,,,
,,,,,,,,,,,,,,,,,,,,,,,,,,,,,,,,,,,,,,,,,,,space,224478,24,2020-08-15_16h47.09.255,CDT_GNG_IUS12,2020.1.2,MacIntel,60,,,,,,,,,,,,,,,,,,0,1,,space,1,0.300775,,,,,,,,,,,0,9,9,43,1,,,,,,,,,,,,,,,,,,,,
,,,,,,,,,,,,,,,,,,,,,,,,,,,,,,,,,,,,,,,,,,,space,224478,24,2020-08-15_16h47.09.255,CDT_GNG_IUS12,2020.1.2,MacIntel,60,,,,,,,,,,,,,,,,,,0,1,,space,1,0.31548,,,,,,,,,,,0,10,10,26,1,,,,,,,,,,,,,,,,,,,,
,,,,,,,,,,,,,,,,,,,,,,,,,,,,,,,,,,,,,,,,,,,space,224478,24,2020-08-15_16h47.09.255,CDT_GNG_IUS12,2020.1.2,MacIntel,60,,,,,,,,,,,,,,,,,,0,1,,space,1,0.284985,,,,,,,,,,,0,11,11,19,1,,,,,,,,,,,,,,,,,,,,
,,,,,,,,,,,,,,,,,,,,,,,,,,,,,,,,,,,,,,,,,,,space,224478,24,2020-08-15_16h47.09.255,CDT_GNG_IUS12,2020.1.2,MacIntel,60,,,,,,,,,,,,,,,,,,0,1,,space,1,0.28537,,,,,,,,,,,0,12,12,49,1,,,,,,,,,,,,,,,,,,,,
,,,,,,,,,,,,,,,,,,,,,,,,,,,,,,,,,,,,,,,,,,,,224478,24,2020-08-15_16h47.09.255,CDT_GNG_IUS12,2020.1.2,MacIntel,60,,,,,,,,,,,,,,,,,,1,0,,,1,,,,,,,,,,,,0,13,13,9,1,,,,,,,,,,,,,,,,,,,,
,,,,,,,,,,,,,,,,,,,,,,,,,,,,,,,,,,,,,,,,,,,space,224478,24,2020-08-15_16h47.09.255,CDT_GNG_IUS12,2020.1.2,MacIntel,60,,,,,,,,,,,,,,,,,,0,1,,space,1,0.28184,,,,,,,,,,,0,14,14,10,1,,,,,,,,,,,,,,,,,,,,
,,,,,,,,,,,,,,,,,,,,,,,,,,,,,,,,,,,,,,,,,,,space,224478,24,2020-08-15_16h47.09.255,CDT_GNG_IUS12,2020.1.2,MacIntel,60,,,,,,,,,,,,,,,,,,0,1,,space,1,0.28508,,,,,,,,,,,0,15,15,14,1,,,,,,,,,,,,,,,,,,,,
,,,,,,,,,,,,,,,,,,,,,,,,,,,,,,,,,,,,,,,,,,,,224478,24,2020-08-15_16h47.09.255,CDT_GNG_IUS12,2020.1.2,MacIntel,60,,,,,,,,,,,,,,,,,,1,0,,,1,,,,,,,,,,,,0,16,16,5,1,,,,,,,,,,,,,,,,,,,,
,,,,,,,,,,,,,,,,,,,,,,,,,,,,,,,,,,,,,,,,,,,space,224478,24,2020-08-15_16h47.09.255,CDT_GNG_IUS12,2020.1.2,MacIntel,60,,,,,,,,,,,,,,,,,,0,1,,space,1,0.268835,,,,,,,,,,,0,17,17,21,1,,,,,,,,,,,,,,,,,,,,
,,,,,,,,,,,,,,,,,,,,,,,,,,,,,,,,,,,,,,,,,,,,224478,24,2020-08-15_16h47.09.255,CDT_GNG_IUS12,2020.1.2,MacIntel,60,,,,,,,,,,,,,,,,,,1,0,,,1,,,,,,,,,,,,0,18,18,1,1,,,,,,,,,,,,,,,,,,,,
,,,,,,,,,,,,,,,,,,,,,,,,,,,,,,,,,,,,,,,,,,,space,224478,24,2020-08-15_16h47.09.255,CDT_GNG_IUS12,2020.1.2,MacIntel,60,,,,,,,,,,,,,,,,,,0,1,,space,1,0.268385,,,,,,,,,,,0,19,19,30,1,,,,,,,,,,,,,,,,,,,,
,,,,,,,,,,,,,,,,,,,,,,,,,,,,,,,,,,,,,,,,,,,space,224478,24,2020-08-15_16h47.09.255,CDT_GNG_IUS12,2020.1.2,MacIntel,60,,,,,,,,,,,,,,,,,,0,1,,space,1,0.451655,,,,,,,,,,,0,20,20,45,1,,,,,,,,,,,,,,,,,,,,
,,,,,,,,,,,,,,,,,,,,,,,,,,,,,,,,,,,,,,,,,,,,224478,24,2020-08-15_16h47.09.255,CDT_GNG_IUS12,2020.1.2,MacIntel,60,,,,,,,,,,,,,,,,,,1,0,,,1,,,,,,,,,,,,0,21,21,0,1,,,,,,,,,,,,,,,,,,,,
,,,,,,,,,,,,,,,,,,,,,,,,,,,,,,,,,,,,,,,,,,,space,224478,24,2020-08-15_16h47.09.255,CDT_GNG_IUS12,2020.1.2,MacIntel,60,,,,,,,,,,,,,,,,,,0,1,,space,1,0.272055,,,,,,,,,,,0,22,22,34,1,,,,,,,,,,,,,,,,,,,,
,,,,,,,,,,,,,,,,,,,,,,,,,,,,,,,,,,,,,,,,,,,space,224478,24,2020-08-15_16h47.09.255,CDT_GNG_IUS12,2020.1.2,MacIntel,60,,,,,,,,,,,,,,,,,,0,1,,space,1,0.300635,,,,,,,,,,,0,23,23,12,1,,,,,,,,,,,,,,,,,,,,
,,,,,,,,,,,,,,,,,,,,,,,,,,,,,,,,,,,,,,,,,,,space,224478,24,2020-08-15_16h47.09.255,CDT_GNG_IUS12,2020.1.2,MacIntel,60,,,,,,,,,,,,,,,,,,0,1,,space,1,0.268065,,,,,,,,,,,0,24,24,16,1,,,,,,,,,,,,,,,,,,,,
,,,,,,,,,,,,,,,,,,,,,,,,,,,,,,,,,,,,,,,,,,,space,224478,24,2020-08-15_16h47.09.255,CDT_GNG_IUS12,2020.1.2,MacIntel,60,,,,,,,,,,,,,,,,,,0,1,,space,1,0.30088,,,,,,,,,,,0,25,25,24,1,,,,,,,,,,,,,,,,,,,,
,,,,,,,,,,,,,,,,,,,,,,,,,,,,,,,,,,,,,,,,,,,space,224478,24,2020-08-15_16h47.09.255,CDT_GNG_IUS12,2020.1.2,MacIntel,60,,,,,,,,,,,,,,,,,,0,1,,space,1,0.300245,,,,,,,,,,,0,26,26,18,1,,,,,,,,,,,,,,,,,,,,
,,,,,,,,,,,,,,,,,,,,,,,,,,,,,,,,,,,,,,,,,,,space,224478,24,2020-08-15_16h47.09.255,CDT_GNG_IUS12,2020.1.2,MacIntel,60,,,,,,,,,,,,,,,,,,0,1,,space,1,0.30087,,,,,,,,,,,0,27,27,17,1,,,,,,,,,,,,,,,,,,,,
,,,,,,,,,,,,,,,,,,,,,,,,,,,,,,,,,,,,,,,,,,,space,224478,24,2020-08-15_16h47.09.255,CDT_GNG_IUS12,2020.1.2,MacIntel,60,,,,,,,,,,,,,,,,,,0,1,,space,1,0.272065,,,,,,,,,,,0,28,28,13,1,,,,,,,,,,,,,,,,,,,,
,,,,,,,,,,,,,,,,,,,,,,,,,,,,,,,,,,,,,,,,,,,space,224478,24,2020-08-15_16h47.09.255,CDT_GNG_IUS12,2020.1.2,MacIntel,60,,,,,,,,,,,,,,,,,,0,1,,space,1,0.28389,,,,,,,,,,,0,29,29,25,1,,,,,,,,,,,,,,,,,,,,
,,,,,,,,,,,,,,,,,,,,,,,,,,,,,,,,,,,,,,,,,,,space,224478,24,2020-08-15_16h47.09.255,CDT_GNG_IUS12,2020.1.2,MacIntel,60,,,,,,,,,,,,,,,,,,0,1,,space,1,0.334335,,,,,,,,,,,0,30,30,22,1,,,,,,,,,,,,,,,,,,,,
,,,,,,,,,,,,,,,,,,,,,,,,,,,,,,,,,,,,,,,,,,,space,224478,24,2020-08-15_16h47.09.255,CDT_GNG_IUS12,2020.1.2,MacIntel,60,,,,,,,,,,,,,,,,,,0,1,,space,1,0.252945,,,,,,,,,,,0,31,31,11,1,,,,,,,,,,,,,,,,,,,,
,,,,,,,,,,,,,,,,,,,,,,,,,,,,,,,,,,,,,,,,,,,space,224478,24,2020-08-15_16h47.09.255,CDT_GNG_IUS12,2020.1.2,MacIntel,60,,,,,,,,,,,,,,,,,,0,1,,space,1,0.28245,,,,,,,,,,,0,32,32,42,1,,,,,,,,,,,,,,,,,,,,
,,,,,,,,,,,,,,,,,,,,,,,,,,,,,,,,,,,,,,,,,,,space,224478,24,2020-08-15_16h47.09.255,CDT_GNG_IUS12,2020.1.2,MacIntel,60,,,,,,,,,,,,,,,,,,0,1,,space,1,0.28864,,,,,,,,,,,0,33,33,31,1,,,,,,,,,,,,,,,,,,,,
,,,,,,,,,,,,,,,,,,,,,,,,,,,,,,,,,,,,,,,,,,,space,224478,24,2020-08-15_16h47.09.255,CDT_GNG_IUS12,2020.1.2,MacIntel,60,,,,,,,,,,,,,,,,,,0,1,,space,1,0.284135,,,,,,,,,,,0,34,34,20,1,,,,,,,,,,,,,,,,,,,,
,,,,,,,,,,,,,,,,,,,,,,,,,,,,,,,,,,,,,,,,,,,space,224478,24,2020-08-15_16h47.09.255,CDT_GNG_IUS12,2020.1.2,MacIntel,60,,,,,,,,,,,,,,,,,,0,1,,space,1,0.30002,,,,,,,,,,,0,35,35,23,1,,,,,,,,,,,,,,,,,,,,
,,,,,,,,,,,,,,,,,,,,,,,,,,,,,,,,,,,,,,,,,,,space,224478,24,2020-08-15_16h47.09.255,CDT_GNG_IUS12,2020.1.2,MacIntel,60,,,,,,,,,,,,,,,,,,0,1,,space,1,0.317925,,,,,,,,,,,0,36,36,40,1,,,,,,,,,,,,,,,,,,,,
,,,,,,,,,,,,,,,,,,,,,,,,,,,,,,,,,,,,,,,,,,,,224478,24,2020-08-15_16h47.09.255,CDT_GNG_IUS12,2020.1.2,MacIntel,60,,,,,,,,,,,,,,,,,,1,0,,,1,,,,,,,,,,,,0,37,37,8,1,,,,,,,,,,,,,,,,,,,,
,,,,,,,,,,,,,,,,,,,,,,,,,,,,,,,,,,,,,,,,,,,space,224478,24,2020-08-15_16h47.09.255,CDT_GNG_IUS12,2020.1.2,MacIntel,60,,,,,,,,,,,,,,,,,,0,1,,space,1,0.271625,,,,,,,,,,,0,38,38,41,1,,,,,,,,,,,,,,,,,,,,
,,,,,,,,,,,,,,,,,,,,,,,,,,,,,,,,,,,,,,,,,,,space,224478,24,2020-08-15_16h47.09.255,CDT_GNG_IUS12,2020.1.2,MacIntel,60,,,,,,,,,,,,,,,,,,0,1,,space,1,0.334645,,,,,,,,,,,0,39,39,39,1,,,,,,,,,,,,,,,,,,,,
,,,,,,,,,,,,,,,,,,,,,,,,,,,,,,,,,,,,,,,,,,,space,224478,24,2020-08-15_16h47.09.255,CDT_GNG_IUS12,2020.1.2,MacIntel,60,,,,,,,,,,,,,,,,,,0,1,,space,1,0.300725,,,,,,,,,,,0,40,40,48,1,,,,,,,,,,,,,,,,,,,,
,,,,,,,,,,,,,,,,,,,,,,,,,,,,,,,,,,,,,,,,,,,,224478,24,2020-08-15_16h47.09.255,CDT_GNG_IUS12,2020.1.2,MacIntel,60,,,,,,,,,,,,,,,,,,1,0,,,1,,,,,,,,,,,,0,41,41,3,1,,,,,,,,,,,,,,,,,,,,
,,,,,,,,,,,,,,,,,,,,,,,,,,,,,,,,,,,,,,,,,,,space,224478,24,2020-08-15_16h47.09.255,CDT_GNG_IUS12,2020.1.2,MacIntel,60,,,,,,,,,,,,,,,,,,0,1,,space,1,0.266945,,,,,,,,,,,0,42,42,29,1,,,,,,,,,,,,,,,,,,,,
,,,,,,,,,,,,,,,,,,,,,,,,,,,,,,,,,,,,,,,,,,,,224478,24,2020-08-15_16h47.09.255,CDT_GNG_IUS12,2020.1.2,MacIntel,60,,,,,,,,,,,,,,,,,,1,0,,,1,,,,,,,,,,,,0,43,43,4,1,,,,,,,,,,,,,,,,,,,,
,,,,,,,,,,,,,,,,,,,,,,,,,,,,,,,,,,,,,,,,,,,space,224478,24,2020-08-15_16h47.09.255,CDT_GNG_IUS12,2020.1.2,MacIntel,60,,,,,,,,,,,,,,,,,,0,1,,space,1,0.269145,,,,,,,,,,,0,44,44,28,1,,,,,,,,,,,,,,,,,,,,
,,,,,,,,,,,,,,,,,,,,,,,,,,,,,,,,,,,,,,,,,,,space,224478,24,2020-08-15_16h47.09.255,CDT_GNG_IUS12,2020.1.2,MacIntel,60,,,,,,,,,,,,,,,,,,0,1,,space,1,0.318445,,,,,,,,,,,0,45,45,27,1,,,,,,,,,,,,,,,,,,,,
,,,,,,,,,,,,,,,,,,,,,,,,,,,,,,,,,,,,,,,,,,,space,224478,24,2020-08-15_16h47.09.255,CDT_GNG_IUS12,2020.1.2,MacIntel,60,,,,,,,,,,,,,,,,,,0,1,,space,1,0.23456,,,,,,,,,,,0,46,46,33,1,,,,,,,,,,,,,,,,,,,,
,,,,,,,,,,,,,,,,,,,,,,,,,,,,,,,,,,,,,,,,,,,space,224478,24,2020-08-15_16h47.09.255,CDT_GNG_IUS12,2020.1.2,MacIntel,60,,,,,,,,,,,,,,,,,,0,1,,space,1,0.336655,,,,,,,,,,,0,47,47,37,1,,,,,,,,,,,,,,,,,,,,
,,,,,,,,,,,,,,,,,,,,,,,,,,,,,,,,,,,,,,,,,,,space,224478,24,2020-08-15_16h47.09.255,CDT_GNG_IUS12,2020.1.2,MacIntel,60,,,,,,,,,,,,,,,,,,0,1,,space,1,0.2337,,,,,,,,,,,0,48,48,47,1,,,,,,,,,,,,,,,,,,,,
,,,,,,,,,,,,,,,,,,,,,,,,,,,,,,,,,,,,,,,,,,,space,224478,24,2020-08-15_16h47.09.255,CDT_GNG_IUS12,2020.1.2,MacIntel,60,,,,,,,,,,,,,,,,,,0,1,,space,1,0.196415,,,,,,,,,,,0,49,49,32,1,,,,,,,,,,,,,,,,,,,,
,,,,,,,,,,,,,,,,,,,,,,,,,,,,,,,,,,,,,,,,,,,,224478,24,2020-08-15_16h47.09.255,CDT_GNG_IUS12,2020.1.2,MacIntel,60,,,,,,,,,,,,,,,,,,,,,,,,,,,,,,,,,,,,,,,5.121223958,13.667565,0,0,0,0,1,1,"On a scale from 0 to 10, indicate your personal perception of your proficiency level for English (10 being the highest score)",,,,,,,,,,,
,,,,,,,,,,,,,,,,,,,,,,,,,,,,,,,,,,,,,,,,,,,,224478,24,2020-08-15_16h47.09.255,CDT_GNG_IUS12,2020.1.2,MacIntel,60,,,,,,,,,,,,,,,,,,,,,,,,,,,,,,,,,,,,,,,4.883246528,0.106625,0,1,1,1,1,2,"On a scale from 0 to 10, indicate how frequently you are exposed to English (10 being 'always', 0 being 'never')",,,,,,,,,,,
,,,,,,,,,,,,,,,,,,,,,,,,,,,,,,,,,,,,,,,,,,,,224478,24,2020-08-15_16h47.09.255,CDT_GNG_IUS12,2020.1.2,MacIntel,60,,,,,,,,,,,,,,,,,,,,,,,,,,,,,,,,,,,,,,,,,,,,,,,"On a scale from 0 to 10, indicate your personal perception of your proficiency level for English (10 being the highest score)",3.002864583,8.15611,0,0,0,0,1,1,Unforeseen events upset me greatly.,,
,,,,,,,,,,,,,,,,,,,,,,,,,,,,,,,,,,,,,,,,,,,,224478,24,2020-08-15_16h47.09.255,CDT_GNG_IUS12,2020.1.2,MacIntel,60,,,,,,,,,,,,,,,,,,,,,,,,,,,,,,,,,,,,,,,,,,,,,,,"On a scale from 0 to 10, indicate how frequently you are exposed to English (10 being 'always', 0 being 'never')",3.024079861,10.42684,0,1,1,1,1,2,It frustrates me not having all the information I need.,,
,,,,,,,,,,,,,,,,,,,,,,,,,,,,,,,,,,,,,,,,,,,,224478,24,2020-08-15_16h47.09.255,CDT_GNG_IUS12,2020.1.2,MacIntel,60,,,,,,,,,,,,,,,,,,,,,,,,,,,,,,,,,,,,,,,,,,,,,,,,4.963489583,7.314145,0,2,2,2,1,3,One should always look ahead so as to avoid surprises.,,
,,,,,,,,,,,,,,,,,,,,,,,,,,,,,,,,,,,,,,,,,,,,224478,24,2020-08-15_16h47.09.255,CDT_GNG_IUS12,2020.1.2,MacIntel,60,,,,,,,,,,,,,,,,,,,,,,,,,,,,,,,,,,,,,,,,,,,,,,,,3.008975694,20.259305,0,3,3,3,1,4,"A small, unforeseen event can spoil everything, even with the best of planning. ",,
,,,,,,,,,,,,,,,,,,,,,,,,,,,,,,,,,,,,,,,,,,,,224478,24,2020-08-15_16h47.09.255,CDT_GNG_IUS12,2020.1.2,MacIntel,60,,,,,,,,,,,,,,,,,,,,,,,,,,,,,,,,,,,,,,,,,,,,,,,,4.008645833,5.277985,0,4,4,4,1,5,I always want to know what the future has in store for me.,,
,,,,,,,,,,,,,,,,,,,,,,,,,,,,,,,,,,,,,,,,,,,,224478,24,2020-08-15_16h47.09.255,CDT_GNG_IUS12,2020.1.2,MacIntel,60,,,,,,,,,,,,,,,,,,,,,,,,,,,,,,,,,,,,,,,,,,,,,,,,3.978802083,5.911555,0,5,5,5,1,6,I can't stand being taken by surprise.,,
,,,,,,,,,,,,,,,,,,,,,,,,,,,,,,,,,,,,,,,,,,,,224478,24,2020-08-15_16h47.09.255,CDT_GNG_IUS12,2020.1.2,MacIntel,60,,,,,,,,,,,,,,,,,,,,,,,,,,,,,,,,,,,,,,,,,,,,,,,,4.953958333,3.36349,0,6,6,6,1,7,I should be able to organize everything in advance,,
,,,,,,,,,,,,,,,,,,,,,,,,,,,,,,,,,,,,,,,,,,,,224478,24,2020-08-15_16h47.09.255,CDT_GNG_IUS12,2020.1.2,MacIntel,60,,,,,,,,,,,,,,,,,,,,,,,,,,,,,,,,,,,,,,,,,,,,,,,,3.041927083,7.57775,0,7,7,7,1,8,Uncertainty keeps me from living a full life.,,
,,,,,,,,,,,,,,,,,,,,,,,,,,,,,,,,,,,,,,,,,,,,224478,24,2020-08-15_16h47.09.255,CDT_GNG_IUS12,2020.1.2,MacIntel,60,,,,,,,,,,,,,,,,,,,,,,,,,,,,,,,,,,,,,,,,,,,,,,,,4.056684028,6.130295,0,8,8,8,1,9,"When it's time to act, uncertainty paralyses me. ",,
,,,,,,,,,,,,,,,,,,,,,,,,,,,,,,,,,,,,,,,,,,,,224478,24,2020-08-15_16h47.09.255,CDT_GNG_IUS12,2020.1.2,MacIntel,60,,,,,,,,,,,,,,,,,,,,,,,,,,,,,,,,,,,,,,,,,,,,,,,,4.99890625,5.910975,0,9,9,9,1,10,"When I am uncertain, I can't function very well. ",,
,,,,,,,,,,,,,,,,,,,,,,,,,,,,,,,,,,,,,,,,,,,,224478,24,2020-08-15_16h47.09.255,CDT_GNG_IUS12,2020.1.2,MacIntel,60,,,,,,,,,,,,,,,,,,,,,,,,,,,,,,,,,,,,,,,,,,,,,,,,4.0059375,6.74438,0,10,10,10,1,11,The smallest doubt can stop me from acting. ,,
,,,,,,,,,,,,,,,,,,,,,,,,,,,,,,,,,,,,,,,,,,,,224478,24,2020-08-15_16h47.09.255,CDT_GNG_IUS12,2020.1.2,MacIntel,60,,,,,,,,,,,,,,,,,,,,,,,,,,,,,,,,,,,,,,,,,,,,,,,,2.993315972,5.061345,0,11,11,11,1,12,I must get away from all uncertain situations. ,,
,,,,,,,,,,,,,,,,,,,,,,,,,,,,,,,,,,,,,,,,,,,,224478,24,2020-08-15_16h47.09.255,CDT_GNG_IUS12,2020.1.2,MacIntel,60,,,,,,,,,,,,,,,,,,,,,,,,,,,,,,,,,,,,,,,,,,,,,,,,,,,,,,,,,x,7.051485
