key_resp_6.keys,key_resp_6.rt,key_resp_2.keys,key_resp_2.corr,key_resp_2.rt,CDT_trials_train.thisRepN,CDT_trials_train.thisTrialN,CDT_trials_train.thisN,CDT_trials_train.thisIndex,CDT_trials_train.ran,trialnum,condit,stimamt,stim1posx,stim1posy,stim1col,stim1opa,stim2posx,stim2posy,stim2col,stim2opa,stim3posx,stim3posy,stim3col,stim3opa,stim4posx,stim4posy,stim4col,stim4opa,stim5posx,stim5posy,stim5col,stim5opa,stim6posx,stim6posy,stim6col,stim6opa,stimsizex,stimsizey,stimdur,targetposx,targetposy,targetcol,corrAns,participant,age,date,expName,psychopyVersion,OS,frameRate,key_resp_5.keys,key_resp.keys,key_resp.corr,key_resp.rt,CDT_trials.thisRepN,CDT_trials.thisTrialN,CDT_trials.thisN,CDT_trials.thisIndex,CDT_trials.ran,key_resp_5.rt,trialResp_Train.keys,trialResp_Train.corr,trialResp_Train.rt,GNGtrials_train.thisRepN,GNGtrials_train.thisTrialN,GNGtrials_train.thisN,GNGtrials_train.thisIndex,GNGtrials_train.ran,orangeOpacity,blueOpacity,trialResp.keys,trialResp.corr,trialResp.rt,GNG_trials_1.thisRepN,GNG_trials_1.thisTrialN,GNG_trials_1.thisN,GNG_trials_1.thisIndex,GNG_trials_1.ran,GNG_trials_2.thisRepN,GNG_trials_2.thisTrialN,GNG_trials_2.thisN,GNG_trials_2.thisIndex,GNG_trials_2.ran,GNG_trials_3.thisRepN,GNG_trials_3.thisTrialN,GNG_trials_3.thisN,GNG_trials_3.thisIndex,GNG_trials_3.ran,slider_2.response,slider_2.rt,engprof_trials.thisRepN,engprof_trials.thisTrialN,engprof_trials.thisN,engprof_trials.thisIndex,engprof_trials.ran,qpnumber,qproficiency,slider.response,slider.rt,IUS12_trials.thisRepN,IUS12_trials.thisTrialN,IUS12_trials.thisN,IUS12_trials.thisIndex,IUS12_trials.ran,qnumber,qenglish,key_resp_end.keys,key_resp_end.rt
y,5.175065,l,0,2.380785,0,0,0,0,1,1,same,4,0.273779233,-0.054755847,black,1,-0.16426754,-0.273779233,magenta,1,-0.16426754,0.16426754,orange,1,0.16426754,0.054755847,yellow,1,0.16426754,-0.054755847,cyan,0,-0.054755847,-0.16426754,blue,0,0.05,0.05,0.15,-0.16426754,0.16426754,orange,k,2446,31,2020-08-21_20h42.32.495,CDT_GNG_IUS12,2020.1.2,Win32,60,,,,,,,,,,,,,,,,,,,,,,,,,,,,,,,,,,,,,,,,,,,,,,,,,,,,,,,,,,
,,l,1,1.680295,0,1,1,1,1,2,different,4,0.054755847,-0.054755847,orange,1,-0.273779233,0.273779233,magenta,1,0.273779233,0.16426754,yellow,1,-0.273779233,-0.16426754,blue,1,0.273779233,-0.054755847,red,0,-0.273779233,0.054755847,cyan,0,0.05,0.05,0.15,-0.273779233,-0.16426754,black,l,2446,31,2020-08-21_20h42.32.495,CDT_GNG_IUS12,2020.1.2,Win32,60,,,,,,,,,,,,,,,,,,,,,,,,,,,,,,,,,,,,,,,,,,,,,,,,,,,,,,,,,,
,,k,1,1.107235,0,2,2,2,1,3,same,6,-0.054755847,0.273779233,green,1,0.273779233,-0.273779233,magenta,1,0.273779233,0.16426754,cyan,1,-0.054755847,-0.054755847,black,1,-0.273779233,0.16426754,orange,1,0.16426754,-0.054755847,blue,1,0.05,0.05,0.15,-0.054755847,0.273779233,green,k,2446,31,2020-08-21_20h42.32.495,CDT_GNG_IUS12,2020.1.2,Win32,60,,,,,,,,,,,,,,,,,,,,,,,,,,,,,,,,,,,,,,,,,,,,,,,,,,,,,,,,,,
,,l,1,1.26254,0,3,3,3,1,4,different,6,0.16426754,-0.054755847,orange,1,-0.054755847,0.273779233,red,1,0.273779233,0.273779233,green,1,-0.054755847,-0.273779233,yellow,1,0.273779233,-0.054755847,blue,1,-0.16426754,0.16426754,black,1,0.05,0.05,0.15,0.273779233,0.273779233,cyan,l,2446,31,2020-08-21_20h42.32.495,CDT_GNG_IUS12,2020.1.2,Win32,60,,,,,,,,,,,,,,,,,,,,,,,,,,,,,,,,,,,,,,,,,,,,,,,,,,,,,,,,,,
,,,,,,,,,,61,same,6,0.273779233,0.16426754,cyan,1,0.273779233,-0.273779233,blue,1,-0.16426754,-0.16426754,green,1,-0.16426754,0.273779233,black,1,0.16426754,0.054755847,red,1,0.273779233,-0.16426754,yellow,1,0.05,0.05,0.15,0.273779233,-0.16426754,yellow,k,2446,31,2020-08-21_20h42.32.495,CDT_GNG_IUS12,2020.1.2,Win32,60,,l,0,1.212355,0,0,0,60,1,,,,,,,,,,,,,,,,,,,,,,,,,,,,,,,,,,,,,,,,,,,,,,,,,
,,,,,,,,,,112,different,6,-0.273779233,-0.16426754,magenta,1,-0.054755847,0.054755847,orange,1,0.054755847,0.273779233,cyan,1,0.16426754,-0.273779233,yellow,1,-0.273779233,-0.273779233,black,1,-0.16426754,0.054755847,red,1,0.05,0.05,0.15,-0.16426754,0.054755847,orange,l,2446,31,2020-08-21_20h42.32.495,CDT_GNG_IUS12,2020.1.2,Win32,60,,k,0,0.973865,0,1,1,111,1,,,,,,,,,,,,,,,,,,,,,,,,,,,,,,,,,,,,,,,,,,,,,,,,,
,,,,,,,,,,64,same,6,0.16426754,0.273779233,black,1,-0.16426754,-0.16426754,orange,1,0.16426754,-0.16426754,red,1,-0.273779233,0.054755847,magenta,1,0.054755847,0.16426754,cyan,1,-0.054755847,-0.16426754,yellow,1,0.05,0.05,0.15,0.16426754,0.273779233,black,k,2446,31,2020-08-21_20h42.32.495,CDT_GNG_IUS12,2020.1.2,Win32,60,,k,1,2.20839,0,2,2,63,1,,,,,,,,,,,,,,,,,,,,,,,,,,,,,,,,,,,,,,,,,,,,,,,,,
,,,,,,,,,,48,different,4,0.16426754,0.273779233,cyan,1,-0.054755847,-0.273779233,magenta,1,0.16426754,-0.054755847,orange,1,-0.273779233,0.273779233,blue,1,0.273779233,0.16426754,red,0,-0.054755847,-0.16426754,green,0,0.05,0.05,0.15,0.16426754,-0.054755847,red,l,2446,31,2020-08-21_20h42.32.495,CDT_GNG_IUS12,2020.1.2,Win32,60,,l,1,1.375575,0,3,3,47,1,,,,,,,,,,,,,,,,,,,,,,,,,,,,,,,,,,,,,,,,,,,,,,,,,
,,,,,,,,,,24,same,4,0.054755847,-0.16426754,red,1,0.054755847,0.054755847,yellow,1,-0.273779233,0.16426754,orange,1,-0.273779233,-0.16426754,magenta,1,0.273779233,-0.16426754,black,0,0.273779233,0.273779233,green,0,0.05,0.05,0.15,0.054755847,-0.16426754,red,k,2446,31,2020-08-21_20h42.32.495,CDT_GNG_IUS12,2020.1.2,Win32,60,,l,0,1.18854,0,4,4,23,1,,,,,,,,,,,,,,,,,,,,,,,,,,,,,,,,,,,,,,,,,,,,,,,,,
,,,,,,,,,,119,different,6,-0.273779233,0.054755847,cyan,1,-0.273779233,-0.273779233,blue,1,0.16426754,0.054755847,orange,1,0.054755847,-0.16426754,yellow,1,-0.273779233,0.273779233,black,1,-0.054755847,-0.054755847,green,1,0.05,0.05,0.15,-0.273779233,-0.273779233,cyan,l,2446,31,2020-08-21_20h42.32.495,CDT_GNG_IUS12,2020.1.2,Win32,60,,l,1,1.540865,0,5,5,118,1,,,,,,,,,,,,,,,,,,,,,,,,,,,,,,,,,,,,,,,,,,,,,,,,,
,,,,,,,,,,1,same,4,-0.16426754,-0.273779233,orange,1,0.054755847,0.16426754,yellow,1,-0.16426754,0.16426754,green,1,0.054755847,-0.054755847,red,1,-0.273779233,-0.16426754,cyan,0,0.16426754,0.16426754,blue,0,0.05,0.05,0.15,0.054755847,0.16426754,yellow,k,2446,31,2020-08-21_20h42.32.495,CDT_GNG_IUS12,2020.1.2,Win32,60,,k,1,1.42904,0,6,6,0,1,,,,,,,,,,,,,,,,,,,,,,,,,,,,,,,,,,,,,,,,,,,,,,,,,
,,,,,,,,,,22,same,4,-0.054755847,-0.16426754,green,1,-0.16426754,0.054755847,blue,1,0.16426754,0.16426754,yellow,1,0.273779233,-0.054755847,black,1,-0.273779233,-0.054755847,red,0,-0.054755847,0.16426754,cyan,0,0.05,0.05,0.15,0.273779233,-0.054755847,black,k,2446,31,2020-08-21_20h42.32.495,CDT_GNG_IUS12,2020.1.2,Win32,60,,k,1,2.28701,0,7,7,21,1,,,,,,,,,,,,,,,,,,,,,,,,,,,,,,,,,,,,,,,,,,,,,,,,,
,,,,,,,,,,105,different,6,0.054755847,0.273779233,cyan,1,0.273779233,-0.16426754,magenta,1,-0.16426754,-0.054755847,yellow,1,-0.16426754,0.16426754,blue,1,0.273779233,0.16426754,orange,1,0.16426754,-0.273779233,green,1,0.05,0.05,0.15,0.16426754,-0.273779233,blue,l,2446,31,2020-08-21_20h42.32.495,CDT_GNG_IUS12,2020.1.2,Win32,60,,l,1,3.77946,0,8,8,104,1,,,,,,,,,,,,,,,,,,,,,,,,,,,,,,,,,,,,,,,,,,,,,,,,,
,,,,,,,,,,92,different,6,0.16426754,0.16426754,green,1,-0.054755847,-0.054755847,cyan,1,-0.054755847,0.054755847,red,1,0.16426754,-0.054755847,magenta,1,0.054755847,0.16426754,orange,1,-0.273779233,-0.16426754,yellow,1,0.05,0.05,0.15,0.16426754,0.16426754,cyan,l,2446,31,2020-08-21_20h42.32.495,CDT_GNG_IUS12,2020.1.2,Win32,60,,l,1,3.76634,0,9,9,91,1,,,,,,,,,,,,,,,,,,,,,,,,,,,,,,,,,,,,,,,,,,,,,,,,,
,,,,,,,,,,46,different,4,-0.16426754,0.273779233,yellow,1,-0.16426754,-0.16426754,green,1,0.16426754,0.054755847,black,1,0.273779233,-0.054755847,red,1,-0.16426754,0.16426754,blue,0,-0.273779233,-0.054755847,cyan,0,0.05,0.05,0.15,0.16426754,0.054755847,cyan,l,2446,31,2020-08-21_20h42.32.495,CDT_GNG_IUS12,2020.1.2,Win32,60,,l,1,2.38527,0,10,10,45,1,,,,,,,,,,,,,,,,,,,,,,,,,,,,,,,,,,,,,,,,,,,,,,,,,
,,,,,,,,,,98,different,6,-0.054755847,-0.16426754,magenta,1,0.273779233,0.273779233,green,1,0.273779233,-0.273779233,red,1,-0.16426754,0.273779233,blue,1,-0.273779233,-0.16426754,cyan,1,0.273779233,0.054755847,black,1,0.05,0.05,0.15,-0.16426754,0.273779233,cyan,l,2446,31,2020-08-21_20h42.32.495,CDT_GNG_IUS12,2020.1.2,Win32,60,,l,1,4.63616,0,11,11,97,1,,,,,,,,,,,,,,,,,,,,,,,,,,,,,,,,,,,,,,,,,,,,,,,,,
,,,,,,,,,,72,same,6,0.273779233,-0.16426754,blue,1,0.16426754,0.273779233,yellow,1,-0.16426754,0.273779233,magenta,1,-0.273779233,-0.054755847,orange,1,0.054755847,-0.16426754,cyan,1,0.273779233,0.054755847,black,1,0.05,0.05,0.15,-0.16426754,0.273779233,magenta,k,2446,31,2020-08-21_20h42.32.495,CDT_GNG_IUS12,2020.1.2,Win32,60,,l,0,1.62072,0,12,12,71,1,,,,,,,,,,,,,,,,,,,,,,,,,,,,,,,,,,,,,,,,,,,,,,,,,
,,,,,,,,,,45,different,4,0.054755847,0.16426754,blue,1,-0.054755847,-0.273779233,magenta,1,-0.16426754,0.16426754,black,1,0.054755847,-0.16426754,orange,1,0.273779233,0.273779233,green,0,-0.273779233,-0.16426754,cyan,0,0.05,0.05,0.15,-0.16426754,0.16426754,magenta,l,2446,31,2020-08-21_20h42.32.495,CDT_GNG_IUS12,2020.1.2,Win32,60,,l,1,1.56645,0,13,13,44,1,,,,,,,,,,,,,,,,,,,,,,,,,,,,,,,,,,,,,,,,,,,,,,,,,
,,,,,,,,,,41,different,4,0.054755847,-0.273779233,orange,1,-0.273779233,0.054755847,blue,1,-0.054755847,-0.16426754,yellow,1,0.273779233,0.16426754,red,1,0.273779233,-0.273779233,black,0,-0.273779233,0.273779233,magenta,0,0.05,0.05,0.15,-0.054755847,-0.16426754,black,l,2446,31,2020-08-21_20h42.32.495,CDT_GNG_IUS12,2020.1.2,Win32,60,,l,1,1.433755,0,14,14,40,1,,,,,,,,,,,,,,,,,,,,,,,,,,,,,,,,,,,,,,,,,,,,,,,,,
,,,,,,,,,,111,different,6,0.273779233,0.273779233,green,1,0.054755847,-0.16426754,red,1,-0.16426754,-0.16426754,black,1,-0.16426754,0.16426754,magenta,1,0.054755847,0.054755847,blue,1,0.273779233,-0.16426754,yellow,1,0.05,0.05,0.15,0.273779233,-0.16426754,green,l,2446,31,2020-08-21_20h42.32.495,CDT_GNG_IUS12,2020.1.2,Win32,60,,l,1,1.82578,0,15,15,110,1,,,,,,,,,,,,,,,,,,,,,,,,,,,,,,,,,,,,,,,,,,,,,,,,,
,,,,,,,,,,58,different,4,-0.16426754,0.273779233,blue,1,0.16426754,0.273779233,yellow,1,0.273779233,-0.16426754,black,1,-0.16426754,-0.054755847,cyan,1,-0.16426754,0.16426754,green,0,0.16426754,0.054755847,orange,0,0.05,0.05,0.15,0.273779233,-0.16426754,magenta,l,2446,31,2020-08-21_20h42.32.495,CDT_GNG_IUS12,2020.1.2,Win32,60,,l,1,1.10065,0,16,16,57,1,,,,,,,,,,,,,,,,,,,,,,,,,,,,,,,,,,,,,,,,,,,,,,,,,
,,,,,,,,,,94,different,6,0.273779233,-0.273779233,green,1,-0.16426754,-0.054755847,black,1,-0.273779233,0.16426754,blue,1,0.273779233,0.054755847,cyan,1,0.16426754,-0.16426754,magenta,1,-0.054755847,-0.054755847,orange,1,0.05,0.05,0.15,0.273779233,-0.273779233,magenta,l,2446,31,2020-08-21_20h42.32.495,CDT_GNG_IUS12,2020.1.2,Win32,60,,l,1,1.315975,0,17,17,93,1,,,,,,,,,,,,,,,,,,,,,,,,,,,,,,,,,,,,,,,,,,,,,,,,,
,,,,,,,,,,16,same,4,0.16426754,0.16426754,cyan,1,-0.16426754,-0.273779233,red,1,-0.16426754,0.16426754,black,1,0.273779233,-0.054755847,yellow,1,0.273779233,0.273779233,orange,0,-0.054755847,-0.273779233,blue,0,0.05,0.05,0.15,-0.16426754,-0.273779233,red,k,2446,31,2020-08-21_20h42.32.495,CDT_GNG_IUS12,2020.1.2,Win32,60,,k,1,1.474625,0,18,18,15,1,,,,,,,,,,,,,,,,,,,,,,,,,,,,,,,,,,,,,,,,,,,,,,,,,
,,,,,,,,,,66,same,6,0.273779233,-0.273779233,cyan,1,-0.273779233,-0.054755847,black,1,-0.273779233,0.054755847,yellow,1,0.273779233,0.16426754,green,1,0.054755847,-0.16426754,orange,1,-0.273779233,-0.16426754,magenta,1,0.05,0.05,0.15,0.273779233,0.16426754,green,k,2446,31,2020-08-21_20h42.32.495,CDT_GNG_IUS12,2020.1.2,Win32,60,,k,1,1.056605,0,19,19,65,1,,,,,,,,,,,,,,,,,,,,,,,,,,,,,,,,,,,,,,,,,,,,,,,,,
,,,,,,,,,,118,different,6,-0.16426754,-0.16426754,red,1,0.273779233,0.16426754,orange,1,-0.16426754,0.273779233,cyan,1,0.16426754,-0.273779233,black,1,-0.054755847,-0.054755847,yellow,1,0.054755847,0.054755847,green,1,0.05,0.05,0.15,-0.054755847,-0.054755847,magenta,l,2446,31,2020-08-21_20h42.32.495,CDT_GNG_IUS12,2020.1.2,Win32,60,,l,1,1.003875,0,20,20,117,1,,,,,,,,,,,,,,,,,,,,,,,,,,,,,,,,,,,,,,,,,,,,,,,,,
,,,,,,,,,,113,different,6,-0.273779233,0.054755847,black,1,-0.16426754,-0.16426754,blue,1,0.054755847,-0.16426754,orange,1,0.16426754,0.16426754,red,1,-0.273779233,0.273779233,green,1,-0.273779233,-0.16426754,magenta,1,0.05,0.05,0.15,-0.273779233,-0.16426754,black,l,2446,31,2020-08-21_20h42.32.495,CDT_GNG_IUS12,2020.1.2,Win32,60,,l,1,1.297455,0,21,21,112,1,,,,,,,,,,,,,,,,,,,,,,,,,,,,,,,,,,,,,,,,,,,,,,,,,
,,,,,,,,,,117,different,6,-0.054755847,0.054755847,black,1,0.054755847,0.273779233,magenta,1,-0.273779233,-0.273779233,yellow,1,0.054755847,-0.16426754,blue,1,-0.16426754,0.054755847,cyan,1,0.054755847,0.054755847,red,1,0.05,0.05,0.15,-0.16426754,0.054755847,black,l,2446,31,2020-08-21_20h42.32.495,CDT_GNG_IUS12,2020.1.2,Win32,60,,l,1,1.686195,0,22,22,116,1,,,,,,,,,,,,,,,,,,,,,,,,,,,,,,,,,,,,,,,,,,,,,,,,,
,,,,,,,,,,49,different,4,-0.16426754,-0.273779233,black,1,0.16426754,0.16426754,red,1,-0.273779233,0.16426754,yellow,1,0.054755847,-0.273779233,green,1,-0.273779233,-0.273779233,magenta,0,0.054755847,0.273779233,blue,0,0.05,0.05,0.15,0.054755847,-0.273779233,orange,l,2446,31,2020-08-21_20h42.32.495,CDT_GNG_IUS12,2020.1.2,Win32,60,,l,1,1.330265,0,23,23,48,1,,,,,,,,,,,,,,,,,,,,,,,,,,,,,,,,,,,,,,,,,,,,,,,,,
,,,,,,,,,,116,different,6,-0.273779233,0.16426754,green,1,-0.054755847,-0.054755847,orange,1,0.273779233,-0.273779233,cyan,1,0.054755847,0.273779233,red,1,-0.054755847,0.16426754,blue,1,-0.16426754,-0.054755847,yellow,1,0.05,0.05,0.15,-0.054755847,-0.054755847,magenta,l,2446,31,2020-08-21_20h42.32.495,CDT_GNG_IUS12,2020.1.2,Win32,60,,l,1,0.937865,0,24,24,115,1,,,,,,,,,,,,,,,,,,,,,,,,,,,,,,,,,,,,,,,,,,,,,,,,,
,,,,,,,,,,76,same,6,0.16426754,0.054755847,cyan,1,0.273779233,-0.273779233,red,1,-0.054755847,-0.273779233,magenta,1,-0.054755847,0.16426754,yellow,1,0.054755847,0.273779233,blue,1,0.054755847,-0.273779233,green,1,0.05,0.05,0.15,0.16426754,0.054755847,cyan,k,2446,31,2020-08-21_20h42.32.495,CDT_GNG_IUS12,2020.1.2,Win32,60,,k,1,1.098605,0,25,25,75,1,,,,,,,,,,,,,,,,,,,,,,,,,,,,,,,,,,,,,,,,,,,,,,,,,
,,,,,,,,,,67,same,6,0.273779233,-0.054755847,magenta,1,0.16426754,0.273779233,orange,1,-0.273779233,0.273779233,cyan,1,-0.16426754,-0.054755847,yellow,1,0.16426754,-0.16426754,blue,1,0.16426754,0.16426754,red,1,0.05,0.05,0.15,-0.273779233,0.273779233,cyan,k,2446,31,2020-08-21_20h42.32.495,CDT_GNG_IUS12,2020.1.2,Win32,60,,k,1,1.44067,0,26,26,66,1,,,,,,,,,,,,,,,,,,,,,,,,,,,,,,,,,,,,,,,,,,,,,,,,,
,,,,,,,,,,83,same,6,0.054755847,-0.16426754,cyan,1,-0.16426754,-0.16426754,blue,1,0.273779233,0.054755847,magenta,1,-0.273779233,0.273779233,green,1,0.273779233,-0.16426754,orange,1,-0.054755847,-0.054755847,yellow,1,0.05,0.05,0.15,-0.054755847,-0.054755847,yellow,k,2446,31,2020-08-21_20h42.32.495,CDT_GNG_IUS12,2020.1.2,Win32,60,,l,0,3.17507,0,27,27,82,1,,,,,,,,,,,,,,,,,,,,,,,,,,,,,,,,,,,,,,,,,,,,,,,,,
,,,,,,,,,,95,different,6,-0.273779233,-0.16426754,magenta,1,0.16426754,0.273779233,green,1,-0.273779233,0.273779233,black,1,0.16426754,-0.273779233,orange,1,-0.054755847,-0.16426754,blue,1,0.16426754,0.054755847,cyan,1,0.05,0.05,0.15,0.16426754,0.273779233,black,l,2446,31,2020-08-21_20h42.32.495,CDT_GNG_IUS12,2020.1.2,Win32,60,,l,1,2.36416,0,28,28,94,1,,,,,,,,,,,,,,,,,,,,,,,,,,,,,,,,,,,,,,,,,,,,,,,,,
,,,,,,,,,,40,different,4,-0.273779233,-0.273779233,magenta,1,0.054755847,-0.16426754,yellow,1,-0.16426754,0.054755847,red,1,0.273779233,0.273779233,orange,1,-0.054755847,-0.054755847,cyan,0,0.16426754,-0.16426754,green,0,0.05,0.05,0.15,0.273779233,0.273779233,black,l,2446,31,2020-08-21_20h42.32.495,CDT_GNG_IUS12,2020.1.2,Win32,60,,l,1,1.146125,0,29,29,39,1,,,,,,,,,,,,,,,,,,,,,,,,,,,,,,,,,,,,,,,,,,,,,,,,,
,,,,,,,,,,91,different,6,-0.054755847,0.054755847,green,1,0.054755847,-0.16426754,cyan,1,-0.054755847,-0.054755847,black,1,0.16426754,0.273779233,yellow,1,-0.273779233,0.273779233,magenta,1,0.16426754,-0.054755847,red,1,0.05,0.05,0.15,0.16426754,-0.054755847,green,l,2446,31,2020-08-21_20h42.32.495,CDT_GNG_IUS12,2020.1.2,Win32,60,,k,0,1.490915,0,30,30,90,1,,,,,,,,,,,,,,,,,,,,,,,,,,,,,,,,,,,,,,,,,,,,,,,,,
,,,,,,,,,,69,same,6,-0.054755847,-0.054755847,black,1,0.273779233,-0.054755847,orange,1,-0.273779233,0.16426754,blue,1,0.054755847,0.054755847,yellow,1,-0.16426754,-0.16426754,green,1,0.054755847,-0.16426754,magenta,1,0.05,0.05,0.15,-0.16426754,-0.16426754,green,k,2446,31,2020-08-21_20h42.32.495,CDT_GNG_IUS12,2020.1.2,Win32,60,,k,1,2.43959,0,31,31,68,1,,,,,,,,,,,,,,,,,,,,,,,,,,,,,,,,,,,,,,,,,,,,,,,,,
,,,,,,,,,,114,different,6,-0.16426754,0.16426754,black,1,-0.054755847,-0.273779233,orange,1,0.054755847,0.16426754,magenta,1,0.273779233,-0.16426754,green,1,-0.054755847,0.16426754,cyan,1,-0.273779233,-0.273779233,yellow,1,0.05,0.05,0.15,0.054755847,0.16426754,blue,l,2446,31,2020-08-21_20h42.32.495,CDT_GNG_IUS12,2020.1.2,Win32,60,,l,1,1.14729,0,32,32,113,1,,,,,,,,,,,,,,,,,,,,,,,,,,,,,,,,,,,,,,,,,,,,,,,,,
,,,,,,,,,,89,same,6,-0.054755847,-0.273779233,cyan,1,-0.16426754,0.16426754,green,1,0.273779233,0.273779233,black,1,0.273779233,-0.273779233,orange,1,-0.273779233,-0.16426754,magenta,1,-0.16426754,0.273779233,yellow,1,0.05,0.05,0.15,-0.16426754,0.273779233,yellow,k,2446,31,2020-08-21_20h42.32.495,CDT_GNG_IUS12,2020.1.2,Win32,60,,l,0,2.247375,0,33,33,88,1,,,,,,,,,,,,,,,,,,,,,,,,,,,,,,,,,,,,,,,,,,,,,,,,,
,,,,,,,,,,19,same,4,-0.054755847,-0.16426754,orange,1,-0.273779233,0.273779233,red,1,0.273779233,0.054755847,yellow,1,0.273779233,-0.16426754,magenta,1,-0.273779233,-0.054755847,black,0,-0.054755847,0.273779233,blue,0,0.05,0.05,0.15,0.273779233,-0.16426754,magenta,k,2446,31,2020-08-21_20h42.32.495,CDT_GNG_IUS12,2020.1.2,Win32,60,,k,1,4.14123,0,34,34,18,1,,,,,,,,,,,,,,,,,,,,,,,,,,,,,,,,,,,,,,,,,,,,,,,,,
,,,,,,,,,,2,same,4,0.273779233,0.054755847,magenta,1,-0.273779233,0.273779233,red,1,-0.054755847,-0.054755847,yellow,1,0.273779233,-0.273779233,blue,1,0.054755847,0.16426754,green,0,-0.16426754,0.054755847,cyan,0,0.05,0.05,0.15,0.273779233,-0.273779233,blue,k,2446,31,2020-08-21_20h42.32.495,CDT_GNG_IUS12,2020.1.2,Win32,60,,k,1,1.93143,0,35,35,1,1,,,,,,,,,,,,,,,,,,,,,,,,,,,,,,,,,,,,,,,,,,,,,,,,,
,,,,,,,,,,53,different,4,-0.16426754,0.054755847,green,1,0.273779233,0.054755847,cyan,1,-0.273779233,-0.273779233,magenta,1,0.054755847,-0.16426754,black,1,-0.054755847,0.16426754,red,0,0.273779233,0.273779233,blue,0,0.05,0.05,0.15,-0.273779233,-0.273779233,black,l,2446,31,2020-08-21_20h42.32.495,CDT_GNG_IUS12,2020.1.2,Win32,60,,l,1,1.1931,0,36,36,52,1,,,,,,,,,,,,,,,,,,,,,,,,,,,,,,,,,,,,,,,,,,,,,,,,,
,,,,,,,,,,65,same,6,-0.273779233,-0.16426754,cyan,1,-0.054755847,0.054755847,blue,1,0.054755847,-0.054755847,red,1,0.273779233,0.054755847,green,1,-0.16426754,-0.054755847,orange,1,-0.273779233,0.273779233,yellow,1,0.05,0.05,0.15,-0.273779233,-0.16426754,cyan,k,2446,31,2020-08-21_20h42.32.495,CDT_GNG_IUS12,2020.1.2,Win32,60,,l,0,1.261115,0,37,37,64,1,,,,,,,,,,,,,,,,,,,,,,,,,,,,,,,,,,,,,,,,,,,,,,,,,
,,,,,,,,,,3,same,4,-0.054755847,-0.054755847,yellow,1,-0.054755847,0.054755847,cyan,1,0.16426754,-0.273779233,black,1,0.273779233,0.273779233,magenta,1,-0.054755847,-0.273779233,orange,0,-0.273779233,0.054755847,green,0,0.05,0.05,0.15,0.273779233,0.273779233,magenta,k,2446,31,2020-08-21_20h42.32.495,CDT_GNG_IUS12,2020.1.2,Win32,60,,l,0,2.598315,0,38,38,2,1,,,,,,,,,,,,,,,,,,,,,,,,,,,,,,,,,,,,,,,,,,,,,,,,,
,,,,,,,,,,107,different,6,0.273779233,0.16426754,cyan,1,-0.16426754,-0.273779233,magenta,1,-0.054755847,0.054755847,black,1,0.16426754,-0.054755847,blue,1,0.16426754,0.054755847,green,1,-0.273779233,-0.16426754,yellow,1,0.05,0.05,0.15,0.16426754,0.054755847,blue,l,2446,31,2020-08-21_20h42.32.495,CDT_GNG_IUS12,2020.1.2,Win32,60,,l,1,2.1865,0,39,39,106,1,,,,,,,,,,,,,,,,,,,,,,,,,,,,,,,,,,,,,,,,,,,,,,,,,
,,,,,,,,,,21,same,4,0.273779233,0.273779233,black,1,-0.273779233,-0.273779233,blue,1,0.054755847,-0.16426754,yellow,1,-0.273779233,0.054755847,cyan,1,0.16426754,0.273779233,magenta,0,-0.054755847,-0.054755847,green,0,0.05,0.05,0.15,0.273779233,0.273779233,black,k,2446,31,2020-08-21_20h42.32.495,CDT_GNG_IUS12,2020.1.2,Win32,60,,k,1,1.33197,0,40,40,20,1,,,,,,,,,,,,,,,,,,,,,,,,,,,,,,,,,,,,,,,,,,,,,,,,,
,,,,,,,,,,78,same,6,0.054755847,0.054755847,black,1,-0.054755847,0.16426754,red,1,0.273779233,-0.273779233,blue,1,-0.054755847,-0.054755847,magenta,1,0.16426754,0.054755847,yellow,1,-0.273779233,0.16426754,cyan,1,0.05,0.05,0.15,-0.054755847,0.16426754,red,k,2446,31,2020-08-21_20h42.32.495,CDT_GNG_IUS12,2020.1.2,Win32,60,,l,0,4.550955,0,41,41,77,1,,,,,,,,,,,,,,,,,,,,,,,,,,,,,,,,,,,,,,,,,,,,,,,,,
,,,,,,,,,,103,different,6,-0.273779233,-0.16426754,black,1,0.273779233,-0.054755847,cyan,1,0.054755847,0.273779233,magenta,1,-0.054755847,0.16426754,orange,1,-0.16426754,-0.16426754,green,1,0.273779233,-0.16426754,red,1,0.05,0.05,0.15,-0.273779233,-0.16426754,blue,l,2446,31,2020-08-21_20h42.32.495,CDT_GNG_IUS12,2020.1.2,Win32,60,,l,1,1.21827,0,42,42,102,1,,,,,,,,,,,,,,,,,,,,,,,,,,,,,,,,,,,,,,,,,,,,,,,,,
,,,,,,,,,,50,different,4,-0.16426754,0.054755847,black,1,-0.273779233,-0.16426754,magenta,1,0.054755847,0.054755847,cyan,1,0.273779233,-0.16426754,green,1,-0.273779233,0.273779233,yellow,0,-0.16426754,-0.054755847,orange,0,0.05,0.05,0.15,-0.273779233,-0.16426754,yellow,l,2446,31,2020-08-21_20h42.32.495,CDT_GNG_IUS12,2020.1.2,Win32,60,,l,1,2.52243,0,43,43,49,1,,,,,,,,,,,,,,,,,,,,,,,,,,,,,,,,,,,,,,,,,,,,,,,,,
,,,,,,,,,,51,different,4,-0.16426754,-0.273779233,yellow,1,0.16426754,-0.273779233,cyan,1,0.273779233,0.054755847,blue,1,-0.054755847,0.273779233,green,1,-0.16426754,-0.054755847,black,0,0.273779233,-0.273779233,red,0,0.05,0.05,0.15,0.16426754,-0.273779233,red,l,2446,31,2020-08-21_20h42.32.495,CDT_GNG_IUS12,2020.1.2,Win32,60,,l,1,1.356255,0,44,44,50,1,,,,,,,,,,,,,,,,,,,,,,,,,,,,,,,,,,,,,,,,,,,,,,,,,
,,,,,,,,,,36,different,4,-0.16426754,-0.054755847,cyan,1,0.16426754,0.054755847,red,1,0.16426754,-0.054755847,black,1,-0.273779233,0.273779233,orange,1,-0.054755847,-0.054755847,yellow,0,0.273779233,0.273779233,green,0,0.05,0.05,0.15,0.16426754,-0.054755847,orange,l,2446,31,2020-08-21_20h42.32.495,CDT_GNG_IUS12,2020.1.2,Win32,60,,l,1,1.03803,0,45,45,35,1,,,,,,,,,,,,,,,,,,,,,,,,,,,,,,,,,,,,,,,,,,,,,,,,,
,,,,,,,,,,90,same,6,0.16426754,-0.054755847,black,1,-0.273779233,-0.054755847,orange,1,-0.16426754,0.16426754,cyan,1,0.273779233,0.273779233,blue,1,0.054755847,-0.054755847,magenta,1,-0.273779233,-0.273779233,yellow,1,0.05,0.05,0.15,-0.273779233,-0.054755847,orange,k,2446,31,2020-08-21_20h42.32.495,CDT_GNG_IUS12,2020.1.2,Win32,60,,l,0,1.703235,0,46,46,89,1,,,,,,,,,,,,,,,,,,,,,,,,,,,,,,,,,,,,,,,,,,,,,,,,,
,,,,,,,,,,13,same,4,0.16426754,0.273779233,orange,1,0.054755847,-0.273779233,blue,1,-0.054755847,0.054755847,magenta,1,-0.054755847,-0.16426754,black,1,0.054755847,0.16426754,yellow,0,0.16426754,-0.054755847,cyan,0,0.05,0.05,0.15,0.054755847,-0.273779233,blue,k,2446,31,2020-08-21_20h42.32.495,CDT_GNG_IUS12,2020.1.2,Win32,60,,l,0,1.48294,0,47,47,12,1,,,,,,,,,,,,,,,,,,,,,,,,,,,,,,,,,,,,,,,,,,,,,,,,,
,,,,,,,,,,82,same,6,-0.054755847,-0.16426754,red,1,0.273779233,-0.054755847,cyan,1,0.16426754,0.273779233,blue,1,-0.054755847,0.054755847,black,1,-0.16426754,-0.16426754,yellow,1,0.273779233,-0.16426754,green,1,0.05,0.05,0.15,-0.16426754,-0.16426754,yellow,k,2446,31,2020-08-21_20h42.32.495,CDT_GNG_IUS12,2020.1.2,Win32,60,,l,0,1.712375,0,48,48,81,1,,,,,,,,,,,,,,,,,,,,,,,,,,,,,,,,,,,,,,,,,,,,,,,,,
,,,,,,,,,,75,same,6,0.16426754,0.273779233,magenta,1,-0.273779233,-0.16426754,green,1,-0.273779233,0.16426754,yellow,1,0.054755847,-0.054755847,red,1,0.273779233,0.054755847,blue,1,-0.16426754,-0.054755847,cyan,1,0.05,0.05,0.15,0.054755847,-0.054755847,red,k,2446,31,2020-08-21_20h42.32.495,CDT_GNG_IUS12,2020.1.2,Win32,60,,l,0,1.28648,0,49,49,74,1,,,,,,,,,,,,,,,,,,,,,,,,,,,,,,,,,,,,,,,,,,,,,,,,,
,,,,,,,,,,15,same,4,0.054755847,-0.273779233,yellow,1,-0.273779233,-0.054755847,cyan,1,0.273779233,0.16426754,green,1,-0.16426754,0.16426754,blue,1,0.273779233,-0.054755847,magenta,0,-0.16426754,-0.054755847,orange,0,0.05,0.05,0.15,-0.273779233,-0.054755847,cyan,k,2446,31,2020-08-21_20h42.32.495,CDT_GNG_IUS12,2020.1.2,Win32,60,,k,1,2.16476,0,50,50,14,1,,,,,,,,,,,,,,,,,,,,,,,,,,,,,,,,,,,,,,,,,,,,,,,,,
,,,,,,,,,,54,different,4,-0.054755847,-0.054755847,black,1,0.054755847,0.054755847,cyan,1,0.273779233,-0.16426754,green,1,-0.273779233,0.16426754,magenta,1,-0.054755847,-0.16426754,orange,0,0.054755847,0.16426754,blue,0,0.05,0.05,0.15,-0.273779233,0.16426754,orange,l,2446,31,2020-08-21_20h42.32.495,CDT_GNG_IUS12,2020.1.2,Win32,60,,l,1,1.45283,0,51,51,53,1,,,,,,,,,,,,,,,,,,,,,,,,,,,,,,,,,,,,,,,,,,,,,,,,,
,,,,,,,,,,12,same,4,0.054755847,0.054755847,blue,1,-0.273779233,-0.054755847,magenta,1,-0.054755847,0.273779233,black,1,0.16426754,-0.16426754,green,1,0.16426754,0.16426754,yellow,0,-0.16426754,-0.054755847,orange,0,0.05,0.05,0.15,0.054755847,0.054755847,blue,k,2446,31,2020-08-21_20h42.32.495,CDT_GNG_IUS12,2020.1.2,Win32,60,,l,0,1.05295,0,52,52,11,1,,,,,,,,,,,,,,,,,,,,,,,,,,,,,,,,,,,,,,,,,,,,,,,,,
,,,,,,,,,,17,same,4,0.16426754,0.273779233,yellow,1,-0.054755847,0.16426754,orange,1,0.273779233,-0.054755847,cyan,1,-0.273779233,-0.054755847,green,1,0.16426754,0.16426754,blue,0,-0.054755847,0.273779233,magenta,0,0.05,0.05,0.15,0.16426754,0.273779233,yellow,k,2446,31,2020-08-21_20h42.32.495,CDT_GNG_IUS12,2020.1.2,Win32,60,,k,1,4.02162,0,53,53,16,1,,,,,,,,,,,,,,,,,,,,,,,,,,,,,,,,,,,,,,,,,,,,,,,,,
,,,,,,,,,,52,different,4,-0.273779233,-0.16426754,magenta,1,-0.273779233,0.054755847,green,1,0.273779233,-0.054755847,cyan,1,0.273779233,0.054755847,black,1,-0.16426754,-0.16426754,orange,0,-0.054755847,0.054755847,red,0,0.05,0.05,0.15,-0.273779233,-0.16426754,black,l,2446,31,2020-08-21_20h42.32.495,CDT_GNG_IUS12,2020.1.2,Win32,60,,l,1,1.04112,0,54,54,51,1,,,,,,,,,,,,,,,,,,,,,,,,,,,,,,,,,,,,,,,,,,,,,,,,,
,,,,,,,,,,57,different,4,-0.273779233,-0.054755847,yellow,1,0.16426754,-0.054755847,green,1,-0.273779233,0.16426754,red,1,0.273779233,0.054755847,black,1,-0.16426754,-0.054755847,orange,0,0.054755847,-0.16426754,magenta,0,0.05,0.05,0.15,0.16426754,-0.054755847,orange,l,2446,31,2020-08-21_20h42.32.495,CDT_GNG_IUS12,2020.1.2,Win32,60,,l,1,1.100925,0,55,55,56,1,,,,,,,,,,,,,,,,,,,,,,,,,,,,,,,,,,,,,,,,,,,,,,,,,
,,,,,,,,,,7,same,4,-0.16426754,-0.054755847,yellow,1,0.273779233,0.16426754,magenta,1,-0.16426754,0.054755847,cyan,1,0.054755847,-0.054755847,black,1,-0.054755847,-0.054755847,orange,0,0.273779233,0.273779233,blue,0,0.05,0.05,0.15,0.054755847,-0.054755847,black,k,2446,31,2020-08-21_20h42.32.495,CDT_GNG_IUS12,2020.1.2,Win32,60,,k,1,2.86489,0,56,56,6,1,,,,,,,,,,,,,,,,,,,,,,,,,,,,,,,,,,,,,,,,,,,,,,,,,
,,,,,,,,,,43,different,4,-0.16426754,-0.054755847,red,1,0.273779233,0.054755847,cyan,1,-0.16426754,0.054755847,orange,1,0.054755847,-0.054755847,blue,1,-0.054755847,-0.273779233,magenta,0,0.273779233,0.273779233,yellow,0,0.05,0.05,0.15,-0.16426754,-0.054755847,yellow,l,2446,31,2020-08-21_20h42.32.495,CDT_GNG_IUS12,2020.1.2,Win32,60,,l,1,1.182515,0,57,57,42,1,,,,,,,,,,,,,,,,,,,,,,,,,,,,,,,,,,,,,,,,,,,,,,,,,
,,,,,,,,,,87,same,6,0.273779233,0.16426754,green,1,-0.16426754,-0.054755847,black,1,-0.054755847,0.054755847,cyan,1,0.273779233,-0.054755847,blue,1,0.054755847,0.054755847,yellow,1,-0.273779233,-0.273779233,red,1,0.05,0.05,0.15,-0.273779233,-0.273779233,red,k,2446,31,2020-08-21_20h42.32.495,CDT_GNG_IUS12,2020.1.2,Win32,60,,l,0,2.23919,0,58,58,86,1,,,,,,,,,,,,,,,,,,,,,,,,,,,,,,,,,,,,,,,,,,,,,,,,,
,,,,,,,,,,23,same,4,0.273779233,-0.16426754,yellow,1,0.054755847,0.273779233,red,1,-0.054755847,0.054755847,black,1,-0.273779233,-0.054755847,orange,1,0.273779233,-0.054755847,green,0,0.273779233,0.054755847,magenta,0,0.05,0.05,0.15,-0.054755847,0.054755847,black,k,2446,31,2020-08-21_20h42.32.495,CDT_GNG_IUS12,2020.1.2,Win32,60,s,k,1,1.40862,0,59,59,22,1,3.63206,,,,,,,,,,,,,,,,,,,,,,,,,,,,,,,,,,,,,,,,,,,,,,,,
,,,,,,,,,,99,different,6,0.054755847,0.16426754,orange,1,0.16426754,-0.16426754,yellow,1,-0.16426754,0.273779233,red,1,-0.273779233,-0.054755847,magenta,1,0.16426754,0.054755847,black,1,0.054755847,-0.054755847,green,1,0.05,0.05,0.15,-0.16426754,0.273779233,blue,l,2446,31,2020-08-21_20h42.32.495,CDT_GNG_IUS12,2020.1.2,Win32,60,,l,1,1.51701,0,60,60,98,1,,,,,,,,,,,,,,,,,,,,,,,,,,,,,,,,,,,,,,,,,,,,,,,,,
,,,,,,,,,,62,same,6,0.054755847,-0.054755847,yellow,1,-0.273779233,-0.16426754,green,1,0.273779233,0.054755847,orange,1,-0.16426754,0.054755847,cyan,1,0.054755847,-0.273779233,red,1,-0.054755847,-0.054755847,blue,1,0.05,0.05,0.15,0.054755847,-0.054755847,yellow,k,2446,31,2020-08-21_20h42.32.495,CDT_GNG_IUS12,2020.1.2,Win32,60,,k,1,1.24854,0,61,61,61,1,,,,,,,,,,,,,,,,,,,,,,,,,,,,,,,,,,,,,,,,,,,,,,,,,
,,,,,,,,,,10,same,4,0.273779233,0.273779233,green,1,-0.16426754,-0.054755847,yellow,1,-0.16426754,0.16426754,cyan,1,0.273779233,-0.16426754,blue,1,0.273779233,0.054755847,orange,0,-0.273779233,-0.16426754,red,0,0.05,0.05,0.15,0.273779233,0.273779233,green,k,2446,31,2020-08-21_20h42.32.495,CDT_GNG_IUS12,2020.1.2,Win32,60,,l,0,3.90783,0,62,62,9,1,,,,,,,,,,,,,,,,,,,,,,,,,,,,,,,,,,,,,,,,,,,,,,,,,
,,,,,,,,,,34,different,4,0.16426754,0.16426754,yellow,1,0.273779233,-0.16426754,cyan,1,-0.273779233,-0.273779233,magenta,1,-0.273779233,0.16426754,green,1,0.054755847,0.054755847,black,0,0.273779233,-0.273779233,orange,0,0.05,0.05,0.15,0.16426754,0.16426754,cyan,l,2446,31,2020-08-21_20h42.32.495,CDT_GNG_IUS12,2020.1.2,Win32,60,,l,1,1.318615,0,63,63,33,1,,,,,,,,,,,,,,,,,,,,,,,,,,,,,,,,,,,,,,,,,,,,,,,,,
,,,,,,,,,,102,different,6,-0.273779233,-0.273779233,magenta,1,0.054755847,0.16426754,green,1,0.16426754,-0.273779233,yellow,1,-0.16426754,0.054755847,orange,1,-0.16426754,-0.273779233,red,1,0.273779233,0.054755847,cyan,1,0.05,0.05,0.15,-0.273779233,-0.273779233,yellow,l,2446,31,2020-08-21_20h42.32.495,CDT_GNG_IUS12,2020.1.2,Win32,60,,l,1,2.3174,0,64,64,101,1,,,,,,,,,,,,,,,,,,,,,,,,,,,,,,,,,,,,,,,,,,,,,,,,,
,,,,,,,,,,33,different,4,-0.273779233,0.273779233,yellow,1,0.16426754,-0.16426754,cyan,1,-0.273779233,-0.273779233,black,1,0.054755847,0.273779233,blue,1,-0.16426754,0.273779233,green,0,0.054755847,-0.273779233,orange,0,0.05,0.05,0.15,-0.273779233,-0.273779233,cyan,l,2446,31,2020-08-21_20h42.32.495,CDT_GNG_IUS12,2020.1.2,Win32,60,,l,1,1.507205,0,65,65,32,1,,,,,,,,,,,,,,,,,,,,,,,,,,,,,,,,,,,,,,,,,,,,,,,,,
,,,,,,,,,,104,different,6,0.054755847,-0.16426754,magenta,1,0.273779233,0.273779233,yellow,1,-0.273779233,0.273779233,blue,1,-0.16426754,-0.054755847,cyan,1,0.16426754,-0.054755847,orange,1,0.273779233,0.16426754,green,1,0.05,0.05,0.15,0.054755847,-0.16426754,cyan,l,2446,31,2020-08-21_20h42.32.495,CDT_GNG_IUS12,2020.1.2,Win32,60,,k,0,3.09406,0,66,66,103,1,,,,,,,,,,,,,,,,,,,,,,,,,,,,,,,,,,,,,,,,,,,,,,,,,
,,,,,,,,,,39,different,4,0.054755847,0.054755847,green,1,0.273779233,-0.16426754,yellow,1,-0.16426754,0.054755847,orange,1,-0.273779233,-0.054755847,red,1,0.273779233,0.054755847,blue,0,0.054755847,-0.16426754,cyan,0,0.05,0.05,0.15,-0.273779233,-0.054755847,cyan,l,2446,31,2020-08-21_20h42.32.495,CDT_GNG_IUS12,2020.1.2,Win32,60,,l,1,1.09802,0,67,67,38,1,,,,,,,,,,,,,,,,,,,,,,,,,,,,,,,,,,,,,,,,,,,,,,,,,
,,,,,,,,,,85,same,6,-0.16426754,-0.273779233,black,1,-0.16426754,0.16426754,green,1,0.16426754,-0.054755847,blue,1,0.054755847,0.054755847,magenta,1,-0.16426754,-0.054755847,red,1,-0.054755847,0.054755847,yellow,1,0.05,0.05,0.15,-0.16426754,-0.273779233,black,k,2446,31,2020-08-21_20h42.32.495,CDT_GNG_IUS12,2020.1.2,Win32,60,,k,1,1.432375,0,68,68,84,1,,,,,,,,,,,,,,,,,,,,,,,,,,,,,,,,,,,,,,,,,,,,,,,,,
,,,,,,,,,,59,different,4,0.16426754,-0.16426754,red,1,-0.054755847,-0.16426754,cyan,1,0.054755847,0.16426754,yellow,1,-0.16426754,0.273779233,green,1,0.16426754,-0.054755847,orange,0,-0.16426754,-0.054755847,black,0,0.05,0.05,0.15,-0.16426754,0.273779233,black,l,2446,31,2020-08-21_20h42.32.495,CDT_GNG_IUS12,2020.1.2,Win32,60,,l,1,1.00628,0,69,69,58,1,,,,,,,,,,,,,,,,,,,,,,,,,,,,,,,,,,,,,,,,,,,,,,,,,
,,,,,,,,,,79,same,6,0.054755847,-0.16426754,black,1,-0.054755847,-0.273779233,yellow,1,-0.273779233,0.273779233,red,1,0.054755847,0.054755847,magenta,1,0.16426754,-0.054755847,cyan,1,-0.16426754,-0.054755847,orange,1,0.05,0.05,0.15,0.054755847,0.054755847,magenta,k,2446,31,2020-08-21_20h42.32.495,CDT_GNG_IUS12,2020.1.2,Win32,60,,l,0,1.120685,0,70,70,78,1,,,,,,,,,,,,,,,,,,,,,,,,,,,,,,,,,,,,,,,,,,,,,,,,,
,,,,,,,,,,9,same,4,-0.16426754,0.054755847,cyan,1,0.16426754,-0.16426754,magenta,1,-0.273779233,-0.054755847,black,1,0.054755847,0.054755847,green,1,-0.273779233,0.16426754,orange,0,0.273779233,-0.273779233,red,0,0.05,0.05,0.15,-0.273779233,-0.054755847,black,k,2446,31,2020-08-21_20h42.32.495,CDT_GNG_IUS12,2020.1.2,Win32,60,,k,1,1.57423,0,71,71,8,1,,,,,,,,,,,,,,,,,,,,,,,,,,,,,,,,,,,,,,,,,,,,,,,,,
,,,,,,,,,,86,same,6,0.054755847,0.273779233,green,1,-0.054755847,0.273779233,red,1,0.16426754,-0.16426754,yellow,1,-0.054755847,-0.273779233,black,1,0.273779233,0.273779233,cyan,1,-0.273779233,0.054755847,orange,1,0.05,0.05,0.15,-0.273779233,0.054755847,orange,k,2446,31,2020-08-21_20h42.32.495,CDT_GNG_IUS12,2020.1.2,Win32,60,,l,0,1.224475,0,72,72,85,1,,,,,,,,,,,,,,,,,,,,,,,,,,,,,,,,,,,,,,,,,,,,,,,,,
,,,,,,,,,,47,different,4,-0.16426754,-0.054755847,orange,1,0.273779233,0.054755847,black,1,-0.16426754,0.16426754,red,1,0.273779233,-0.16426754,blue,1,-0.054755847,-0.273779233,green,0,0.16426754,0.16426754,yellow,0,0.05,0.05,0.15,0.273779233,0.054755847,red,l,2446,31,2020-08-21_20h42.32.495,CDT_GNG_IUS12,2020.1.2,Win32,60,,l,1,1.20654,0,73,73,46,1,,,,,,,,,,,,,,,,,,,,,,,,,,,,,,,,,,,,,,,,,,,,,,,,,
,,,,,,,,,,55,different,4,0.273779233,0.054755847,yellow,1,0.054755847,-0.16426754,green,1,-0.273779233,-0.16426754,orange,1,-0.273779233,0.273779233,blue,1,0.273779233,0.273779233,red,0,0.273779233,-0.16426754,cyan,0,0.05,0.05,0.15,0.054755847,-0.16426754,red,l,2446,31,2020-08-21_20h42.32.495,CDT_GNG_IUS12,2020.1.2,Win32,60,,k,0,2.34576,0,74,74,54,1,,,,,,,,,,,,,,,,,,,,,,,,,,,,,,,,,,,,,,,,,,,,,,,,,
,,,,,,,,,,106,different,6,0.054755847,-0.16426754,blue,1,-0.273779233,-0.273779233,magenta,1,0.273779233,0.273779233,yellow,1,-0.273779233,0.054755847,orange,1,0.054755847,-0.054755847,green,1,-0.054755847,-0.16426754,black,1,0.05,0.05,0.15,0.054755847,-0.054755847,cyan,l,2446,31,2020-08-21_20h42.32.495,CDT_GNG_IUS12,2020.1.2,Win32,60,,l,1,1.231785,0,75,75,105,1,,,,,,,,,,,,,,,,,,,,,,,,,,,,,,,,,,,,,,,,,,,,,,,,,
,,,,,,,,,,26,same,4,0.16426754,-0.16426754,green,1,-0.054755847,0.16426754,yellow,1,-0.273779233,-0.16426754,black,1,0.054755847,0.054755847,red,1,0.16426754,-0.054755847,cyan,0,-0.273779233,0.273779233,magenta,0,0.05,0.05,0.15,-0.054755847,0.16426754,yellow,k,2446,31,2020-08-21_20h42.32.495,CDT_GNG_IUS12,2020.1.2,Win32,60,,k,1,1.61288,0,76,76,25,1,,,,,,,,,,,,,,,,,,,,,,,,,,,,,,,,,,,,,,,,,,,,,,,,,
,,,,,,,,,,110,different,6,-0.273779233,0.273779233,black,1,0.273779233,-0.16426754,red,1,0.054755847,0.273779233,cyan,1,-0.273779233,-0.16426754,orange,1,-0.054755847,0.054755847,magenta,1,0.16426754,-0.054755847,yellow,1,0.05,0.05,0.15,0.273779233,-0.16426754,yellow,l,2446,31,2020-08-21_20h42.32.495,CDT_GNG_IUS12,2020.1.2,Win32,60,,l,1,0.9055,0,77,77,109,1,,,,,,,,,,,,,,,,,,,,,,,,,,,,,,,,,,,,,,,,,,,,,,,,,
,,,,,,,,,,73,same,6,0.054755847,0.16426754,blue,1,-0.273779233,0.273779233,red,1,-0.273779233,-0.16426754,green,1,0.054755847,-0.054755847,orange,1,0.16426754,0.16426754,black,1,-0.054755847,0.16426754,magenta,1,0.05,0.05,0.15,-0.273779233,0.273779233,red,k,2446,31,2020-08-21_20h42.32.495,CDT_GNG_IUS12,2020.1.2,Win32,60,,l,0,1.92818,0,78,78,72,1,,,,,,,,,,,,,,,,,,,,,,,,,,,,,,,,,,,,,,,,,,,,,,,,,
,,,,,,,,,,35,different,4,-0.054755847,-0.054755847,black,1,0.054755847,0.273779233,magenta,1,-0.273779233,0.054755847,blue,1,0.273779233,-0.054755847,red,1,-0.054755847,-0.16426754,cyan,0,0.054755847,0.054755847,yellow,0,0.05,0.05,0.15,0.054755847,0.273779233,cyan,l,2446,31,2020-08-21_20h42.32.495,CDT_GNG_IUS12,2020.1.2,Win32,60,,k,0,2.91722,0,79,79,34,1,,,,,,,,,,,,,,,,,,,,,,,,,,,,,,,,,,,,,,,,,,,,,,,,,
,,,,,,,,,,84,same,6,-0.273779233,-0.16426754,black,1,0.273779233,0.273779233,blue,1,-0.054755847,0.054755847,red,1,0.16426754,-0.054755847,orange,1,-0.16426754,-0.16426754,cyan,1,0.16426754,0.16426754,magenta,1,0.05,0.05,0.15,-0.16426754,-0.16426754,cyan,k,2446,31,2020-08-21_20h42.32.495,CDT_GNG_IUS12,2020.1.2,Win32,60,,k,1,1.63204,0,80,80,83,1,,,,,,,,,,,,,,,,,,,,,,,,,,,,,,,,,,,,,,,,,,,,,,,,,
,,,,,,,,,,81,same,6,-0.273779233,-0.273779233,green,1,-0.273779233,0.16426754,blue,1,0.054755847,-0.16426754,black,1,0.273779233,0.054755847,cyan,1,-0.16426754,-0.273779233,orange,1,-0.054755847,0.054755847,red,1,0.05,0.05,0.15,0.054755847,-0.16426754,black,k,2446,31,2020-08-21_20h42.32.495,CDT_GNG_IUS12,2020.1.2,Win32,60,,l,0,1.51022,0,81,81,80,1,,,,,,,,,,,,,,,,,,,,,,,,,,,,,,,,,,,,,,,,,,,,,,,,,
,,,,,,,,,,77,same,6,0.273779233,0.273779233,black,1,-0.273779233,-0.16426754,red,1,0.16426754,-0.054755847,magenta,1,-0.054755847,0.16426754,cyan,1,0.16426754,0.273779233,orange,1,-0.16426754,-0.273779233,blue,1,0.05,0.05,0.15,-0.273779233,-0.16426754,red,k,2446,31,2020-08-21_20h42.32.495,CDT_GNG_IUS12,2020.1.2,Win32,60,,k,1,2.061755,0,82,82,76,1,,,,,,,,,,,,,,,,,,,,,,,,,,,,,,,,,,,,,,,,,,,,,,,,,
,,,,,,,,,,14,same,4,0.16426754,0.16426754,magenta,1,-0.16426754,0.16426754,blue,1,0.16426754,-0.16426754,green,1,-0.16426754,-0.16426754,red,1,0.16426754,0.273779233,cyan,0,-0.16426754,0.273779233,orange,0,0.05,0.05,0.15,-0.16426754,0.16426754,blue,k,2446,31,2020-08-21_20h42.32.495,CDT_GNG_IUS12,2020.1.2,Win32,60,,k,1,1.63783,0,83,83,13,1,,,,,,,,,,,,,,,,,,,,,,,,,,,,,,,,,,,,,,,,,,,,,,,,,
,,,,,,,,,,20,same,4,0.273779233,0.054755847,magenta,1,0.054755847,-0.273779233,black,1,-0.054755847,0.16426754,blue,1,-0.273779233,-0.054755847,orange,1,0.054755847,0.054755847,red,0,0.054755847,-0.054755847,cyan,0,0.05,0.05,0.15,-0.054755847,0.16426754,blue,k,2446,31,2020-08-21_20h42.32.495,CDT_GNG_IUS12,2020.1.2,Win32,60,,k,1,0.70231,0,84,84,19,1,,,,,,,,,,,,,,,,,,,,,,,,,,,,,,,,,,,,,,,,,,,,,,,,,
,,,,,,,,,,42,different,4,0.273779233,0.16426754,cyan,1,-0.054755847,0.16426754,magenta,1,0.16426754,-0.054755847,green,1,-0.16426754,-0.16426754,red,1,0.16426754,0.273779233,black,0,-0.054755847,0.273779233,yellow,0,0.05,0.05,0.15,0.273779233,0.16426754,blue,l,2446,31,2020-08-21_20h42.32.495,CDT_GNG_IUS12,2020.1.2,Win32,60,,l,1,0.854885,0,85,85,41,1,,,,,,,,,,,,,,,,,,,,,,,,,,,,,,,,,,,,,,,,,,,,,,,,,
,,,,,,,,,,25,same,4,0.16426754,-0.273779233,green,1,-0.16426754,-0.273779233,black,1,0.16426754,0.054755847,cyan,1,-0.273779233,0.273779233,blue,1,0.054755847,-0.273779233,yellow,0,-0.273779233,-0.273779233,red,0,0.05,0.05,0.15,-0.273779233,0.273779233,blue,k,2446,31,2020-08-21_20h42.32.495,CDT_GNG_IUS12,2020.1.2,Win32,60,,k,1,0.88354,0,86,86,24,1,,,,,,,,,,,,,,,,,,,,,,,,,,,,,,,,,,,,,,,,,,,,,,,,,
,,,,,,,,,,88,same,6,0.054755847,0.054755847,orange,1,0.054755847,-0.273779233,red,1,-0.16426754,-0.16426754,magenta,1,-0.16426754,0.273779233,yellow,1,0.16426754,0.16426754,blue,1,0.273779233,-0.16426754,cyan,1,0.05,0.05,0.15,-0.16426754,0.273779233,yellow,k,2446,31,2020-08-21_20h42.32.495,CDT_GNG_IUS12,2020.1.2,Win32,60,,l,0,5.05018,0,87,87,87,1,,,,,,,,,,,,,,,,,,,,,,,,,,,,,,,,,,,,,,,,,,,,,,,,,
,,,,,,,,,,100,different,6,0.273779233,0.16426754,blue,1,-0.054755847,0.054755847,magenta,1,-0.273779233,-0.054755847,orange,1,0.273779233,-0.273779233,red,1,0.16426754,0.054755847,green,1,-0.273779233,0.054755847,yellow,1,0.05,0.05,0.15,0.273779233,0.16426754,orange,l,2446,31,2020-08-21_20h42.32.495,CDT_GNG_IUS12,2020.1.2,Win32,60,,l,1,1.178975,0,88,88,99,1,,,,,,,,,,,,,,,,,,,,,,,,,,,,,,,,,,,,,,,,,,,,,,,,,
,,,,,,,,,,4,same,4,0.16426754,-0.16426754,black,1,-0.054755847,0.16426754,yellow,1,0.16426754,0.16426754,blue,1,-0.16426754,-0.16426754,green,1,0.054755847,-0.16426754,magenta,0,-0.054755847,0.273779233,orange,0,0.05,0.05,0.15,0.16426754,-0.16426754,black,k,2446,31,2020-08-21_20h42.32.495,CDT_GNG_IUS12,2020.1.2,Win32,60,,k,1,1.3069,0,89,89,3,1,,,,,,,,,,,,,,,,,,,,,,,,,,,,,,,,,,,,,,,,,,,,,,,,,
,,,,,,,,,,56,different,4,0.16426754,0.054755847,red,1,-0.054755847,0.16426754,orange,1,0.16426754,-0.16426754,black,1,-0.273779233,-0.054755847,yellow,1,0.16426754,0.273779233,blue,0,-0.054755847,0.273779233,magenta,0,0.05,0.05,0.15,-0.273779233,-0.054755847,green,l,2446,31,2020-08-21_20h42.32.495,CDT_GNG_IUS12,2020.1.2,Win32,60,,k,0,5.87591,0,90,90,55,1,,,,,,,,,,,,,,,,,,,,,,,,,,,,,,,,,,,,,,,,,,,,,,,,,
,,,,,,,,,,101,different,6,0.273779233,0.273779233,yellow,1,0.054755847,-0.16426754,black,1,-0.054755847,0.054755847,cyan,1,-0.054755847,-0.16426754,magenta,1,0.273779233,0.054755847,green,1,0.16426754,-0.16426754,blue,1,0.05,0.05,0.15,0.273779233,0.273779233,green,l,2446,31,2020-08-21_20h42.32.495,CDT_GNG_IUS12,2020.1.2,Win32,60,,l,1,1.02629,0,91,91,100,1,,,,,,,,,,,,,,,,,,,,,,,,,,,,,,,,,,,,,,,,,,,,,,,,,
,,,,,,,,,,93,different,6,-0.16426754,0.16426754,red,1,0.054755847,-0.054755847,black,1,-0.054755847,-0.16426754,blue,1,0.054755847,0.273779233,magenta,1,-0.054755847,0.054755847,orange,1,0.16426754,-0.054755847,cyan,1,0.05,0.05,0.15,-0.054755847,-0.16426754,black,l,2446,31,2020-08-21_20h42.32.495,CDT_GNG_IUS12,2020.1.2,Win32,60,,k,0,2.27249,0,92,92,92,1,,,,,,,,,,,,,,,,,,,,,,,,,,,,,,,,,,,,,,,,,,,,,,,,,
,,,,,,,,,,8,same,4,0.16426754,-0.16426754,blue,1,-0.16426754,-0.054755847,red,1,-0.273779233,0.16426754,green,1,0.054755847,0.054755847,cyan,1,0.16426754,-0.273779233,magenta,0,-0.054755847,-0.054755847,orange,0,0.05,0.05,0.15,-0.273779233,0.16426754,green,k,2446,31,2020-08-21_20h42.32.495,CDT_GNG_IUS12,2020.1.2,Win32,60,,k,1,2.611225,0,93,93,7,1,,,,,,,,,,,,,,,,,,,,,,,,,,,,,,,,,,,,,,,,,,,,,,,,,
,,,,,,,,,,60,different,4,0.273779233,0.273779233,red,1,-0.273779233,-0.054755847,blue,1,-0.273779233,0.054755847,magenta,1,0.054755847,-0.273779233,black,1,0.273779233,0.054755847,orange,0,-0.054755847,-0.16426754,yellow,0,0.05,0.05,0.15,-0.273779233,0.054755847,yellow,l,2446,31,2020-08-21_20h42.32.495,CDT_GNG_IUS12,2020.1.2,Win32,60,,l,1,0.90507,0,94,94,59,1,,,,,,,,,,,,,,,,,,,,,,,,,,,,,,,,,,,,,,,,,,,,,,,,,
,,,,,,,,,,96,different,6,-0.16426754,-0.16426754,green,1,-0.16426754,0.054755847,black,1,0.054755847,0.16426754,cyan,1,0.16426754,-0.273779233,yellow,1,-0.273779233,-0.273779233,blue,1,-0.054755847,0.054755847,red,1,0.05,0.05,0.15,-0.16426754,0.054755847,magenta,l,2446,31,2020-08-21_20h42.32.495,CDT_GNG_IUS12,2020.1.2,Win32,60,,l,1,0.955785,0,95,95,95,1,,,,,,,,,,,,,,,,,,,,,,,,,,,,,,,,,,,,,,,,,,,,,,,,,
,,,,,,,,,,28,same,4,0.16426754,-0.273779233,yellow,1,-0.054755847,0.16426754,black,1,0.16426754,0.054755847,cyan,1,-0.273779233,-0.16426754,blue,1,0.273779233,-0.273779233,orange,0,-0.054755847,0.054755847,magenta,0,0.05,0.05,0.15,-0.054755847,0.16426754,black,k,2446,31,2020-08-21_20h42.32.495,CDT_GNG_IUS12,2020.1.2,Win32,60,,k,1,0.92079,0,96,96,27,1,,,,,,,,,,,,,,,,,,,,,,,,,,,,,,,,,,,,,,,,,,,,,,,,,
,,,,,,,,,,31,different,4,-0.16426754,0.16426754,blue,1,0.16426754,-0.054755847,magenta,1,-0.16426754,-0.054755847,yellow,1,0.054755847,0.273779233,black,1,-0.273779233,0.054755847,red,0,0.273779233,-0.273779233,cyan,0,0.05,0.05,0.15,-0.16426754,-0.054755847,black,l,2446,31,2020-08-21_20h42.32.495,CDT_GNG_IUS12,2020.1.2,Win32,60,,l,1,0.801475,0,97,97,30,1,,,,,,,,,,,,,,,,,,,,,,,,,,,,,,,,,,,,,,,,,,,,,,,,,
,,,,,,,,,,37,different,4,0.273779233,-0.273779233,cyan,1,-0.054755847,0.054755847,orange,1,-0.054755847,-0.16426754,yellow,1,0.16426754,0.054755847,blue,1,0.054755847,-0.273779233,red,0,-0.273779233,0.16426754,green,0,0.05,0.05,0.15,-0.054755847,0.054755847,green,l,2446,31,2020-08-21_20h42.32.495,CDT_GNG_IUS12,2020.1.2,Win32,60,,k,0,1.766965,0,98,98,36,1,,,,,,,,,,,,,,,,,,,,,,,,,,,,,,,,,,,,,,,,,,,,,,,,,
,,,,,,,,,,5,same,4,0.273779233,-0.054755847,green,1,0.273779233,0.054755847,orange,1,-0.054755847,0.054755847,black,1,-0.054755847,-0.16426754,blue,1,0.054755847,-0.054755847,cyan,0,0.054755847,0.273779233,red,0,0.05,0.05,0.15,-0.054755847,-0.16426754,blue,k,2446,31,2020-08-21_20h42.32.495,CDT_GNG_IUS12,2020.1.2,Win32,60,,l,0,4.49773,0,99,99,4,1,,,,,,,,,,,,,,,,,,,,,,,,,,,,,,,,,,,,,,,,,,,,,,,,,
,,,,,,,,,,11,same,4,0.273779233,0.16426754,black,1,-0.054755847,0.273779233,cyan,1,0.16426754,-0.054755847,blue,1,-0.273779233,-0.16426754,orange,1,0.054755847,0.273779233,magenta,0,-0.273779233,0.054755847,green,0,0.05,0.05,0.15,0.273779233,0.16426754,black,k,2446,31,2020-08-21_20h42.32.495,CDT_GNG_IUS12,2020.1.2,Win32,60,,k,1,2.867645,0,100,100,10,1,,,,,,,,,,,,,,,,,,,,,,,,,,,,,,,,,,,,,,,,,,,,,,,,,
,,,,,,,,,,71,same,6,-0.054755847,-0.16426754,orange,1,0.273779233,0.054755847,green,1,0.16426754,-0.16426754,yellow,1,-0.054755847,0.054755847,blue,1,-0.054755847,-0.273779233,black,1,0.054755847,0.16426754,cyan,1,0.05,0.05,0.15,-0.054755847,0.054755847,blue,k,2446,31,2020-08-21_20h42.32.495,CDT_GNG_IUS12,2020.1.2,Win32,60,,k,1,1.133705,0,101,101,70,1,,,,,,,,,,,,,,,,,,,,,,,,,,,,,,,,,,,,,,,,,,,,,,,,,
,,,,,,,,,,32,different,4,-0.054755847,-0.273779233,green,1,-0.273779233,0.16426754,black,1,0.16426754,0.16426754,cyan,1,0.273779233,-0.16426754,yellow,1,-0.054755847,-0.054755847,blue,0,-0.054755847,0.273779233,orange,0,0.05,0.05,0.15,-0.054755847,-0.273779233,red,l,2446,31,2020-08-21_20h42.32.495,CDT_GNG_IUS12,2020.1.2,Win32,60,,l,1,0.88312,0,102,102,31,1,,,,,,,,,,,,,,,,,,,,,,,,,,,,,,,,,,,,,,,,,,,,,,,,,
,,,,,,,,,,70,same,6,0.16426754,0.16426754,cyan,1,0.273779233,-0.273779233,red,1,-0.16426754,0.16426754,yellow,1,-0.273779233,-0.273779233,green,1,0.16426754,0.054755847,magenta,1,0.16426754,-0.054755847,blue,1,0.05,0.05,0.15,0.273779233,-0.273779233,red,k,2446,31,2020-08-21_20h42.32.495,CDT_GNG_IUS12,2020.1.2,Win32,60,,l,0,1.82213,0,103,103,69,1,,,,,,,,,,,,,,,,,,,,,,,,,,,,,,,,,,,,,,,,,,,,,,,,,
,,,,,,,,,,29,same,4,0.273779233,0.054755847,magenta,1,-0.054755847,0.273779233,cyan,1,0.16426754,-0.054755847,green,1,-0.16426754,-0.054755847,black,1,0.273779233,0.16426754,orange,0,-0.16426754,0.054755847,blue,0,0.05,0.05,0.15,0.16426754,-0.054755847,green,k,2446,31,2020-08-21_20h42.32.495,CDT_GNG_IUS12,2020.1.2,Win32,60,,k,1,0.846015,0,104,104,28,1,,,,,,,,,,,,,,,,,,,,,,,,,,,,,,,,,,,,,,,,,,,,,,,,,
,,,,,,,,,,109,different,6,-0.273779233,-0.16426754,blue,1,0.054755847,-0.16426754,black,1,-0.054755847,0.054755847,cyan,1,0.054755847,0.16426754,green,1,-0.054755847,-0.054755847,yellow,1,0.16426754,-0.273779233,orange,1,0.05,0.05,0.15,-0.273779233,-0.16426754,green,l,2446,31,2020-08-21_20h42.32.495,CDT_GNG_IUS12,2020.1.2,Win32,60,,l,1,1.248485,0,105,105,108,1,,,,,,,,,,,,,,,,,,,,,,,,,,,,,,,,,,,,,,,,,,,,,,,,,
,,,,,,,,,,38,different,4,0.273779233,-0.16426754,red,1,-0.054755847,0.16426754,blue,1,-0.273779233,-0.054755847,green,1,0.273779233,0.054755847,cyan,1,0.16426754,-0.054755847,orange,0,-0.054755847,0.054755847,yellow,0,0.05,0.05,0.15,0.273779233,0.054755847,black,l,2446,31,2020-08-21_20h42.32.495,CDT_GNG_IUS12,2020.1.2,Win32,60,,l,1,1.20976,0,106,106,37,1,,,,,,,,,,,,,,,,,,,,,,,,,,,,,,,,,,,,,,,,,,,,,,,,,
,,,,,,,,,,44,different,4,0.16426754,0.16426754,green,1,0.16426754,-0.16426754,black,1,-0.16426754,-0.054755847,cyan,1,-0.16426754,0.054755847,magenta,1,0.16426754,0.054755847,blue,0,0.054755847,-0.273779233,yellow,0,0.05,0.05,0.15,0.16426754,0.16426754,red,l,2446,31,2020-08-21_20h42.32.495,CDT_GNG_IUS12,2020.1.2,Win32,60,,k,0,0.912365,0,107,107,43,1,,,,,,,,,,,,,,,,,,,,,,,,,,,,,,,,,,,,,,,,,,,,,,,,,
,,,,,,,,,,30,same,4,0.16426754,0.16426754,blue,1,0.054755847,-0.054755847,green,1,-0.273779233,-0.16426754,black,1,-0.054755847,0.273779233,yellow,1,0.16426754,0.273779233,red,0,0.16426754,-0.16426754,magenta,0,0.05,0.05,0.15,0.054755847,-0.054755847,green,k,2446,31,2020-08-21_20h42.32.495,CDT_GNG_IUS12,2020.1.2,Win32,60,,k,1,0.69935,0,108,108,29,1,,,,,,,,,,,,,,,,,,,,,,,,,,,,,,,,,,,,,,,,,,,,,,,,,
,,,,,,,,,,6,same,4,0.273779233,0.273779233,blue,1,-0.273779233,-0.16426754,magenta,1,-0.054755847,0.054755847,green,1,0.054755847,-0.054755847,black,1,0.054755847,0.054755847,orange,0,-0.054755847,-0.054755847,red,0,0.05,0.05,0.15,-0.054755847,0.054755847,green,k,2446,31,2020-08-21_20h42.32.495,CDT_GNG_IUS12,2020.1.2,Win32,60,,k,1,0.93559,0,109,109,5,1,,,,,,,,,,,,,,,,,,,,,,,,,,,,,,,,,,,,,,,,,,,,,,,,,
,,,,,,,,,,68,same,6,0.16426754,-0.054755847,blue,1,-0.054755847,-0.16426754,orange,1,-0.16426754,0.054755847,red,1,0.16426754,0.273779233,magenta,1,0.054755847,-0.054755847,black,1,-0.273779233,-0.273779233,yellow,1,0.05,0.05,0.15,-0.054755847,-0.16426754,orange,k,2446,31,2020-08-21_20h42.32.495,CDT_GNG_IUS12,2020.1.2,Win32,60,,l,0,1.388005,0,110,110,67,1,,,,,,,,,,,,,,,,,,,,,,,,,,,,,,,,,,,,,,,,,,,,,,,,,
,,,,,,,,,,97,different,6,-0.273779233,-0.273779233,orange,1,0.054755847,-0.273779233,blue,1,0.16426754,0.16426754,green,1,-0.16426754,0.054755847,cyan,1,-0.16426754,-0.16426754,black,1,0.273779233,-0.16426754,yellow,1,0.05,0.05,0.15,-0.16426754,0.054755847,yellow,l,2446,31,2020-08-21_20h42.32.495,CDT_GNG_IUS12,2020.1.2,Win32,60,,l,1,1.42114,0,111,111,96,1,,,,,,,,,,,,,,,,,,,,,,,,,,,,,,,,,,,,,,,,,,,,,,,,,
,,,,,,,,,,27,same,4,-0.273779233,0.054755847,blue,1,-0.16426754,-0.16426754,black,1,0.16426754,-0.273779233,cyan,1,0.273779233,0.054755847,red,1,-0.054755847,0.273779233,magenta,0,-0.054755847,-0.273779233,yellow,0,0.05,0.05,0.15,0.273779233,0.054755847,red,k,2446,31,2020-08-21_20h42.32.495,CDT_GNG_IUS12,2020.1.2,Win32,60,,k,1,1.06153,0,112,112,26,1,,,,,,,,,,,,,,,,,,,,,,,,,,,,,,,,,,,,,,,,,,,,,,,,,
,,,,,,,,,,115,different,6,-0.16426754,0.273779233,magenta,1,-0.273779233,-0.054755847,blue,1,0.273779233,0.273779233,red,1,0.054755847,-0.273779233,cyan,1,-0.054755847,0.16426754,green,1,-0.273779233,-0.273779233,yellow,1,0.05,0.05,0.15,-0.273779233,-0.054755847,yellow,l,2446,31,2020-08-21_20h42.32.495,CDT_GNG_IUS12,2020.1.2,Win32,60,,l,1,0.924085,0,113,113,114,1,,,,,,,,,,,,,,,,,,,,,,,,,,,,,,,,,,,,,,,,,,,,,,,,,
,,,,,,,,,,63,same,6,-0.273779233,0.273779233,red,1,-0.273779233,-0.16426754,orange,1,0.054755847,-0.273779233,black,1,0.16426754,0.16426754,cyan,1,-0.054755847,0.054755847,blue,1,-0.273779233,-0.054755847,magenta,1,0.05,0.05,0.15,-0.273779233,-0.054755847,magenta,k,2446,31,2020-08-21_20h42.32.495,CDT_GNG_IUS12,2020.1.2,Win32,60,,l,0,1.964675,0,114,114,62,1,,,,,,,,,,,,,,,,,,,,,,,,,,,,,,,,,,,,,,,,,,,,,,,,,
,,,,,,,,,,108,different,6,-0.273779233,-0.054755847,magenta,1,0.054755847,0.16426754,red,1,-0.16426754,0.054755847,cyan,1,0.054755847,-0.273779233,green,1,-0.273779233,-0.16426754,orange,1,0.273779233,0.273779233,black,1,0.05,0.05,0.15,-0.273779233,-0.054755847,blue,l,2446,31,2020-08-21_20h42.32.495,CDT_GNG_IUS12,2020.1.2,Win32,60,,l,1,0.845045,0,115,115,107,1,,,,,,,,,,,,,,,,,,,,,,,,,,,,,,,,,,,,,,,,,,,,,,,,,
,,,,,,,,,,120,different,6,0.16426754,-0.054755847,blue,1,-0.16426754,-0.273779233,cyan,1,0.16426754,0.16426754,magenta,1,-0.273779233,0.273779233,black,1,0.273779233,-0.16426754,green,1,-0.273779233,-0.16426754,orange,1,0.05,0.05,0.15,0.16426754,0.16426754,yellow,l,2446,31,2020-08-21_20h42.32.495,CDT_GNG_IUS12,2020.1.2,Win32,60,,l,1,2.23495,0,116,116,119,1,,,,,,,,,,,,,,,,,,,,,,,,,,,,,,,,,,,,,,,,,,,,,,,,,
,,,,,,,,,,80,same,6,-0.273779233,0.16426754,orange,1,0.054755847,-0.273779233,yellow,1,0.054755847,0.273779233,green,1,-0.16426754,-0.273779233,red,1,-0.16426754,0.273779233,blue,1,0.273779233,-0.16426754,black,1,0.05,0.05,0.15,0.054755847,-0.273779233,yellow,k,2446,31,2020-08-21_20h42.32.495,CDT_GNG_IUS12,2020.1.2,Win32,60,,k,1,0.836175,0,117,117,79,1,,,,,,,,,,,,,,,,,,,,,,,,,,,,,,,,,,,,,,,,,,,,,,,,,
,,,,,,,,,,18,same,4,-0.054755847,0.273779233,black,1,-0.16426754,-0.16426754,cyan,1,0.054755847,0.16426754,red,1,0.273779233,-0.273779233,magenta,1,-0.16426754,0.273779233,orange,0,-0.054755847,-0.273779233,green,0,0.05,0.05,0.15,0.273779233,-0.273779233,magenta,k,2446,31,2020-08-21_20h42.32.495,CDT_GNG_IUS12,2020.1.2,Win32,60,,k,1,2.279505,0,118,118,17,1,,,,,,,,,,,,,,,,,,,,,,,,,,,,,,,,,,,,,,,,,,,,,,,,,
,,,,,,,,,,74,same,6,-0.273779233,-0.273779233,magenta,1,0.16426754,0.054755847,cyan,1,-0.16426754,0.273779233,black,1,0.273779233,-0.054755847,yellow,1,-0.16426754,-0.16426754,red,1,0.054755847,0.273779233,green,1,0.05,0.05,0.15,-0.16426754,-0.16426754,red,k,2446,31,2020-08-21_20h42.32.495,CDT_GNG_IUS12,2020.1.2,Win32,60,,l,0,3.875385,0,119,119,73,1,,,,,,,,,,,,,,,,,,,,,,,,,,,,,,,,,,,,,,,,,,,,,,,,,
,,,,,,,,,,,,,,,,,,,,,,,,,,,,,,,,,,,,,,,,,,,space,2446,31,2020-08-21_20h42.32.495,CDT_GNG_IUS12,2020.1.2,Win32,60,,,,,,,,,,,space,1,0.832335,0,0,0,6,1,0,1,,,,,,,,,,,,,,,,,,,,,,,,,,,,,,,,,,,,,,
,,,,,,,,,,,,,,,,,,,,,,,,,,,,,,,,,,,,,,,,,,,,2446,31,2020-08-21_20h42.32.495,CDT_GNG_IUS12,2020.1.2,Win32,60,,,,,,,,,,,,1,,0,1,1,1,1,1,0,,,,,,,,,,,,,,,,,,,,,,,,,,,,,,,,,,,,,,
,,,,,,,,,,,,,,,,,,,,,,,,,,,,,,,,,,,,,,,,,,,,2446,31,2020-08-21_20h42.32.495,CDT_GNG_IUS12,2020.1.2,Win32,60,,,,,,,,,,,,1,,0,2,2,2,1,1,0,,,,,,,,,,,,,,,,,,,,,,,,,,,,,,,,,,,,,,
,,,,,,,,,,,,,,,,,,,,,,,,,,,,,,,,,,,,,,,,,,,space,2446,31,2020-08-21_20h42.32.495,CDT_GNG_IUS12,2020.1.2,Win32,60,,,,,,,,,,,space,1,0.355655,0,3,3,7,1,0,1,,,,,,,,,,,,,,,,,,,,,,,,,,,,,,,,,,,,,,
,,,,,,,,,,,,,,,,,,,,,,,,,,,,,,,,,,,,,,,,,,,,2446,31,2020-08-21_20h42.32.495,CDT_GNG_IUS12,2020.1.2,Win32,60,,,,,,,,,,,,1,,0,4,4,3,1,1,0,,,,,,,,,,,,,,,,,,,,,,,,,,,,,,,,,,,,,,
,,,,,,,,,,,,,,,,,,,,,,,,,,,,,,,,,,,,,,,,,,,,2446,31,2020-08-21_20h42.32.495,CDT_GNG_IUS12,2020.1.2,Win32,60,,,,,,,,,,,,1,,0,5,5,0,1,1,0,,,,,,,,,,,,,,,,,,,,,,,,,,,,,,,,,,,,,,
,,,,,,,,,,,,,,,,,,,,,,,,,,,,,,,,,,,,,,,,,,,space,2446,31,2020-08-21_20h42.32.495,CDT_GNG_IUS12,2020.1.2,Win32,60,,,,,,,,,,,space,1,0.31518,0,6,6,4,1,0,1,,,,,,,,,,,,,,,,,,,,,,,,,,,,,,,,,,,,,,
,,,,,,,,,,,,,,,,,,,,,,,,,,,,,,,,,,,,,,,,,,,space,2446,31,2020-08-21_20h42.32.495,CDT_GNG_IUS12,2020.1.2,Win32,60,,,,,,,,,,,space,1,0.778155,0,7,7,5,1,0,1,,,,,,,,,,,,,,,,,,,,,,,,,,,,,,,,,,,,,,
,,,,,,,,,,,,,,,,,,,,,,,,,,,,,,,,,,,,,,,,,,,space,2446,31,2020-08-21_20h42.32.495,CDT_GNG_IUS12,2020.1.2,Win32,60,,,,,,,,,,,,,,,,,,,0,1,space,1,0.35167,0,0,0,28,1,,,,,,,,,,,,,,,,,,,,,,,,,,,,,,
,,,,,,,,,,,,,,,,,,,,,,,,,,,,,,,,,,,,,,,,,,,space,2446,31,2020-08-21_20h42.32.495,CDT_GNG_IUS12,2020.1.2,Win32,60,,,,,,,,,,,,,,,,,,,0,1,,0,,0,1,1,14,1,,,,,,,,,,,,,,,,,,,,,,,,,,,,,,
,,,,,,,,,,,,,,,,,,,,,,,,,,,,,,,,,,,,,,,,,,,space,2446,31,2020-08-21_20h42.32.495,CDT_GNG_IUS12,2020.1.2,Win32,60,,,,,,,,,,,,,,,,,,,0,1,space,1,0.07447,0,2,2,38,1,,,,,,,,,,,,,,,,,,,,,,,,,,,,,,
,,,,,,,,,,,,,,,,,,,,,,,,,,,,,,,,,,,,,,,,,,,space,2446,31,2020-08-21_20h42.32.495,CDT_GNG_IUS12,2020.1.2,Win32,60,,,,,,,,,,,,,,,,,,,0,1,space,1,0.034385,0,3,3,44,1,,,,,,,,,,,,,,,,,,,,,,,,,,,,,,
,,,,,,,,,,,,,,,,,,,,,,,,,,,,,,,,,,,,,,,,,,,space,2446,31,2020-08-21_20h42.32.495,CDT_GNG_IUS12,2020.1.2,Win32,60,,,,,,,,,,,,,,,,,,,0,1,space,1,0.539765,0,4,4,25,1,,,,,,,,,,,,,,,,,,,,,,,,,,,,,,
,,,,,,,,,,,,,,,,,,,,,,,,,,,,,,,,,,,,,,,,,,,space,2446,31,2020-08-21_20h42.32.495,CDT_GNG_IUS12,2020.1.2,Win32,60,,,,,,,,,,,,,,,,,,,0,1,space,1,0.552355,0,5,5,17,1,,,,,,,,,,,,,,,,,,,,,,,,,,,,,,
,,,,,,,,,,,,,,,,,,,,,,,,,,,,,,,,,,,,,,,,,,,space,2446,31,2020-08-21_20h42.32.495,CDT_GNG_IUS12,2020.1.2,Win32,60,,,,,,,,,,,,,,,,,,,0,1,,0,,0,6,6,47,1,,,,,,,,,,,,,,,,,,,,,,,,,,,,,,
,,,,,,,,,,,,,,,,,,,,,,,,,,,,,,,,,,,,,,,,,,,space,2446,31,2020-08-21_20h42.32.495,CDT_GNG_IUS12,2020.1.2,Win32,60,,,,,,,,,,,,,,,,,,,0,1,space,1,0.08899,0,7,7,20,1,,,,,,,,,,,,,,,,,,,,,,,,,,,,,,
,,,,,,,,,,,,,,,,,,,,,,,,,,,,,,,,,,,,,,,,,,,space,2446,31,2020-08-21_20h42.32.495,CDT_GNG_IUS12,2020.1.2,Win32,60,,,,,,,,,,,,,,,,,,,0,1,space,1,0.17656,0,8,8,16,1,,,,,,,,,,,,,,,,,,,,,,,,,,,,,,
,,,,,,,,,,,,,,,,,,,,,,,,,,,,,,,,,,,,,,,,,,,space,2446,31,2020-08-21_20h42.32.495,CDT_GNG_IUS12,2020.1.2,Win32,60,,,,,,,,,,,,,,,,,,,0,1,space,1,0.276335,0,9,9,21,1,,,,,,,,,,,,,,,,,,,,,,,,,,,,,,
,,,,,,,,,,,,,,,,,,,,,,,,,,,,,,,,,,,,,,,,,,,space,2446,31,2020-08-21_20h42.32.495,CDT_GNG_IUS12,2020.1.2,Win32,60,,,,,,,,,,,,,,,,,,,0,1,space,1,0.302835,0,10,10,13,1,,,,,,,,,,,,,,,,,,,,,,,,,,,,,,
,,,,,,,,,,,,,,,,,,,,,,,,,,,,,,,,,,,,,,,,,,,space,2446,31,2020-08-21_20h42.32.495,CDT_GNG_IUS12,2020.1.2,Win32,60,,,,,,,,,,,,,,,,,,,0,1,space,1,0.317575,0,11,11,32,1,,,,,,,,,,,,,,,,,,,,,,,,,,,,,,
,,,,,,,,,,,,,,,,,,,,,,,,,,,,,,,,,,,,,,,,,,,space,2446,31,2020-08-21_20h42.32.495,CDT_GNG_IUS12,2020.1.2,Win32,60,,,,,,,,,,,,,,,,,,,0,1,space,1,0.354175,0,12,12,29,1,,,,,,,,,,,,,,,,,,,,,,,,,,,,,,
,,,,,,,,,,,,,,,,,,,,,,,,,,,,,,,,,,,,,,,,,,,space,2446,31,2020-08-21_20h42.32.495,CDT_GNG_IUS12,2020.1.2,Win32,60,,,,,,,,,,,,,,,,,,,0,1,space,1,0.36606,0,13,13,35,1,,,,,,,,,,,,,,,,,,,,,,,,,,,,,,
,,,,,,,,,,,,,,,,,,,,,,,,,,,,,,,,,,,,,,,,,,,space,2446,31,2020-08-21_20h42.32.495,CDT_GNG_IUS12,2020.1.2,Win32,60,,,,,,,,,,,,,,,,,,,0,1,space,1,0.564295,0,14,14,41,1,,,,,,,,,,,,,,,,,,,,,,,,,,,,,,
,,,,,,,,,,,,,,,,,,,,,,,,,,,,,,,,,,,,,,,,,,,,2446,31,2020-08-21_20h42.32.495,CDT_GNG_IUS12,2020.1.2,Win32,60,,,,,,,,,,,,,,,,,,,1,0,,1,,0,15,15,0,1,,,,,,,,,,,,,,,,,,,,,,,,,,,,,,
,,,,,,,,,,,,,,,,,,,,,,,,,,,,,,,,,,,,,,,,,,,space,2446,31,2020-08-21_20h42.32.495,CDT_GNG_IUS12,2020.1.2,Win32,60,,,,,,,,,,,,,,,,,,,0,1,space,1,0.47222,0,16,16,23,1,,,,,,,,,,,,,,,,,,,,,,,,,,,,,,
,,,,,,,,,,,,,,,,,,,,,,,,,,,,,,,,,,,,,,,,,,,,2446,31,2020-08-21_20h42.32.495,CDT_GNG_IUS12,2020.1.2,Win32,60,,,,,,,,,,,,,,,,,,,1,0,,1,,0,17,17,8,1,,,,,,,,,,,,,,,,,,,,,,,,,,,,,,
,,,,,,,,,,,,,,,,,,,,,,,,,,,,,,,,,,,,,,,,,,,space,2446,31,2020-08-21_20h42.32.495,CDT_GNG_IUS12,2020.1.2,Win32,60,,,,,,,,,,,,,,,,,,,0,1,space,1,0.38883,0,18,18,11,1,,,,,,,,,,,,,,,,,,,,,,,,,,,,,,
,,,,,,,,,,,,,,,,,,,,,,,,,,,,,,,,,,,,,,,,,,,space,2446,31,2020-08-21_20h42.32.495,CDT_GNG_IUS12,2020.1.2,Win32,60,,,,,,,,,,,,,,,,,,,0,1,space,1,0.53229,0,19,19,26,1,,,,,,,,,,,,,,,,,,,,,,,,,,,,,,
,,,,,,,,,,,,,,,,,,,,,,,,,,,,,,,,,,,,,,,,,,,space,2446,31,2020-08-21_20h42.32.495,CDT_GNG_IUS12,2020.1.2,Win32,60,,,,,,,,,,,,,,,,,,,0,1,,0,,0,20,20,46,1,,,,,,,,,,,,,,,,,,,,,,,,,,,,,,
,,,,,,,,,,,,,,,,,,,,,,,,,,,,,,,,,,,,,,,,,,,space,2446,31,2020-08-21_20h42.32.495,CDT_GNG_IUS12,2020.1.2,Win32,60,,,,,,,,,,,,,,,,,,,0,1,space,1,0.017705,0,21,21,12,1,,,,,,,,,,,,,,,,,,,,,,,,,,,,,,
,,,,,,,,,,,,,,,,,,,,,,,,,,,,,,,,,,,,,,,,,,,space,2446,31,2020-08-21_20h42.32.495,CDT_GNG_IUS12,2020.1.2,Win32,60,,,,,,,,,,,,,,,,,,,0,1,space,1,0.285115,0,22,22,33,1,,,,,,,,,,,,,,,,,,,,,,,,,,,,,,
,,,,,,,,,,,,,,,,,,,,,,,,,,,,,,,,,,,,,,,,,,,space,2446,31,2020-08-21_20h42.32.495,CDT_GNG_IUS12,2020.1.2,Win32,60,,,,,,,,,,,,,,,,,,,0,1,space,1,0.32333,0,23,23,36,1,,,,,,,,,,,,,,,,,,,,,,,,,,,,,,
,,,,,,,,,,,,,,,,,,,,,,,,,,,,,,,,,,,,,,,,,,,,2446,31,2020-08-21_20h42.32.495,CDT_GNG_IUS12,2020.1.2,Win32,60,,,,,,,,,,,,,,,,,,,1,0,,1,,0,24,24,6,1,,,,,,,,,,,,,,,,,,,,,,,,,,,,,,
,,,,,,,,,,,,,,,,,,,,,,,,,,,,,,,,,,,,,,,,,,,,2446,31,2020-08-21_20h42.32.495,CDT_GNG_IUS12,2020.1.2,Win32,60,,,,,,,,,,,,,,,,,,,1,0,space,0,0.2314,0,25,25,7,1,,,,,,,,,,,,,,,,,,,,,,,,,,,,,,
,,,,,,,,,,,,,,,,,,,,,,,,,,,,,,,,,,,,,,,,,,,space,2446,31,2020-08-21_20h42.32.495,CDT_GNG_IUS12,2020.1.2,Win32,60,,,,,,,,,,,,,,,,,,,0,1,,0,,0,26,26,30,1,,,,,,,,,,,,,,,,,,,,,,,,,,,,,,
,,,,,,,,,,,,,,,,,,,,,,,,,,,,,,,,,,,,,,,,,,,,2446,31,2020-08-21_20h42.32.495,CDT_GNG_IUS12,2020.1.2,Win32,60,,,,,,,,,,,,,,,,,,,1,0,space,0,0.01797,0,27,27,4,1,,,,,,,,,,,,,,,,,,,,,,,,,,,,,,
,,,,,,,,,,,,,,,,,,,,,,,,,,,,,,,,,,,,,,,,,,,space,2446,31,2020-08-21_20h42.32.495,CDT_GNG_IUS12,2020.1.2,Win32,60,,,,,,,,,,,,,,,,,,,0,1,,0,,0,28,28,15,1,,,,,,,,,,,,,,,,,,,,,,,,,,,,,,
,,,,,,,,,,,,,,,,,,,,,,,,,,,,,,,,,,,,,,,,,,,space,2446,31,2020-08-21_20h42.32.495,CDT_GNG_IUS12,2020.1.2,Win32,60,,,,,,,,,,,,,,,,,,,0,1,space,1,0.097925,0,29,29,45,1,,,,,,,,,,,,,,,,,,,,,,,,,,,,,,
,,,,,,,,,,,,,,,,,,,,,,,,,,,,,,,,,,,,,,,,,,,,2446,31,2020-08-21_20h42.32.495,CDT_GNG_IUS12,2020.1.2,Win32,60,,,,,,,,,,,,,,,,,,,1,0,space,0,0.260575,0,30,30,3,1,,,,,,,,,,,,,,,,,,,,,,,,,,,,,,
,,,,,,,,,,,,,,,,,,,,,,,,,,,,,,,,,,,,,,,,,,,,2446,31,2020-08-21_20h42.32.495,CDT_GNG_IUS12,2020.1.2,Win32,60,,,,,,,,,,,,,,,,,,,1,0,,1,,0,31,31,9,1,,,,,,,,,,,,,,,,,,,,,,,,,,,,,,
,,,,,,,,,,,,,,,,,,,,,,,,,,,,,,,,,,,,,,,,,,,space,2446,31,2020-08-21_20h42.32.495,CDT_GNG_IUS12,2020.1.2,Win32,60,,,,,,,,,,,,,,,,,,,0,1,,0,,0,32,32,37,1,,,,,,,,,,,,,,,,,,,,,,,,,,,,,,
,,,,,,,,,,,,,,,,,,,,,,,,,,,,,,,,,,,,,,,,,,,,2446,31,2020-08-21_20h42.32.495,CDT_GNG_IUS12,2020.1.2,Win32,60,,,,,,,,,,,,,,,,,,,1,0,,1,,0,33,33,1,1,,,,,,,,,,,,,,,,,,,,,,,,,,,,,,
,,,,,,,,,,,,,,,,,,,,,,,,,,,,,,,,,,,,,,,,,,,space,2446,31,2020-08-21_20h42.32.495,CDT_GNG_IUS12,2020.1.2,Win32,60,,,,,,,,,,,,,,,,,,,0,1,space,1,0.021335,0,34,34,22,1,,,,,,,,,,,,,,,,,,,,,,,,,,,,,,
,,,,,,,,,,,,,,,,,,,,,,,,,,,,,,,,,,,,,,,,,,,space,2446,31,2020-08-21_20h42.32.495,CDT_GNG_IUS12,2020.1.2,Win32,60,,,,,,,,,,,,,,,,,,,0,1,space,1,0.194695,0,35,35,42,1,,,,,,,,,,,,,,,,,,,,,,,,,,,,,,
,,,,,,,,,,,,,,,,,,,,,,,,,,,,,,,,,,,,,,,,,,,space,2446,31,2020-08-21_20h42.32.495,CDT_GNG_IUS12,2020.1.2,Win32,60,,,,,,,,,,,,,,,,,,,0,1,space,1,0.32374,0,36,36,49,1,,,,,,,,,,,,,,,,,,,,,,,,,,,,,,
,,,,,,,,,,,,,,,,,,,,,,,,,,,,,,,,,,,,,,,,,,,space,2446,31,2020-08-21_20h42.32.495,CDT_GNG_IUS12,2020.1.2,Win32,60,,,,,,,,,,,,,,,,,,,0,1,space,1,0.53281,0,37,37,39,1,,,,,,,,,,,,,,,,,,,,,,,,,,,,,,
,,,,,,,,,,,,,,,,,,,,,,,,,,,,,,,,,,,,,,,,,,,space,2446,31,2020-08-21_20h42.32.495,CDT_GNG_IUS12,2020.1.2,Win32,60,,,,,,,,,,,,,,,,,,,0,1,,0,,0,38,38,34,1,,,,,,,,,,,,,,,,,,,,,,,,,,,,,,
,,,,,,,,,,,,,,,,,,,,,,,,,,,,,,,,,,,,,,,,,,,space,2446,31,2020-08-21_20h42.32.495,CDT_GNG_IUS12,2020.1.2,Win32,60,,,,,,,,,,,,,,,,,,,0,1,space,1,0.276355,0,39,39,24,1,,,,,,,,,,,,,,,,,,,,,,,,,,,,,,
,,,,,,,,,,,,,,,,,,,,,,,,,,,,,,,,,,,,,,,,,,,space,2446,31,2020-08-21_20h42.32.495,CDT_GNG_IUS12,2020.1.2,Win32,60,,,,,,,,,,,,,,,,,,,0,1,space,1,0.34633,0,40,40,40,1,,,,,,,,,,,,,,,,,,,,,,,,,,,,,,
,,,,,,,,,,,,,,,,,,,,,,,,,,,,,,,,,,,,,,,,,,,space,2446,31,2020-08-21_20h42.32.495,CDT_GNG_IUS12,2020.1.2,Win32,60,,,,,,,,,,,,,,,,,,,0,1,space,1,0.35488,0,41,41,48,1,,,,,,,,,,,,,,,,,,,,,,,,,,,,,,
,,,,,,,,,,,,,,,,,,,,,,,,,,,,,,,,,,,,,,,,,,,space,2446,31,2020-08-21_20h42.32.495,CDT_GNG_IUS12,2020.1.2,Win32,60,,,,,,,,,,,,,,,,,,,0,1,space,1,0.38713,0,42,42,43,1,,,,,,,,,,,,,,,,,,,,,,,,,,,,,,
,,,,,,,,,,,,,,,,,,,,,,,,,,,,,,,,,,,,,,,,,,,,2446,31,2020-08-21_20h42.32.495,CDT_GNG_IUS12,2020.1.2,Win32,60,,,,,,,,,,,,,,,,,,,1,0,,1,,0,43,43,2,1,,,,,,,,,,,,,,,,,,,,,,,,,,,,,,
,,,,,,,,,,,,,,,,,,,,,,,,,,,,,,,,,,,,,,,,,,,space,2446,31,2020-08-21_20h42.32.495,CDT_GNG_IUS12,2020.1.2,Win32,60,,,,,,,,,,,,,,,,,,,0,1,,0,,0,44,44,19,1,,,,,,,,,,,,,,,,,,,,,,,,,,,,,,
,,,,,,,,,,,,,,,,,,,,,,,,,,,,,,,,,,,,,,,,,,,space,2446,31,2020-08-21_20h42.32.495,CDT_GNG_IUS12,2020.1.2,Win32,60,,,,,,,,,,,,,,,,,,,0,1,space,1,0.072585,0,45,45,31,1,,,,,,,,,,,,,,,,,,,,,,,,,,,,,,
,,,,,,,,,,,,,,,,,,,,,,,,,,,,,,,,,,,,,,,,,,,,2446,31,2020-08-21_20h42.32.495,CDT_GNG_IUS12,2020.1.2,Win32,60,,,,,,,,,,,,,,,,,,,1,0,space,0,0.270615,0,46,46,5,1,,,,,,,,,,,,,,,,,,,,,,,,,,,,,,
,,,,,,,,,,,,,,,,,,,,,,,,,,,,,,,,,,,,,,,,,,,space,2446,31,2020-08-21_20h42.32.495,CDT_GNG_IUS12,2020.1.2,Win32,60,,,,,,,,,,,,,,,,,,,0,1,space,1,0.482845,0,47,47,10,1,,,,,,,,,,,,,,,,,,,,,,,,,,,,,,
,,,,,,,,,,,,,,,,,,,,,,,,,,,,,,,,,,,,,,,,,,,space,2446,31,2020-08-21_20h42.32.495,CDT_GNG_IUS12,2020.1.2,Win32,60,,,,,,,,,,,,,,,,,,,0,1,,0,,0,48,48,18,1,,,,,,,,,,,,,,,,,,,,,,,,,,,,,,
,,,,,,,,,,,,,,,,,,,,,,,,,,,,,,,,,,,,,,,,,,,space,2446,31,2020-08-21_20h42.32.495,CDT_GNG_IUS12,2020.1.2,Win32,60,,,,,,,,,,,,,,,,,,,0,1,space,1,0.10055,0,49,49,27,1,,,,,,,,,,,,,,,,,,,,,,,,,,,,,,
,,,,,,,,,,,,,,,,,,,,,,,,,,,,,,,,,,,,,,,,,,,space,2446,31,2020-08-21_20h42.32.495,CDT_GNG_IUS12,2020.1.2,Win32,60,,,,,,,,,,,,,,,,,,,0,1,space,1,0.55862,,,,,,0,0,0,39,1,,,,,,,,,,,,,,,,,,,,,,,,,
,,,,,,,,,,,,,,,,,,,,,,,,,,,,,,,,,,,,,,,,,,,,2446,31,2020-08-21_20h42.32.495,CDT_GNG_IUS12,2020.1.2,Win32,60,,,,,,,,,,,,,,,,,,,1,0,,1,,,,,,,0,1,1,4,1,,,,,,,,,,,,,,,,,,,,,,,,,
,,,,,,,,,,,,,,,,,,,,,,,,,,,,,,,,,,,,,,,,,,,space,2446,31,2020-08-21_20h42.32.495,CDT_GNG_IUS12,2020.1.2,Win32,60,,,,,,,,,,,,,,,,,,,0,1,space,1,0.328745,,,,,,0,2,2,20,1,,,,,,,,,,,,,,,,,,,,,,,,,
,,,,,,,,,,,,,,,,,,,,,,,,,,,,,,,,,,,,,,,,,,,space,2446,31,2020-08-21_20h42.32.495,CDT_GNG_IUS12,2020.1.2,Win32,60,,,,,,,,,,,,,,,,,,,0,1,space,1,0.46476,,,,,,0,3,3,25,1,,,,,,,,,,,,,,,,,,,,,,,,,
,,,,,,,,,,,,,,,,,,,,,,,,,,,,,,,,,,,,,,,,,,,space,2446,31,2020-08-21_20h42.32.495,CDT_GNG_IUS12,2020.1.2,Win32,60,,,,,,,,,,,,,,,,,,,0,1,space,1,0.45636,,,,,,0,4,4,18,1,,,,,,,,,,,,,,,,,,,,,,,,,
,,,,,,,,,,,,,,,,,,,,,,,,,,,,,,,,,,,,,,,,,,,,2446,31,2020-08-21_20h42.32.495,CDT_GNG_IUS12,2020.1.2,Win32,60,,,,,,,,,,,,,,,,,,,1,0,,1,,,,,,,0,5,5,5,1,,,,,,,,,,,,,,,,,,,,,,,,,
,,,,,,,,,,,,,,,,,,,,,,,,,,,,,,,,,,,,,,,,,,,space,2446,31,2020-08-21_20h42.32.495,CDT_GNG_IUS12,2020.1.2,Win32,60,,,,,,,,,,,,,,,,,,,0,1,space,1,0.395415,,,,,,0,6,6,22,1,,,,,,,,,,,,,,,,,,,,,,,,,
,,,,,,,,,,,,,,,,,,,,,,,,,,,,,,,,,,,,,,,,,,,space,2446,31,2020-08-21_20h42.32.495,CDT_GNG_IUS12,2020.1.2,Win32,60,,,,,,,,,,,,,,,,,,,0,1,space,1,0.282155,,,,,,0,7,7,12,1,,,,,,,,,,,,,,,,,,,,,,,,,
,,,,,,,,,,,,,,,,,,,,,,,,,,,,,,,,,,,,,,,,,,,space,2446,31,2020-08-21_20h42.32.495,CDT_GNG_IUS12,2020.1.2,Win32,60,,,,,,,,,,,,,,,,,,,0,1,space,1,0.323725,,,,,,0,8,8,28,1,,,,,,,,,,,,,,,,,,,,,,,,,
,,,,,,,,,,,,,,,,,,,,,,,,,,,,,,,,,,,,,,,,,,,space,2446,31,2020-08-21_20h42.32.495,CDT_GNG_IUS12,2020.1.2,Win32,60,,,,,,,,,,,,,,,,,,,0,1,space,1,0.338775,,,,,,0,9,9,30,1,,,,,,,,,,,,,,,,,,,,,,,,,
,,,,,,,,,,,,,,,,,,,,,,,,,,,,,,,,,,,,,,,,,,,space,2446,31,2020-08-21_20h42.32.495,CDT_GNG_IUS12,2020.1.2,Win32,60,,,,,,,,,,,,,,,,,,,0,1,space,1,0.369955,,,,,,0,10,10,32,1,,,,,,,,,,,,,,,,,,,,,,,,,
,,,,,,,,,,,,,,,,,,,,,,,,,,,,,,,,,,,,,,,,,,,space,2446,31,2020-08-21_20h42.32.495,CDT_GNG_IUS12,2020.1.2,Win32,60,,,,,,,,,,,,,,,,,,,0,1,space,1,0.32333,,,,,,0,11,11,45,1,,,,,,,,,,,,,,,,,,,,,,,,,
,,,,,,,,,,,,,,,,,,,,,,,,,,,,,,,,,,,,,,,,,,,space,2446,31,2020-08-21_20h42.32.495,CDT_GNG_IUS12,2020.1.2,Win32,60,,,,,,,,,,,,,,,,,,,0,1,space,1,0.320425,,,,,,0,12,12,35,1,,,,,,,,,,,,,,,,,,,,,,,,,
,,,,,,,,,,,,,,,,,,,,,,,,,,,,,,,,,,,,,,,,,,,space,2446,31,2020-08-21_20h42.32.495,CDT_GNG_IUS12,2020.1.2,Win32,60,,,,,,,,,,,,,,,,,,,0,1,space,1,0.35357,,,,,,0,13,13,36,1,,,,,,,,,,,,,,,,,,,,,,,,,
,,,,,,,,,,,,,,,,,,,,,,,,,,,,,,,,,,,,,,,,,,,space,2446,31,2020-08-21_20h42.32.495,CDT_GNG_IUS12,2020.1.2,Win32,60,,,,,,,,,,,,,,,,,,,0,1,space,1,0.330495,,,,,,0,14,14,10,1,,,,,,,,,,,,,,,,,,,,,,,,,
,,,,,,,,,,,,,,,,,,,,,,,,,,,,,,,,,,,,,,,,,,,space,2446,31,2020-08-21_20h42.32.495,CDT_GNG_IUS12,2020.1.2,Win32,60,,,,,,,,,,,,,,,,,,,0,1,space,1,0.3441,,,,,,0,15,15,33,1,,,,,,,,,,,,,,,,,,,,,,,,,
,,,,,,,,,,,,,,,,,,,,,,,,,,,,,,,,,,,,,,,,,,,space,2446,31,2020-08-21_20h42.32.495,CDT_GNG_IUS12,2020.1.2,Win32,60,,,,,,,,,,,,,,,,,,,0,1,space,1,0.31943,,,,,,0,16,16,17,1,,,,,,,,,,,,,,,,,,,,,,,,,
,,,,,,,,,,,,,,,,,,,,,,,,,,,,,,,,,,,,,,,,,,,space,2446,31,2020-08-21_20h42.32.495,CDT_GNG_IUS12,2020.1.2,Win32,60,,,,,,,,,,,,,,,,,,,0,1,space,1,0.32885,,,,,,0,17,17,40,1,,,,,,,,,,,,,,,,,,,,,,,,,
,,,,,,,,,,,,,,,,,,,,,,,,,,,,,,,,,,,,,,,,,,,,2446,31,2020-08-21_20h42.32.495,CDT_GNG_IUS12,2020.1.2,Win32,60,,,,,,,,,,,,,,,,,,,1,0,,1,,,,,,,0,18,18,9,1,,,,,,,,,,,,,,,,,,,,,,,,,
,,,,,,,,,,,,,,,,,,,,,,,,,,,,,,,,,,,,,,,,,,,space,2446,31,2020-08-21_20h42.32.495,CDT_GNG_IUS12,2020.1.2,Win32,60,,,,,,,,,,,,,,,,,,,0,1,space,1,0.123935,,,,,,0,19,19,24,1,,,,,,,,,,,,,,,,,,,,,,,,,
,,,,,,,,,,,,,,,,,,,,,,,,,,,,,,,,,,,,,,,,,,,space,2446,31,2020-08-21_20h42.32.495,CDT_GNG_IUS12,2020.1.2,Win32,60,,,,,,,,,,,,,,,,,,,0,1,space,1,0.081775,,,,,,0,20,20,31,1,,,,,,,,,,,,,,,,,,,,,,,,,
,,,,,,,,,,,,,,,,,,,,,,,,,,,,,,,,,,,,,,,,,,,space,2446,31,2020-08-21_20h42.32.495,CDT_GNG_IUS12,2020.1.2,Win32,60,,,,,,,,,,,,,,,,,,,0,1,space,1,0.24481,,,,,,0,21,21,46,1,,,,,,,,,,,,,,,,,,,,,,,,,
,,,,,,,,,,,,,,,,,,,,,,,,,,,,,,,,,,,,,,,,,,,,2446,31,2020-08-21_20h42.32.495,CDT_GNG_IUS12,2020.1.2,Win32,60,,,,,,,,,,,,,,,,,,,1,0,space,0,0.144765,,,,,,0,22,22,8,1,,,,,,,,,,,,,,,,,,,,,,,,,
,,,,,,,,,,,,,,,,,,,,,,,,,,,,,,,,,,,,,,,,,,,space,2446,31,2020-08-21_20h42.32.495,CDT_GNG_IUS12,2020.1.2,Win32,60,,,,,,,,,,,,,,,,,,,0,1,space,1,0.352735,,,,,,0,23,23,42,1,,,,,,,,,,,,,,,,,,,,,,,,,
,,,,,,,,,,,,,,,,,,,,,,,,,,,,,,,,,,,,,,,,,,,,2446,31,2020-08-21_20h42.32.495,CDT_GNG_IUS12,2020.1.2,Win32,60,,,,,,,,,,,,,,,,,,,1,0,space,0,0.29283,,,,,,0,24,24,6,1,,,,,,,,,,,,,,,,,,,,,,,,,
,,,,,,,,,,,,,,,,,,,,,,,,,,,,,,,,,,,,,,,,,,,space,2446,31,2020-08-21_20h42.32.495,CDT_GNG_IUS12,2020.1.2,Win32,60,,,,,,,,,,,,,,,,,,,0,1,space,1,0.348365,,,,,,0,25,25,29,1,,,,,,,,,,,,,,,,,,,,,,,,,
,,,,,,,,,,,,,,,,,,,,,,,,,,,,,,,,,,,,,,,,,,,space,2446,31,2020-08-21_20h42.32.495,CDT_GNG_IUS12,2020.1.2,Win32,60,,,,,,,,,,,,,,,,,,,0,1,space,1,0.3234,,,,,,0,26,26,16,1,,,,,,,,,,,,,,,,,,,,,,,,,
,,,,,,,,,,,,,,,,,,,,,,,,,,,,,,,,,,,,,,,,,,,space,2446,31,2020-08-21_20h42.32.495,CDT_GNG_IUS12,2020.1.2,Win32,60,,,,,,,,,,,,,,,,,,,0,1,space,1,0.33913,,,,,,0,27,27,47,1,,,,,,,,,,,,,,,,,,,,,,,,,
,,,,,,,,,,,,,,,,,,,,,,,,,,,,,,,,,,,,,,,,,,,,2446,31,2020-08-21_20h42.32.495,CDT_GNG_IUS12,2020.1.2,Win32,60,,,,,,,,,,,,,,,,,,,1,0,,1,,,,,,,0,28,28,7,1,,,,,,,,,,,,,,,,,,,,,,,,,
,,,,,,,,,,,,,,,,,,,,,,,,,,,,,,,,,,,,,,,,,,,space,2446,31,2020-08-21_20h42.32.495,CDT_GNG_IUS12,2020.1.2,Win32,60,,,,,,,,,,,,,,,,,,,0,1,space,1,0.132515,,,,,,0,29,29,38,1,,,,,,,,,,,,,,,,,,,,,,,,,
,,,,,,,,,,,,,,,,,,,,,,,,,,,,,,,,,,,,,,,,,,,space,2446,31,2020-08-21_20h42.32.495,CDT_GNG_IUS12,2020.1.2,Win32,60,,,,,,,,,,,,,,,,,,,0,1,space,1,0.12465,,,,,,0,30,30,37,1,,,,,,,,,,,,,,,,,,,,,,,,,
,,,,,,,,,,,,,,,,,,,,,,,,,,,,,,,,,,,,,,,,,,,space,2446,31,2020-08-21_20h42.32.495,CDT_GNG_IUS12,2020.1.2,Win32,60,,,,,,,,,,,,,,,,,,,0,1,space,1,0.125535,,,,,,0,31,31,48,1,,,,,,,,,,,,,,,,,,,,,,,,,
,,,,,,,,,,,,,,,,,,,,,,,,,,,,,,,,,,,,,,,,,,,space,2446,31,2020-08-21_20h42.32.495,CDT_GNG_IUS12,2020.1.2,Win32,60,,,,,,,,,,,,,,,,,,,0,1,space,1,0.158095,,,,,,0,32,32,23,1,,,,,,,,,,,,,,,,,,,,,,,,,
,,,,,,,,,,,,,,,,,,,,,,,,,,,,,,,,,,,,,,,,,,,space,2446,31,2020-08-21_20h42.32.495,CDT_GNG_IUS12,2020.1.2,Win32,60,,,,,,,,,,,,,,,,,,,0,1,space,1,0.08968,,,,,,0,33,33,27,1,,,,,,,,,,,,,,,,,,,,,,,,,
,,,,,,,,,,,,,,,,,,,,,,,,,,,,,,,,,,,,,,,,,,,,2446,31,2020-08-21_20h42.32.495,CDT_GNG_IUS12,2020.1.2,Win32,60,,,,,,,,,,,,,,,,,,,1,0,space,0,0.28738,,,,,,0,34,34,1,1,,,,,,,,,,,,,,,,,,,,,,,,,
,,,,,,,,,,,,,,,,,,,,,,,,,,,,,,,,,,,,,,,,,,,space,2446,31,2020-08-21_20h42.32.495,CDT_GNG_IUS12,2020.1.2,Win32,60,,,,,,,,,,,,,,,,,,,0,1,space,1,0.337495,,,,,,0,35,35,21,1,,,,,,,,,,,,,,,,,,,,,,,,,
,,,,,,,,,,,,,,,,,,,,,,,,,,,,,,,,,,,,,,,,,,,space,2446,31,2020-08-21_20h42.32.495,CDT_GNG_IUS12,2020.1.2,Win32,60,,,,,,,,,,,,,,,,,,,0,1,space,1,0.349645,,,,,,0,36,36,49,1,,,,,,,,,,,,,,,,,,,,,,,,,
,,,,,,,,,,,,,,,,,,,,,,,,,,,,,,,,,,,,,,,,,,,space,2446,31,2020-08-21_20h42.32.495,CDT_GNG_IUS12,2020.1.2,Win32,60,,,,,,,,,,,,,,,,,,,0,1,space,1,0.345365,,,,,,0,37,37,26,1,,,,,,,,,,,,,,,,,,,,,,,,,
,,,,,,,,,,,,,,,,,,,,,,,,,,,,,,,,,,,,,,,,,,,space,2446,31,2020-08-21_20h42.32.495,CDT_GNG_IUS12,2020.1.2,Win32,60,,,,,,,,,,,,,,,,,,,0,1,space,1,0.353255,,,,,,0,38,38,34,1,,,,,,,,,,,,,,,,,,,,,,,,,
,,,,,,,,,,,,,,,,,,,,,,,,,,,,,,,,,,,,,,,,,,,space,2446,31,2020-08-21_20h42.32.495,CDT_GNG_IUS12,2020.1.2,Win32,60,,,,,,,,,,,,,,,,,,,0,1,space,1,0.37094,,,,,,0,39,39,13,1,,,,,,,,,,,,,,,,,,,,,,,,,
,,,,,,,,,,,,,,,,,,,,,,,,,,,,,,,,,,,,,,,,,,,,2446,31,2020-08-21_20h42.32.495,CDT_GNG_IUS12,2020.1.2,Win32,60,,,,,,,,,,,,,,,,,,,1,0,,1,,,,,,,0,40,40,0,1,,,,,,,,,,,,,,,,,,,,,,,,,
,,,,,,,,,,,,,,,,,,,,,,,,,,,,,,,,,,,,,,,,,,,space,2446,31,2020-08-21_20h42.32.495,CDT_GNG_IUS12,2020.1.2,Win32,60,,,,,,,,,,,,,,,,,,,0,1,space,1,0.23454,,,,,,0,41,41,41,1,,,,,,,,,,,,,,,,,,,,,,,,,
,,,,,,,,,,,,,,,,,,,,,,,,,,,,,,,,,,,,,,,,,,,space,2446,31,2020-08-21_20h42.32.495,CDT_GNG_IUS12,2020.1.2,Win32,60,,,,,,,,,,,,,,,,,,,0,1,space,1,0.161025,,,,,,0,42,42,44,1,,,,,,,,,,,,,,,,,,,,,,,,,
,,,,,,,,,,,,,,,,,,,,,,,,,,,,,,,,,,,,,,,,,,,,2446,31,2020-08-21_20h42.32.495,CDT_GNG_IUS12,2020.1.2,Win32,60,,,,,,,,,,,,,,,,,,,1,0,space,0,0.294475,,,,,,0,43,43,2,1,,,,,,,,,,,,,,,,,,,,,,,,,
,,,,,,,,,,,,,,,,,,,,,,,,,,,,,,,,,,,,,,,,,,,space,2446,31,2020-08-21_20h42.32.495,CDT_GNG_IUS12,2020.1.2,Win32,60,,,,,,,,,,,,,,,,,,,0,1,space,1,0.294915,,,,,,0,44,44,43,1,,,,,,,,,,,,,,,,,,,,,,,,,
,,,,,,,,,,,,,,,,,,,,,,,,,,,,,,,,,,,,,,,,,,,space,2446,31,2020-08-21_20h42.32.495,CDT_GNG_IUS12,2020.1.2,Win32,60,,,,,,,,,,,,,,,,,,,0,1,space,1,0.369665,,,,,,0,45,45,14,1,,,,,,,,,,,,,,,,,,,,,,,,,
,,,,,,,,,,,,,,,,,,,,,,,,,,,,,,,,,,,,,,,,,,,space,2446,31,2020-08-21_20h42.32.495,CDT_GNG_IUS12,2020.1.2,Win32,60,,,,,,,,,,,,,,,,,,,0,1,space,1,0.360525,,,,,,0,46,46,15,1,,,,,,,,,,,,,,,,,,,,,,,,,
,,,,,,,,,,,,,,,,,,,,,,,,,,,,,,,,,,,,,,,,,,,space,2446,31,2020-08-21_20h42.32.495,CDT_GNG_IUS12,2020.1.2,Win32,60,,,,,,,,,,,,,,,,,,,0,1,space,1,0.31516,,,,,,0,47,47,19,1,,,,,,,,,,,,,,,,,,,,,,,,,
,,,,,,,,,,,,,,,,,,,,,,,,,,,,,,,,,,,,,,,,,,,space,2446,31,2020-08-21_20h42.32.495,CDT_GNG_IUS12,2020.1.2,Win32,60,,,,,,,,,,,,,,,,,,,0,1,space,1,0.36005,,,,,,0,48,48,11,1,,,,,,,,,,,,,,,,,,,,,,,,,
,,,,,,,,,,,,,,,,,,,,,,,,,,,,,,,,,,,,,,,,,,,,2446,31,2020-08-21_20h42.32.495,CDT_GNG_IUS12,2020.1.2,Win32,60,,,,,,,,,,,,,,,,,,,1,0,,1,,,,,,,0,49,49,3,1,,,,,,,,,,,,,,,,,,,,,,,,,
,,,,,,,,,,,,,,,,,,,,,,,,,,,,,,,,,,,,,,,,,,,space,2446,31,2020-08-21_20h42.32.495,CDT_GNG_IUS12,2020.1.2,Win32,60,,,,,,,,,,,,,,,,,,,0,1,space,1,0.434265,,,,,,,,,,,0,0,0,36,1,,,,,,,,,,,,,,,,,,,,
,,,,,,,,,,,,,,,,,,,,,,,,,,,,,,,,,,,,,,,,,,,space,2446,31,2020-08-21_20h42.32.495,CDT_GNG_IUS12,2020.1.2,Win32,60,,,,,,,,,,,,,,,,,,,0,1,space,1,0.296805,,,,,,,,,,,0,1,1,14,1,,,,,,,,,,,,,,,,,,,,
,,,,,,,,,,,,,,,,,,,,,,,,,,,,,,,,,,,,,,,,,,,,2446,31,2020-08-21_20h42.32.495,CDT_GNG_IUS12,2020.1.2,Win32,60,,,,,,,,,,,,,,,,,,,1,0,space,0,0.29643,,,,,,,,,,,0,2,2,6,1,,,,,,,,,,,,,,,,,,,,
,,,,,,,,,,,,,,,,,,,,,,,,,,,,,,,,,,,,,,,,,,,,2446,31,2020-08-21_20h42.32.495,CDT_GNG_IUS12,2020.1.2,Win32,60,,,,,,,,,,,,,,,,,,,1,0,,1,,,,,,,,,,,,0,3,3,4,1,,,,,,,,,,,,,,,,,,,,
,,,,,,,,,,,,,,,,,,,,,,,,,,,,,,,,,,,,,,,,,,,space,2446,31,2020-08-21_20h42.32.495,CDT_GNG_IUS12,2020.1.2,Win32,60,,,,,,,,,,,,,,,,,,,0,1,space,1,0.320895,,,,,,,,,,,0,4,4,38,1,,,,,,,,,,,,,,,,,,,,
,,,,,,,,,,,,,,,,,,,,,,,,,,,,,,,,,,,,,,,,,,,,2446,31,2020-08-21_20h42.32.495,CDT_GNG_IUS12,2020.1.2,Win32,60,,,,,,,,,,,,,,,,,,,1,0,space,0,0.30584,,,,,,,,,,,0,5,5,7,1,,,,,,,,,,,,,,,,,,,,
,,,,,,,,,,,,,,,,,,,,,,,,,,,,,,,,,,,,,,,,,,,space,2446,31,2020-08-21_20h42.32.495,CDT_GNG_IUS12,2020.1.2,Win32,60,,,,,,,,,,,,,,,,,,,0,1,space,1,0.37,,,,,,,,,,,0,6,6,48,1,,,,,,,,,,,,,,,,,,,,
,,,,,,,,,,,,,,,,,,,,,,,,,,,,,,,,,,,,,,,,,,,space,2446,31,2020-08-21_20h42.32.495,CDT_GNG_IUS12,2020.1.2,Win32,60,,,,,,,,,,,,,,,,,,,0,1,space,1,0.34456,,,,,,,,,,,0,7,7,29,1,,,,,,,,,,,,,,,,,,,,
,,,,,,,,,,,,,,,,,,,,,,,,,,,,,,,,,,,,,,,,,,,space,2446,31,2020-08-21_20h42.32.495,CDT_GNG_IUS12,2020.1.2,Win32,60,,,,,,,,,,,,,,,,,,,0,1,space,1,0.39669,,,,,,,,,,,0,8,8,34,1,,,,,,,,,,,,,,,,,,,,
,,,,,,,,,,,,,,,,,,,,,,,,,,,,,,,,,,,,,,,,,,,space,2446,31,2020-08-21_20h42.32.495,CDT_GNG_IUS12,2020.1.2,Win32,60,,,,,,,,,,,,,,,,,,,0,1,space,1,0.41394,,,,,,,,,,,0,9,9,11,1,,,,,,,,,,,,,,,,,,,,
,,,,,,,,,,,,,,,,,,,,,,,,,,,,,,,,,,,,,,,,,,,space,2446,31,2020-08-21_20h42.32.495,CDT_GNG_IUS12,2020.1.2,Win32,60,,,,,,,,,,,,,,,,,,,0,1,space,1,0.402045,,,,,,,,,,,0,10,10,19,1,,,,,,,,,,,,,,,,,,,,
,,,,,,,,,,,,,,,,,,,,,,,,,,,,,,,,,,,,,,,,,,,space,2446,31,2020-08-21_20h42.32.495,CDT_GNG_IUS12,2020.1.2,Win32,60,,,,,,,,,,,,,,,,,,,0,1,space,1,0.38295,,,,,,,,,,,0,11,11,32,1,,,,,,,,,,,,,,,,,,,,
,,,,,,,,,,,,,,,,,,,,,,,,,,,,,,,,,,,,,,,,,,,space,2446,31,2020-08-21_20h42.32.495,CDT_GNG_IUS12,2020.1.2,Win32,60,,,,,,,,,,,,,,,,,,,0,1,space,1,0.46526,,,,,,,,,,,0,12,12,20,1,,,,,,,,,,,,,,,,,,,,
,,,,,,,,,,,,,,,,,,,,,,,,,,,,,,,,,,,,,,,,,,,,2446,31,2020-08-21_20h42.32.495,CDT_GNG_IUS12,2020.1.2,Win32,60,,,,,,,,,,,,,,,,,,,1,0,,1,,,,,,,,,,,,0,13,13,9,1,,,,,,,,,,,,,,,,,,,,
,,,,,,,,,,,,,,,,,,,,,,,,,,,,,,,,,,,,,,,,,,,space,2446,31,2020-08-21_20h42.32.495,CDT_GNG_IUS12,2020.1.2,Win32,60,,,,,,,,,,,,,,,,,,,0,1,space,1,0.29785,,,,,,,,,,,0,14,14,42,1,,,,,,,,,,,,,,,,,,,,
,,,,,,,,,,,,,,,,,,,,,,,,,,,,,,,,,,,,,,,,,,,space,2446,31,2020-08-21_20h42.32.495,CDT_GNG_IUS12,2020.1.2,Win32,60,,,,,,,,,,,,,,,,,,,0,1,space,1,0.302695,,,,,,,,,,,0,15,15,44,1,,,,,,,,,,,,,,,,,,,,
,,,,,,,,,,,,,,,,,,,,,,,,,,,,,,,,,,,,,,,,,,,space,2446,31,2020-08-21_20h42.32.495,CDT_GNG_IUS12,2020.1.2,Win32,60,,,,,,,,,,,,,,,,,,,0,1,space,1,0.28037,,,,,,,,,,,0,16,16,39,1,,,,,,,,,,,,,,,,,,,,
,,,,,,,,,,,,,,,,,,,,,,,,,,,,,,,,,,,,,,,,,,,space,2446,31,2020-08-21_20h42.32.495,CDT_GNG_IUS12,2020.1.2,Win32,60,,,,,,,,,,,,,,,,,,,0,1,space,1,0.376745,,,,,,,,,,,0,17,17,27,1,,,,,,,,,,,,,,,,,,,,
,,,,,,,,,,,,,,,,,,,,,,,,,,,,,,,,,,,,,,,,,,,space,2446,31,2020-08-21_20h42.32.495,CDT_GNG_IUS12,2020.1.2,Win32,60,,,,,,,,,,,,,,,,,,,0,1,space,1,0.370375,,,,,,,,,,,0,18,18,18,1,,,,,,,,,,,,,,,,,,,,
,,,,,,,,,,,,,,,,,,,,,,,,,,,,,,,,,,,,,,,,,,,,2446,31,2020-08-21_20h42.32.495,CDT_GNG_IUS12,2020.1.2,Win32,60,,,,,,,,,,,,,,,,,,,1,0,,1,,,,,,,,,,,,0,19,19,2,1,,,,,,,,,,,,,,,,,,,,
,,,,,,,,,,,,,,,,,,,,,,,,,,,,,,,,,,,,,,,,,,,space,2446,31,2020-08-21_20h42.32.495,CDT_GNG_IUS12,2020.1.2,Win32,60,,,,,,,,,,,,,,,,,,,0,1,space,1,0.263615,,,,,,,,,,,0,20,20,30,1,,,,,,,,,,,,,,,,,,,,
,,,,,,,,,,,,,,,,,,,,,,,,,,,,,,,,,,,,,,,,,,,,2446,31,2020-08-21_20h42.32.495,CDT_GNG_IUS12,2020.1.2,Win32,60,,,,,,,,,,,,,,,,,,,1,0,space,0,0.28184,,,,,,,,,,,0,21,21,8,1,,,,,,,,,,,,,,,,,,,,
,,,,,,,,,,,,,,,,,,,,,,,,,,,,,,,,,,,,,,,,,,,space,2446,31,2020-08-21_20h42.32.495,CDT_GNG_IUS12,2020.1.2,Win32,60,,,,,,,,,,,,,,,,,,,0,1,space,1,0.472485,,,,,,,,,,,0,22,22,41,1,,,,,,,,,,,,,,,,,,,,
,,,,,,,,,,,,,,,,,,,,,,,,,,,,,,,,,,,,,,,,,,,space,2446,31,2020-08-21_20h42.32.495,CDT_GNG_IUS12,2020.1.2,Win32,60,,,,,,,,,,,,,,,,,,,0,1,space,1,0.4782,,,,,,,,,,,0,23,23,26,1,,,,,,,,,,,,,,,,,,,,
,,,,,,,,,,,,,,,,,,,,,,,,,,,,,,,,,,,,,,,,,,,space,2446,31,2020-08-21_20h42.32.495,CDT_GNG_IUS12,2020.1.2,Win32,60,,,,,,,,,,,,,,,,,,,0,1,space,1,0.53296,,,,,,,,,,,0,24,24,17,1,,,,,,,,,,,,,,,,,,,,
,,,,,,,,,,,,,,,,,,,,,,,,,,,,,,,,,,,,,,,,,,,space,2446,31,2020-08-21_20h42.32.495,CDT_GNG_IUS12,2020.1.2,Win32,60,,,,,,,,,,,,,,,,,,,0,1,space,1,0.51037,,,,,,,,,,,0,25,25,31,1,,,,,,,,,,,,,,,,,,,,
,,,,,,,,,,,,,,,,,,,,,,,,,,,,,,,,,,,,,,,,,,,,2446,31,2020-08-21_20h42.32.495,CDT_GNG_IUS12,2020.1.2,Win32,60,,,,,,,,,,,,,,,,,,,1,0,,1,,,,,,,,,,,,0,26,26,3,1,,,,,,,,,,,,,,,,,,,,
,,,,,,,,,,,,,,,,,,,,,,,,,,,,,,,,,,,,,,,,,,,,2446,31,2020-08-21_20h42.32.495,CDT_GNG_IUS12,2020.1.2,Win32,60,,,,,,,,,,,,,,,,,,,1,0,,1,,,,,,,,,,,,0,27,27,5,1,,,,,,,,,,,,,,,,,,,,
,,,,,,,,,,,,,,,,,,,,,,,,,,,,,,,,,,,,,,,,,,,,2446,31,2020-08-21_20h42.32.495,CDT_GNG_IUS12,2020.1.2,Win32,60,,,,,,,,,,,,,,,,,,,1,0,,1,,,,,,,,,,,,0,28,28,1,1,,,,,,,,,,,,,,,,,,,,
,,,,,,,,,,,,,,,,,,,,,,,,,,,,,,,,,,,,,,,,,,,space,2446,31,2020-08-21_20h42.32.495,CDT_GNG_IUS12,2020.1.2,Win32,60,,,,,,,,,,,,,,,,,,,0,1,space,1,0.4151,,,,,,,,,,,0,29,29,23,1,,,,,,,,,,,,,,,,,,,,
,,,,,,,,,,,,,,,,,,,,,,,,,,,,,,,,,,,,,,,,,,,space,2446,31,2020-08-21_20h42.32.495,CDT_GNG_IUS12,2020.1.2,Win32,60,,,,,,,,,,,,,,,,,,,0,1,space,1,0.262755,,,,,,,,,,,0,30,30,35,1,,,,,,,,,,,,,,,,,,,,
,,,,,,,,,,,,,,,,,,,,,,,,,,,,,,,,,,,,,,,,,,,space,2446,31,2020-08-21_20h42.32.495,CDT_GNG_IUS12,2020.1.2,Win32,60,,,,,,,,,,,,,,,,,,,0,1,space,1,0.415705,,,,,,,,,,,0,31,31,25,1,,,,,,,,,,,,,,,,,,,,
,,,,,,,,,,,,,,,,,,,,,,,,,,,,,,,,,,,,,,,,,,,space,2446,31,2020-08-21_20h42.32.495,CDT_GNG_IUS12,2020.1.2,Win32,60,,,,,,,,,,,,,,,,,,,0,1,space,1,0.367355,,,,,,,,,,,0,32,32,33,1,,,,,,,,,,,,,,,,,,,,
,,,,,,,,,,,,,,,,,,,,,,,,,,,,,,,,,,,,,,,,,,,space,2446,31,2020-08-21_20h42.32.495,CDT_GNG_IUS12,2020.1.2,Win32,60,,,,,,,,,,,,,,,,,,,0,1,space,1,0.401545,,,,,,,,,,,0,33,33,40,1,,,,,,,,,,,,,,,,,,,,
,,,,,,,,,,,,,,,,,,,,,,,,,,,,,,,,,,,,,,,,,,,space,2446,31,2020-08-21_20h42.32.495,CDT_GNG_IUS12,2020.1.2,Win32,60,,,,,,,,,,,,,,,,,,,0,1,space,1,0.417865,,,,,,,,,,,0,34,34,37,1,,,,,,,,,,,,,,,,,,,,
,,,,,,,,,,,,,,,,,,,,,,,,,,,,,,,,,,,,,,,,,,,,2446,31,2020-08-21_20h42.32.495,CDT_GNG_IUS12,2020.1.2,Win32,60,,,,,,,,,,,,,,,,,,,1,0,,1,,,,,,,,,,,,0,35,35,0,1,,,,,,,,,,,,,,,,,,,,
,,,,,,,,,,,,,,,,,,,,,,,,,,,,,,,,,,,,,,,,,,,space,2446,31,2020-08-21_20h42.32.495,CDT_GNG_IUS12,2020.1.2,Win32,60,,,,,,,,,,,,,,,,,,,0,1,space,1,0.32873,,,,,,,,,,,0,36,36,13,1,,,,,,,,,,,,,,,,,,,,
,,,,,,,,,,,,,,,,,,,,,,,,,,,,,,,,,,,,,,,,,,,space,2446,31,2020-08-21_20h42.32.495,CDT_GNG_IUS12,2020.1.2,Win32,60,,,,,,,,,,,,,,,,,,,0,1,space,1,0.226875,,,,,,,,,,,0,37,37,49,1,,,,,,,,,,,,,,,,,,,,
,,,,,,,,,,,,,,,,,,,,,,,,,,,,,,,,,,,,,,,,,,,space,2446,31,2020-08-21_20h42.32.495,CDT_GNG_IUS12,2020.1.2,Win32,60,,,,,,,,,,,,,,,,,,,0,1,space,1,0.26181,,,,,,,,,,,0,38,38,45,1,,,,,,,,,,,,,,,,,,,,
,,,,,,,,,,,,,,,,,,,,,,,,,,,,,,,,,,,,,,,,,,,space,2446,31,2020-08-21_20h42.32.495,CDT_GNG_IUS12,2020.1.2,Win32,60,,,,,,,,,,,,,,,,,,,0,1,space,1,0.35874,,,,,,,,,,,0,39,39,21,1,,,,,,,,,,,,,,,,,,,,
,,,,,,,,,,,,,,,,,,,,,,,,,,,,,,,,,,,,,,,,,,,space,2446,31,2020-08-21_20h42.32.495,CDT_GNG_IUS12,2020.1.2,Win32,60,,,,,,,,,,,,,,,,,,,0,1,space,1,0.346705,,,,,,,,,,,0,40,40,15,1,,,,,,,,,,,,,,,,,,,,
,,,,,,,,,,,,,,,,,,,,,,,,,,,,,,,,,,,,,,,,,,,space,2446,31,2020-08-21_20h42.32.495,CDT_GNG_IUS12,2020.1.2,Win32,60,,,,,,,,,,,,,,,,,,,0,1,space,1,0.34679,,,,,,,,,,,0,41,41,46,1,,,,,,,,,,,,,,,,,,,,
,,,,,,,,,,,,,,,,,,,,,,,,,,,,,,,,,,,,,,,,,,,space,2446,31,2020-08-21_20h42.32.495,CDT_GNG_IUS12,2020.1.2,Win32,60,,,,,,,,,,,,,,,,,,,0,1,space,1,0.38434,,,,,,,,,,,0,42,42,24,1,,,,,,,,,,,,,,,,,,,,
,,,,,,,,,,,,,,,,,,,,,,,,,,,,,,,,,,,,,,,,,,,space,2446,31,2020-08-21_20h42.32.495,CDT_GNG_IUS12,2020.1.2,Win32,60,,,,,,,,,,,,,,,,,,,0,1,space,1,0.508465,,,,,,,,,,,0,43,43,47,1,,,,,,,,,,,,,,,,,,,,
,,,,,,,,,,,,,,,,,,,,,,,,,,,,,,,,,,,,,,,,,,,space,2446,31,2020-08-21_20h42.32.495,CDT_GNG_IUS12,2020.1.2,Win32,60,,,,,,,,,,,,,,,,,,,0,1,space,1,0.54668,,,,,,,,,,,0,44,44,10,1,,,,,,,,,,,,,,,,,,,,
,,,,,,,,,,,,,,,,,,,,,,,,,,,,,,,,,,,,,,,,,,,space,2446,31,2020-08-21_20h42.32.495,CDT_GNG_IUS12,2020.1.2,Win32,60,,,,,,,,,,,,,,,,,,,0,1,,0,,,,,,,,,,,,0,45,45,22,1,,,,,,,,,,,,,,,,,,,,
,,,,,,,,,,,,,,,,,,,,,,,,,,,,,,,,,,,,,,,,,,,space,2446,31,2020-08-21_20h42.32.495,CDT_GNG_IUS12,2020.1.2,Win32,60,,,,,,,,,,,,,,,,,,,0,1,space,1,0.10606,,,,,,,,,,,0,46,46,16,1,,,,,,,,,,,,,,,,,,,,
,,,,,,,,,,,,,,,,,,,,,,,,,,,,,,,,,,,,,,,,,,,space,2446,31,2020-08-21_20h42.32.495,CDT_GNG_IUS12,2020.1.2,Win32,60,,,,,,,,,,,,,,,,,,,0,1,space,1,0.3517,,,,,,,,,,,0,47,47,43,1,,,,,,,,,,,,,,,,,,,,
,,,,,,,,,,,,,,,,,,,,,,,,,,,,,,,,,,,,,,,,,,,space,2446,31,2020-08-21_20h42.32.495,CDT_GNG_IUS12,2020.1.2,Win32,60,,,,,,,,,,,,,,,,,,,0,1,space,1,0.307015,,,,,,,,,,,0,48,48,12,1,,,,,,,,,,,,,,,,,,,,
,,,,,,,,,,,,,,,,,,,,,,,,,,,,,,,,,,,,,,,,,,,space,2446,31,2020-08-21_20h42.32.495,CDT_GNG_IUS12,2020.1.2,Win32,60,,,,,,,,,,,,,,,,,,,0,1,space,1,0.349565,,,,,,,,,,,0,49,49,28,1,,,,,,,,,,,,,,,,,,,,
,,,,,,,,,,,,,,,,,,,,,,,,,,,,,,,,,,,,,,,,,,,,2446,31,2020-08-21_20h42.32.495,CDT_GNG_IUS12,2020.1.2,Win32,60,,,,,,,,,,,,,,,,,,,,,,,,,,,,,,,,,,,,,,,6.898148148,14.198825,0,0,0,0,1,1,"On a scale from 0 to 10, indicate your personal perception of your proficiency level for English (10 being the highest score)",,,,,,,,,,,
,,,,,,,,,,,,,,,,,,,,,,,,,,,,,,,,,,,,,,,,,,,,2446,31,2020-08-21_20h42.32.495,CDT_GNG_IUS12,2020.1.2,Win32,60,,,,,,,,,,,,,,,,,,,,,,,,,,,,,,,,,,,,,,,7.111111111,0.494675,0,1,1,1,1,2,"On a scale from 0 to 10, indicate how frequently you are exposed to English (10 being 'always', 0 being 'never')",,,,,,,,,,,
,,,,,,,,,,,,,,,,,,,,,,,,,,,,,,,,,,,,,,,,,,,,2446,31,2020-08-21_20h42.32.495,CDT_GNG_IUS12,2020.1.2,Win32,60,,,,,,,,,,,,,,,,,,,,,,,,,,,,,,,,,,,,,,,,,,,,,,,"On a scale from 0 to 10, indicate your personal perception of your proficiency level for English (10 being the highest score)",3.033333333,14.63501,0,0,0,0,1,1,Unforeseen events upset me greatly.,,
,,,,,,,,,,,,,,,,,,,,,,,,,,,,,,,,,,,,,,,,,,,,2446,31,2020-08-21_20h42.32.495,CDT_GNG_IUS12,2020.1.2,Win32,60,,,,,,,,,,,,,,,,,,,,,,,,,,,,,,,,,,,,,,,,,,,,,,,"On a scale from 0 to 10, indicate how frequently you are exposed to English (10 being 'always', 0 being 'never')",5,5.42805,0,1,1,1,1,2,It frustrates me not having all the information I need.,,
,,,,,,,,,,,,,,,,,,,,,,,,,,,,,,,,,,,,,,,,,,,,2446,31,2020-08-21_20h42.32.495,CDT_GNG_IUS12,2020.1.2,Win32,60,,,,,,,,,,,,,,,,,,,,,,,,,,,,,,,,,,,,,,,,,,,,,,,,3.018518519,8.617415,0,2,2,2,1,3,One should always look ahead so as to avoid surprises.,,
,,,,,,,,,,,,,,,,,,,,,,,,,,,,,,,,,,,,,,,,,,,,2446,31,2020-08-21_20h42.32.495,CDT_GNG_IUS12,2020.1.2,Win32,60,,,,,,,,,,,,,,,,,,,,,,,,,,,,,,,,,,,,,,,,,,,,,,,,2.003703704,12.415835,0,3,3,3,1,4,"A small, unforeseen event can spoil everything, even with the best of planning. ",,
,,,,,,,,,,,,,,,,,,,,,,,,,,,,,,,,,,,,,,,,,,,,2446,31,2020-08-21_20h42.32.495,CDT_GNG_IUS12,2020.1.2,Win32,60,,,,,,,,,,,,,,,,,,,,,,,,,,,,,,,,,,,,,,,,,,,,,,,,3.007407407,6.9708,0,4,4,4,1,5,I always want to know what the future has in store for me.,,
,,,,,,,,,,,,,,,,,,,,,,,,,,,,,,,,,,,,,,,,,,,,2446,31,2020-08-21_20h42.32.495,CDT_GNG_IUS12,2020.1.2,Win32,60,,,,,,,,,,,,,,,,,,,,,,,,,,,,,,,,,,,,,,,,,,,,,,,,1.033333333,7.25803,0,5,5,5,1,6,I can't stand being taken by surprise.,,
,,,,,,,,,,,,,,,,,,,,,,,,,,,,,,,,,,,,,,,,,,,,2446,31,2020-08-21_20h42.32.495,CDT_GNG_IUS12,2020.1.2,Win32,60,,,,,,,,,,,,,,,,,,,,,,,,,,,,,,,,,,,,,,,,,,,,,,,,4.033333333,5.70195,0,6,6,6,1,7,I should be able to organize everything in advance,,
,,,,,,,,,,,,,,,,,,,,,,,,,,,,,,,,,,,,,,,,,,,,2446,31,2020-08-21_20h42.32.495,CDT_GNG_IUS12,2020.1.2,Win32,60,,,,,,,,,,,,,,,,,,,,,,,,,,,,,,,,,,,,,,,,,,,,,,,,4.992592593,6.142855,0,7,7,7,1,8,Uncertainty keeps me from living a full life.,,
,,,,,,,,,,,,,,,,,,,,,,,,,,,,,,,,,,,,,,,,,,,,2446,31,2020-08-21_20h42.32.495,CDT_GNG_IUS12,2020.1.2,Win32,60,,,,,,,,,,,,,,,,,,,,,,,,,,,,,,,,,,,,,,,,,,,,,,,,4.022222222,11.78522,0,8,8,8,1,9,"When it's time to act, uncertainty paralyses me. ",,
,,,,,,,,,,,,,,,,,,,,,,,,,,,,,,,,,,,,,,,,,,,,2446,31,2020-08-21_20h42.32.495,CDT_GNG_IUS12,2020.1.2,Win32,60,,,,,,,,,,,,,,,,,,,,,,,,,,,,,,,,,,,,,,,,,,,,,,,,3.037037037,6.70043,0,9,9,9,1,10,"When I am uncertain, I can't function very well. ",,
,,,,,,,,,,,,,,,,,,,,,,,,,,,,,,,,,,,,,,,,,,,,2446,31,2020-08-21_20h42.32.495,CDT_GNG_IUS12,2020.1.2,Win32,60,,,,,,,,,,,,,,,,,,,,,,,,,,,,,,,,,,,,,,,,,,,,,,,,3.996296296,3.89053,0,10,10,10,1,11,The smallest doubt can stop me from acting. ,,
,,,,,,,,,,,,,,,,,,,,,,,,,,,,,,,,,,,,,,,,,,,,2446,31,2020-08-21_20h42.32.495,CDT_GNG_IUS12,2020.1.2,Win32,60,,,,,,,,,,,,,,,,,,,,,,,,,,,,,,,,,,,,,,,,,,,,,,,,3.007407407,12.94288,0,11,11,11,1,12,I must get away from all uncertain situations. ,,
,,,,,,,,,,,,,,,,,,,,,,,,,,,,,,,,,,,,,,,,,,,,2446,31,2020-08-21_20h42.32.495,CDT_GNG_IUS12,2020.1.2,Win32,60,,,,,,,,,,,,,,,,,,,,,,,,,,,,,,,,,,,,,,,,,,,,,,,,,,,,,,,,,x,60.533425
