key_resp_6.keys,key_resp_6.rt,Gender.keys,Gender.rt,key_resp_2.keys,key_resp_2.corr,key_resp_2.rt,CDT_trials_train.thisRepN,CDT_trials_train.thisTrialN,CDT_trials_train.thisN,CDT_trials_train.thisIndex,CDT_trials_train.ran,trialnum,condit,stimamt,stim1posx,stim1posy,stim1col,stim1opa,stim2posx,stim2posy,stim2col,stim2opa,stim3posx,stim3posy,stim3col,stim3opa,stim4posx,stim4posy,stim4col,stim4opa,stim5posx,stim5posy,stim5col,stim5opa,stim6posx,stim6posy,stim6col,stim6opa,stim7posx,stim7posy,stim7col,stim7opa,stim8posx,stim8posy,stim8col,stim8opa,stimsizex,stimsizey,stimdur,targetposx,targetposy,targetcol,corrAns,participant,age,date,expName,psychopyVersion,OS,frameRate,key_resp.keys,key_resp.corr,key_resp.rt,CDT_trials.thisRepN,CDT_trials.thisTrialN,CDT_trials.thisN,CDT_trials.thisIndex,CDT_trials.ran,trialResp_Train.keys,trialResp_Train.corr,GNGtrials_train.thisRepN,GNGtrials_train.thisTrialN,GNGtrials_train.thisN,GNGtrials_train.thisIndex,GNGtrials_train.ran,orangeOpacity,blueOpacity,trialResp_Train.rt,trialResp.keys,trialResp.corr,trialResp.rt,GNG_trials_1.thisRepN,GNG_trials_1.thisTrialN,GNG_trials_1.thisN,GNG_trials_1.thisIndex,GNG_trials_1.ran,GNG_trials_2.thisRepN,GNG_trials_2.thisTrialN,GNG_trials_2.thisN,GNG_trials_2.thisIndex,GNG_trials_2.ran,GNG_trials_3.thisRepN,GNG_trials_3.thisTrialN,GNG_trials_3.thisN,GNG_trials_3.thisIndex,GNG_trials_3.ran,slider_2.response,slider_2.rt,engprof_trials.thisRepN,engprof_trials.thisTrialN,engprof_trials.thisN,engprof_trials.thisIndex,engprof_trials.ran,qpnumber,qproficiency,slider.response,slider.rt,IUS12_trials.thisRepN,IUS12_trials.thisTrialN,IUS12_trials.thisN,IUS12_trials.thisIndex,IUS12_trials.ran,qnumber,qenglish,key_resp_end.keys,key_resp_end.rt
y,3.23889,w,2.320205,k,1,2.37371,0,0,0,0,1,1,same,4,0.14,0.14,orange,1,0.14,-0.41,blue,1,-0.14,-0.27,cyan,1,-0.41,0.14,red,1,0.14,0.41,black,0,0.27,-0.27,green,0,-0.41,-0.27,magenta,0,-0.41,0.41,yellow,0,0.05,0.05,0.15,0.14,-0.41,blue,k,271525,25,2020-08-05_21h25.57.124,CDT_GNG_IUS12,2020.1.2,Win32,60,,,,,,,,,,,,,,,,,,,,,,,,,,,,,,,,,,,,,,,,,,,,,,,,,,,,,,,,
,,,,l,1,1.236625,0,1,1,1,1,2,different,4,0.14,0.41,black,1,0.14,-0.41,green,1,-0.41,-0.27,orange,1,-0.27,0.41,magenta,1,0.14,0.27,red,0,0.41,-0.27,cyan,0,-0.27,-0.41,yellow,0,-0.27,0.27,blue,0,0.05,0.05,0.15,-0.27,0.41,red,l,271525,25,2020-08-05_21h25.57.124,CDT_GNG_IUS12,2020.1.2,Win32,60,,,,,,,,,,,,,,,,,,,,,,,,,,,,,,,,,,,,,,,,,,,,,,,,,,,,,,,,
,,,,k,1,1.28106,0,2,2,2,1,3,same,8,0.27,0.41,yellow,1,0.14,-0.41,cyan,1,-0.14,-0.27,blue,1,-0.14,0.27,green,1,0.14,0.14,red,1,0.27,-0.27,black,1,-0.27,-0.27,magenta,1,-0.27,0.14,orange,1,0.05,0.05,0.15,-0.14,0.27,green,k,271525,25,2020-08-05_21h25.57.124,CDT_GNG_IUS12,2020.1.2,Win32,60,,,,,,,,,,,,,,,,,,,,,,,,,,,,,,,,,,,,,,,,,,,,,,,,,,,,,,,,
,,,,l,1,2.160155,0,3,3,3,1,4,different,8,0.14,0.41,green,1,0.27,-0.14,red,1,-0.27,-0.14,black,1,-0.14,0.41,orange,1,0.41,0.27,blue,1,0.41,-0.27,magenta,1,-0.14,-0.14,cyan,1,-0.27,0.14,yellow,1,0.05,0.05,0.15,0.27,-0.14,cyan,l,271525,25,2020-08-05_21h25.57.124,CDT_GNG_IUS12,2020.1.2,Win32,60,,,,,,,,,,,,,,,,,,,,,,,,,,,,,,,,,,,,,,,,,,,,,,,,,,,,,,,,
,,,,,,,,,,,,80,same,8,0.41,0.14,red,1,0.41,-0.14,blue,1,-0.41,-0.41,black,1,-0.41,0.14,green,1,0.14,0.41,orange,1,0.27,-0.41,cyan,1,-0.41,-0.14,magenta,1,-0.41,0.41,yellow,1,0.05,0.05,0.15,0.27,-0.41,cyan,k,271525,25,2020-08-05_21h25.57.124,CDT_GNG_IUS12,2020.1.2,Win32,60,k,1,1.68339,0,0,0,79,1,,,,,,,,,,,,,,,,,,,,,,,,,,,,,,,,,,,,,,,,,,,,,,,,
,,,,,,,,,,,,73,same,8,0.14,0.14,blue,1,0.14,-0.41,yellow,1,-0.41,-0.41,red,1,-0.41,0.27,orange,1,0.27,0.41,magenta,1,0.14,-0.27,green,1,-0.41,-0.27,black,1,-0.27,0.27,cyan,1,0.05,0.05,0.15,0.27,0.41,magenta,k,271525,25,2020-08-05_21h25.57.124,CDT_GNG_IUS12,2020.1.2,Win32,60,k,1,1.233505,0,1,1,72,1,,,,,,,,,,,,,,,,,,,,,,,,,,,,,,,,,,,,,,,,,,,,,,,,
,,,,,,,,,,,,27,same,4,0.27,0.27,yellow,1,0.27,-0.27,green,1,-0.27,-0.41,cyan,1,-0.14,0.41,black,1,0.14,0.41,blue,0,0.41,-0.14,red,0,-0.14,-0.14,orange,0,-0.27,0.41,magenta,0,0.05,0.05,0.15,0.27,-0.27,green,k,271525,25,2020-08-05_21h25.57.124,CDT_GNG_IUS12,2020.1.2,Win32,60,l,0,2.22046,0,2,2,26,1,,,,,,,,,,,,,,,,,,,,,,,,,,,,,,,,,,,,,,,,,,,,,,,,
,,,,,,,,,,,,19,same,4,0.27,0.41,blue,1,0.14,-0.41,red,1,-0.14,-0.27,black,1,-0.14,0.27,magenta,1,0.27,0.14,yellow,0,0.27,-0.14,orange,0,-0.14,-0.41,green,0,-0.14,0.14,cyan,0,0.05,0.05,0.15,0.27,0.41,blue,k,271525,25,2020-08-05_21h25.57.124,CDT_GNG_IUS12,2020.1.2,Win32,60,k,1,1.36609,0,3,3,18,1,,,,,,,,,,,,,,,,,,,,,,,,,,,,,,,,,,,,,,,,,,,,,,,,
,,,,,,,,,,,,104,different,8,0.41,0.41,cyan,1,0.41,-0.41,blue,1,-0.27,-0.14,green,1,-0.27,0.14,orange,1,0.14,0.41,red,1,0.27,-0.27,yellow,1,-0.41,-0.27,magenta,1,-0.14,0.41,black,1,0.05,0.05,0.15,-0.14,0.41,magenta,l,271525,25,2020-08-05_21h25.57.124,CDT_GNG_IUS12,2020.1.2,Win32,60,l,1,1.187045,0,4,4,103,1,,,,,,,,,,,,,,,,,,,,,,,,,,,,,,,,,,,,,,,,,,,,,,,,
,,,,,,,,,,,,35,different,4,0.27,0.41,orange,1,0.41,-0.14,cyan,1,-0.27,-0.27,green,1,-0.14,0.27,yellow,1,0.41,0.27,black,0,0.41,-0.41,magenta,0,-0.14,-0.14,blue,0,-0.27,0.14,red,0,0.05,0.05,0.15,-0.14,0.27,blue,l,271525,25,2020-08-05_21h25.57.124,CDT_GNG_IUS12,2020.1.2,Win32,60,l,1,1.157785,0,5,5,34,1,,,,,,,,,,,,,,,,,,,,,,,,,,,,,,,,,,,,,,,,,,,,,,,,
,,,,,,,,,,,,55,different,4,0.14,0.14,black,1,0.41,-0.14,cyan,1,-0.27,-0.27,magenta,1,-0.14,0.41,blue,1,0.27,0.14,yellow,0,0.14,-0.27,red,0,-0.27,-0.41,orange,0,-0.27,0.41,green,0,0.05,0.05,0.15,0.14,0.14,yellow,l,271525,25,2020-08-05_21h25.57.124,CDT_GNG_IUS12,2020.1.2,Win32,60,l,1,0.87045,0,6,6,54,1,,,,,,,,,,,,,,,,,,,,,,,,,,,,,,,,,,,,,,,,,,,,,,,,
,,,,,,,,,,,,4,same,4,0.41,0.27,magenta,1,0.27,-0.41,orange,1,-0.41,-0.41,red,1,-0.14,0.41,green,1,0.27,0.41,blue,0,0.14,-0.41,black,0,-0.27,-0.14,cyan,0,-0.41,0.27,yellow,0,0.05,0.05,0.15,0.27,-0.41,orange,k,271525,25,2020-08-05_21h25.57.124,CDT_GNG_IUS12,2020.1.2,Win32,60,l,0,2.939445,0,7,7,3,1,,,,,,,,,,,,,,,,,,,,,,,,,,,,,,,,,,,,,,,,,,,,,,,,
,,,,,,,,,,,,83,same,8,0.14,0.27,yellow,1,0.27,-0.41,orange,1,-0.27,-0.41,green,1,-0.41,0.14,cyan,1,0.41,0.27,blue,1,0.14,-0.14,magenta,1,-0.14,-0.14,red,1,-0.41,0.41,black,1,0.05,0.05,0.15,-0.41,0.41,black,k,271525,25,2020-08-05_21h25.57.124,CDT_GNG_IUS12,2020.1.2,Win32,60,l,0,1.08558,0,8,8,82,1,,,,,,,,,,,,,,,,,,,,,,,,,,,,,,,,,,,,,,,,,,,,,,,,
,,,,,,,,,,,,68,same,8,0.14,0.27,green,1,0.41,-0.27,magenta,1,-0.14,-0.27,cyan,1,-0.41,0.14,red,1,0.41,0.14,yellow,1,0.27,-0.14,blue,1,-0.14,-0.41,orange,1,-0.14,0.14,black,1,0.05,0.05,0.15,0.27,-0.14,blue,k,271525,25,2020-08-05_21h25.57.124,CDT_GNG_IUS12,2020.1.2,Win32,60,k,1,1.896145,0,9,9,67,1,,,,,,,,,,,,,,,,,,,,,,,,,,,,,,,,,,,,,,,,,,,,,,,,
,,,,,,,,,,,,8,same,4,0.27,0.41,orange,1,0.41,-0.14,cyan,1,-0.14,-0.41,green,1,-0.14,0.41,black,1,0.41,0.41,blue,0,0.27,-0.41,yellow,0,-0.41,-0.27,red,0,-0.41,0.41,magenta,0,0.05,0.05,0.15,-0.14,-0.41,green,k,271525,25,2020-08-05_21h25.57.124,CDT_GNG_IUS12,2020.1.2,Win32,60,l,0,1.267325,0,10,10,7,1,,,,,,,,,,,,,,,,,,,,,,,,,,,,,,,,,,,,,,,,,,,,,,,,
,,,,,,,,,,,,20,same,4,0.27,0.14,cyan,1,0.14,-0.14,orange,1,-0.27,-0.27,green,1,-0.41,0.27,yellow,1,0.14,0.41,black,0,0.41,-0.41,red,0,-0.27,-0.41,magenta,0,-0.27,0.27,blue,0,0.05,0.05,0.15,-0.27,-0.27,green,k,271525,25,2020-08-05_21h25.57.124,CDT_GNG_IUS12,2020.1.2,Win32,60,k,1,1.724535,0,11,11,19,1,,,,,,,,,,,,,,,,,,,,,,,,,,,,,,,,,,,,,,,,,,,,,,,,
,,,,,,,,,,,,22,same,4,0.41,0.27,green,1,0.27,-0.14,black,1,-0.27,-0.41,cyan,1,-0.41,0.14,blue,1,0.14,0.14,magenta,0,0.41,-0.41,orange,0,-0.14,-0.27,red,0,-0.41,0.41,yellow,0,0.05,0.05,0.15,0.27,-0.14,black,k,271525,25,2020-08-05_21h25.57.124,CDT_GNG_IUS12,2020.1.2,Win32,60,k,1,0.83952,0,12,12,21,1,,,,,,,,,,,,,,,,,,,,,,,,,,,,,,,,,,,,,,,,,,,,,,,,
,,,,,,,,,,,,58,different,4,0.14,0.41,blue,1,0.14,-0.14,black,1,-0.14,-0.14,yellow,1,-0.27,0.41,magenta,1,0.27,0.41,red,0,0.14,-0.27,cyan,0,-0.41,-0.27,orange,0,-0.27,0.27,green,0,0.05,0.05,0.15,0.14,0.41,yellow,l,271525,25,2020-08-05_21h25.57.124,CDT_GNG_IUS12,2020.1.2,Win32,60,l,1,1.03606,0,13,13,57,1,,,,,,,,,,,,,,,,,,,,,,,,,,,,,,,,,,,,,,,,,,,,,,,,
,,,,,,,,,,,,51,different,4,0.41,0.41,yellow,1,0.14,-0.27,red,1,-0.14,-0.27,cyan,1,-0.41,0.14,orange,1,0.14,0.41,green,0,0.27,-0.41,black,0,-0.27,-0.14,blue,0,-0.41,0.27,magenta,0,0.05,0.05,0.15,0.41,0.41,red,l,271525,25,2020-08-05_21h25.57.124,CDT_GNG_IUS12,2020.1.2,Win32,60,l,1,1.093885,0,14,14,50,1,,,,,,,,,,,,,,,,,,,,,,,,,,,,,,,,,,,,,,,,,,,,,,,,
,,,,,,,,,,,,94,different,8,0.41,0.27,yellow,1,0.41,-0.27,blue,1,-0.41,-0.14,magenta,1,-0.41,0.27,orange,1,0.41,0.41,red,1,0.41,-0.41,green,1,-0.14,-0.14,black,1,-0.41,0.14,cyan,1,0.05,0.05,0.15,-0.41,0.14,black,l,271525,25,2020-08-05_21h25.57.124,CDT_GNG_IUS12,2020.1.2,Win32,60,l,1,1.055905,0,15,15,93,1,,,,,,,,,,,,,,,,,,,,,,,,,,,,,,,,,,,,,,,,,,,,,,,,
,,,,,,,,,,,,99,different,8,0.14,0.27,blue,1,0.41,-0.41,yellow,1,-0.14,-0.14,green,1,-0.41,0.14,black,1,0.41,0.27,red,1,0.27,-0.27,magenta,1,-0.27,-0.27,orange,1,-0.27,0.27,cyan,1,0.05,0.05,0.15,0.14,0.27,black,l,271525,25,2020-08-05_21h25.57.124,CDT_GNG_IUS12,2020.1.2,Win32,60,l,1,1.219975,0,16,16,98,1,,,,,,,,,,,,,,,,,,,,,,,,,,,,,,,,,,,,,,,,,,,,,,,,
,,,,,,,,,,,,42,different,4,0.41,0.41,green,1,0.14,-0.14,red,1,-0.27,-0.14,cyan,1,-0.27,0.27,blue,1,0.27,0.27,orange,0,0.14,-0.27,black,0,-0.27,-0.41,yellow,0,-0.27,0.41,magenta,0,0.05,0.05,0.15,-0.27,0.27,red,l,271525,25,2020-08-05_21h25.57.124,CDT_GNG_IUS12,2020.1.2,Win32,60,l,1,1.22476,0,17,17,41,1,,,,,,,,,,,,,,,,,,,,,,,,,,,,,,,,,,,,,,,,,,,,,,,,
,,,,,,,,,,,,38,different,4,0.27,0.27,black,1,0.14,-0.27,green,1,-0.14,-0.27,magenta,1,-0.41,0.14,blue,1,0.14,0.41,orange,0,0.27,-0.41,yellow,0,-0.41,-0.14,cyan,0,-0.27,0.41,red,0,0.05,0.05,0.15,-0.14,-0.27,orange,l,271525,25,2020-08-05_21h25.57.124,CDT_GNG_IUS12,2020.1.2,Win32,60,k,0,2.016885,0,18,18,37,1,,,,,,,,,,,,,,,,,,,,,,,,,,,,,,,,,,,,,,,,,,,,,,,,
,,,,,,,,,,,,15,same,4,0.41,0.14,magenta,1,0.41,-0.27,blue,1,-0.27,-0.14,yellow,1,-0.14,0.41,green,1,0.41,0.27,red,0,0.14,-0.14,orange,0,-0.14,-0.14,cyan,0,-0.27,0.27,black,0,0.05,0.05,0.15,-0.14,0.41,green,k,271525,25,2020-08-05_21h25.57.124,CDT_GNG_IUS12,2020.1.2,Win32,60,l,0,1.95924,0,19,19,14,1,,,,,,,,,,,,,,,,,,,,,,,,,,,,,,,,,,,,,,,,,,,,,,,,
,,,,,,,,,,,,33,different,4,0.27,0.41,magenta,1,0.41,-0.41,red,1,-0.27,-0.41,yellow,1,-0.14,0.41,black,1,0.14,0.41,blue,0,0.14,-0.41,orange,0,-0.41,-0.14,cyan,0,-0.41,0.27,green,0,0.05,0.05,0.15,0.27,0.41,black,l,271525,25,2020-08-05_21h25.57.124,CDT_GNG_IUS12,2020.1.2,Win32,60,l,1,1.35241,0,20,20,32,1,,,,,,,,,,,,,,,,,,,,,,,,,,,,,,,,,,,,,,,,,,,,,,,,
,,,,,,,,,,,,36,different,4,0.41,0.27,magenta,1,0.27,-0.14,orange,1,-0.41,-0.41,yellow,1,-0.14,0.14,blue,1,0.14,0.41,green,0,0.27,-0.27,black,0,-0.41,-0.27,cyan,0,-0.41,0.41,red,0,0.05,0.05,0.15,0.27,-0.14,black,l,271525,25,2020-08-05_21h25.57.124,CDT_GNG_IUS12,2020.1.2,Win32,60,l,1,1.27481,0,21,21,35,1,,,,,,,,,,,,,,,,,,,,,,,,,,,,,,,,,,,,,,,,,,,,,,,,
,,,,,,,,,,,,111,different,8,0.27,0.14,red,1,0.41,-0.27,green,1,-0.27,-0.14,yellow,1,-0.14,0.14,orange,1,0.41,0.41,black,1,0.27,-0.27,cyan,1,-0.27,-0.41,blue,1,-0.27,0.14,magenta,1,0.05,0.05,0.15,-0.27,-0.41,red,l,271525,25,2020-08-05_21h25.57.124,CDT_GNG_IUS12,2020.1.2,Win32,60,l,1,1.139785,0,22,22,110,1,,,,,,,,,,,,,,,,,,,,,,,,,,,,,,,,,,,,,,,,,,,,,,,,
,,,,,,,,,,,,116,different,8,0.27,0.14,green,1,0.41,-0.14,black,1,-0.27,-0.41,magenta,1,-0.41,0.14,cyan,1,0.41,0.41,blue,1,0.41,-0.27,yellow,1,-0.41,-0.27,red,1,-0.27,0.14,orange,1,0.05,0.05,0.15,0.41,-0.27,magenta,l,271525,25,2020-08-05_21h25.57.124,CDT_GNG_IUS12,2020.1.2,Win32,60,k,0,2.033085,0,23,23,115,1,,,,,,,,,,,,,,,,,,,,,,,,,,,,,,,,,,,,,,,,,,,,,,,,
,,,,,,,,,,,,81,same,8,0.27,0.14,yellow,1,0.41,-0.14,blue,1,-0.41,-0.14,green,1,-0.41,0.14,orange,1,0.14,0.41,red,1,0.14,-0.27,magenta,1,-0.14,-0.27,cyan,1,-0.14,0.14,black,1,0.05,0.05,0.15,-0.41,0.14,orange,k,271525,25,2020-08-05_21h25.57.124,CDT_GNG_IUS12,2020.1.2,Win32,60,l,0,1.888965,0,24,24,80,1,,,,,,,,,,,,,,,,,,,,,,,,,,,,,,,,,,,,,,,,,,,,,,,,
,,,,,,,,,,,,26,same,4,0.14,0.14,black,1,0.14,-0.14,red,1,-0.41,-0.14,yellow,1,-0.14,0.41,orange,1,0.27,0.14,blue,0,0.14,-0.27,magenta,0,-0.27,-0.41,green,0,-0.14,0.27,cyan,0,0.05,0.05,0.15,-0.41,-0.14,yellow,k,271525,25,2020-08-05_21h25.57.124,CDT_GNG_IUS12,2020.1.2,Win32,60,l,0,1.44756,0,25,25,25,1,,,,,,,,,,,,,,,,,,,,,,,,,,,,,,,,,,,,,,,,,,,,,,,,
,,,,,,,,,,,,82,same,8,0.27,0.41,yellow,1,0.14,-0.14,magenta,1,-0.14,-0.14,orange,1,-0.14,0.41,black,1,0.14,0.41,red,1,0.27,-0.14,green,1,-0.27,-0.27,cyan,1,-0.41,0.41,blue,1,0.05,0.05,0.15,0.14,-0.14,magenta,k,271525,25,2020-08-05_21h25.57.124,CDT_GNG_IUS12,2020.1.2,Win32,60,l,0,1.29516,0,26,26,81,1,,,,,,,,,,,,,,,,,,,,,,,,,,,,,,,,,,,,,,,,,,,,,,,,
,,,,,,,,,,,,85,same,8,0.14,0.41,green,1,0.14,-0.41,magenta,1,-0.41,-0.14,black,1,-0.14,0.27,blue,1,0.27,0.27,orange,1,0.41,-0.41,red,1,-0.27,-0.14,cyan,1,-0.41,0.27,yellow,1,0.05,0.05,0.15,0.27,0.27,orange,k,271525,25,2020-08-05_21h25.57.124,CDT_GNG_IUS12,2020.1.2,Win32,60,l,0,1.58968,0,27,27,84,1,,,,,,,,,,,,,,,,,,,,,,,,,,,,,,,,,,,,,,,,,,,,,,,,
,,,,,,,,,,,,97,different,8,0.27,0.27,blue,1,0.14,-0.27,orange,1,-0.14,-0.14,black,1,-0.27,0.14,cyan,1,0.14,0.14,magenta,1,0.27,-0.41,yellow,1,-0.27,-0.41,green,1,-0.41,0.14,red,1,0.05,0.05,0.15,-0.27,0.14,black,l,271525,25,2020-08-05_21h25.57.124,CDT_GNG_IUS12,2020.1.2,Win32,60,k,0,1.53623,0,28,28,96,1,,,,,,,,,,,,,,,,,,,,,,,,,,,,,,,,,,,,,,,,,,,,,,,,
,,,,,,,,,,,,66,same,8,0.27,0.27,magenta,1,0.14,-0.41,green,1,-0.27,-0.14,yellow,1,-0.14,0.27,orange,1,0.41,0.41,red,1,0.14,-0.14,cyan,1,-0.14,-0.27,black,1,-0.27,0.41,blue,1,0.05,0.05,0.15,0.41,0.41,red,k,271525,25,2020-08-05_21h25.57.124,CDT_GNG_IUS12,2020.1.2,Win32,60,k,1,2.405545,0,29,29,65,1,,,,,,,,,,,,,,,,,,,,,,,,,,,,,,,,,,,,,,,,,,,,,,,,
,,,,,,,,,,,,30,same,4,0.14,0.41,black,1,0.41,-0.27,yellow,1,-0.14,-0.27,green,1,-0.41,0.14,orange,1,0.41,0.27,blue,0,0.14,-0.41,magenta,0,-0.27,-0.27,cyan,0,-0.41,0.41,red,0,0.05,0.05,0.15,0.14,0.41,black,k,271525,25,2020-08-05_21h25.57.124,CDT_GNG_IUS12,2020.1.2,Win32,60,k,1,1.118945,0,30,30,29,1,,,,,,,,,,,,,,,,,,,,,,,,,,,,,,,,,,,,,,,,,,,,,,,,
,,,,,,,,,,,,2,same,4,0.27,0.41,magenta,1,0.41,-0.14,red,1,-0.27,-0.14,orange,1,-0.27,0.14,blue,1,0.14,0.14,cyan,0,0.14,-0.14,green,0,-0.14,-0.14,black,0,-0.14,0.41,yellow,0,0.05,0.05,0.15,-0.27,-0.14,orange,k,271525,25,2020-08-05_21h25.57.124,CDT_GNG_IUS12,2020.1.2,Win32,60,l,0,2.12164,0,31,31,1,1,,,,,,,,,,,,,,,,,,,,,,,,,,,,,,,,,,,,,,,,,,,,,,,,
,,,,,,,,,,,,71,same,8,0.14,0.41,red,1,0.27,-0.14,yellow,1,-0.27,-0.41,cyan,1,-0.41,0.27,blue,1,0.41,0.27,magenta,1,0.14,-0.41,orange,1,-0.14,-0.14,black,1,-0.41,0.14,green,1,0.05,0.05,0.15,-0.41,0.27,blue,k,271525,25,2020-08-05_21h25.57.124,CDT_GNG_IUS12,2020.1.2,Win32,60,l,0,1.97429,0,32,32,70,1,,,,,,,,,,,,,,,,,,,,,,,,,,,,,,,,,,,,,,,,,,,,,,,,
,,,,,,,,,,,,5,same,4,0.27,0.27,blue,1,0.14,-0.14,orange,1,-0.27,-0.27,black,1,-0.27,0.41,magenta,1,0.27,0.41,green,0,0.14,-0.41,cyan,0,-0.27,-0.41,yellow,0,-0.27,0.14,red,0,0.05,0.05,0.15,0.14,-0.14,orange,k,271525,25,2020-08-05_21h25.57.124,CDT_GNG_IUS12,2020.1.2,Win32,60,k,1,1.504565,0,33,33,4,1,,,,,,,,,,,,,,,,,,,,,,,,,,,,,,,,,,,,,,,,,,,,,,,,
,,,,,,,,,,,,75,same,8,0.41,0.27,blue,1,0.41,-0.41,black,1,-0.41,-0.41,red,1,-0.27,0.14,magenta,1,0.27,0.14,yellow,1,0.27,-0.27,cyan,1,-0.14,-0.27,green,1,-0.41,0.27,orange,1,0.05,0.05,0.15,-0.14,-0.27,green,k,271525,25,2020-08-05_21h25.57.124,CDT_GNG_IUS12,2020.1.2,Win32,60,l,0,1.10031,0,34,34,74,1,,,,,,,,,,,,,,,,,,,,,,,,,,,,,,,,,,,,,,,,,,,,,,,,
,,,,,,,,,,,,105,different,8,0.41,0.27,cyan,1,0.14,-0.14,magenta,1,-0.27,-0.14,blue,1,-0.41,0.41,yellow,1,0.41,0.41,red,1,0.14,-0.41,green,1,-0.27,-0.27,orange,1,-0.27,0.41,black,1,0.05,0.05,0.15,0.41,0.27,orange,l,271525,25,2020-08-05_21h25.57.124,CDT_GNG_IUS12,2020.1.2,Win32,60,l,1,2.71916,0,35,35,104,1,,,,,,,,,,,,,,,,,,,,,,,,,,,,,,,,,,,,,,,,,,,,,,,,
,,,,,,,,,,,,56,different,4,0.27,0.14,yellow,1,0.41,-0.14,blue,1,-0.14,-0.27,green,1,-0.41,0.14,cyan,1,0.14,0.14,magenta,0,0.41,-0.41,red,0,-0.41,-0.14,orange,0,-0.41,0.27,black,0,0.05,0.05,0.15,-0.14,-0.27,magenta,l,271525,25,2020-08-05_21h25.57.124,CDT_GNG_IUS12,2020.1.2,Win32,60,k,0,1.985065,0,36,36,55,1,,,,,,,,,,,,,,,,,,,,,,,,,,,,,,,,,,,,,,,,,,,,,,,,
,,,,,,,,,,,,118,different,8,0.14,0.14,red,1,0.27,-0.27,yellow,1,-0.27,-0.14,orange,1,-0.41,0.41,magenta,1,0.27,0.27,cyan,1,0.14,-0.41,green,1,-0.27,-0.41,blue,1,-0.41,0.14,black,1,0.05,0.05,0.15,-0.27,-0.41,black,l,271525,25,2020-08-05_21h25.57.124,CDT_GNG_IUS12,2020.1.2,Win32,60,l,1,1.2709,0,37,37,117,1,,,,,,,,,,,,,,,,,,,,,,,,,,,,,,,,,,,,,,,,,,,,,,,,
,,,,,,,,,,,,115,different,8,0.14,0.27,green,1,0.27,-0.41,orange,1,-0.14,-0.14,yellow,1,-0.27,0.41,magenta,1,0.27,0.14,blue,1,0.14,-0.27,red,1,-0.41,-0.14,cyan,1,-0.41,0.14,black,1,0.05,0.05,0.15,0.14,-0.27,cyan,l,271525,25,2020-08-05_21h25.57.124,CDT_GNG_IUS12,2020.1.2,Win32,60,l,1,1.79074,0,38,38,114,1,,,,,,,,,,,,,,,,,,,,,,,,,,,,,,,,,,,,,,,,,,,,,,,,
,,,,,,,,,,,,14,same,4,0.27,0.41,cyan,1,0.27,-0.41,black,1,-0.27,-0.27,yellow,1,-0.27,0.27,green,1,0.41,0.41,blue,0,0.14,-0.27,red,0,-0.14,-0.14,orange,0,-0.41,0.41,magenta,0,0.05,0.05,0.15,0.27,-0.41,black,k,271525,25,2020-08-05_21h25.57.124,CDT_GNG_IUS12,2020.1.2,Win32,60,k,1,1.775085,0,39,39,13,1,,,,,,,,,,,,,,,,,,,,,,,,,,,,,,,,,,,,,,,,,,,,,,,,
,,,,,,,,,,,,69,same,8,0.27,0.14,magenta,1,0.27,-0.41,yellow,1,-0.14,-0.41,green,1,-0.14,0.41,orange,1,0.14,0.41,red,1,0.14,-0.27,black,1,-0.14,-0.27,blue,1,-0.27,0.14,cyan,1,0.05,0.05,0.15,0.14,-0.27,black,k,271525,25,2020-08-05_21h25.57.124,CDT_GNG_IUS12,2020.1.2,Win32,60,k,1,1.418405,0,40,40,68,1,,,,,,,,,,,,,,,,,,,,,,,,,,,,,,,,,,,,,,,,,,,,,,,,
,,,,,,,,,,,,59,different,4,0.27,0.41,black,1,0.41,-0.14,blue,1,-0.27,-0.27,cyan,1,-0.14,0.41,green,1,0.14,0.27,red,0,0.41,-0.41,magenta,0,-0.14,-0.27,orange,0,-0.41,0.27,yellow,0,0.05,0.05,0.15,0.27,0.41,yellow,l,271525,25,2020-08-05_21h25.57.124,CDT_GNG_IUS12,2020.1.2,Win32,60,l,1,0.80061,0,41,41,58,1,,,,,,,,,,,,,,,,,,,,,,,,,,,,,,,,,,,,,,,,,,,,,,,,
,,,,,,,,,,,,114,different,8,0.41,0.41,yellow,1,0.14,-0.41,red,1,-0.41,-0.41,blue,1,-0.27,0.14,cyan,1,0.41,0.27,black,1,0.27,-0.41,green,1,-0.14,-0.41,orange,1,-0.14,0.41,magenta,1,0.05,0.05,0.15,-0.14,0.41,orange,l,271525,25,2020-08-05_21h25.57.124,CDT_GNG_IUS12,2020.1.2,Win32,60,l,1,1.15696,0,42,42,113,1,,,,,,,,,,,,,,,,,,,,,,,,,,,,,,,,,,,,,,,,,,,,,,,,
,,,,,,,,,,,,102,different,8,0.14,0.27,yellow,1,0.14,-0.41,green,1,-0.41,-0.27,red,1,-0.14,0.41,orange,1,0.41,0.41,magenta,1,0.27,-0.41,blue,1,-0.27,-0.41,cyan,1,-0.27,0.27,black,1,0.05,0.05,0.15,-0.27,0.27,yellow,l,271525,25,2020-08-05_21h25.57.124,CDT_GNG_IUS12,2020.1.2,Win32,60,l,1,0.8358,0,43,43,101,1,,,,,,,,,,,,,,,,,,,,,,,,,,,,,,,,,,,,,,,,,,,,,,,,
,,,,,,,,,,,,49,different,4,0.27,0.14,green,1,0.41,-0.14,yellow,1,-0.27,-0.41,red,1,-0.14,0.14,cyan,1,0.14,0.14,blue,0,0.27,-0.27,black,0,-0.14,-0.41,orange,0,-0.41,0.14,magenta,0,0.05,0.05,0.15,0.27,0.14,yellow,l,271525,25,2020-08-05_21h25.57.124,CDT_GNG_IUS12,2020.1.2,Win32,60,l,1,0.889255,0,44,44,48,1,,,,,,,,,,,,,,,,,,,,,,,,,,,,,,,,,,,,,,,,,,,,,,,,
,,,,,,,,,,,,76,same,8,0.14,0.27,orange,1,0.41,-0.14,cyan,1,-0.27,-0.27,blue,1,-0.14,0.14,black,1,0.27,0.41,green,1,0.27,-0.14,red,1,-0.27,-0.14,yellow,1,-0.27,0.27,magenta,1,0.05,0.05,0.15,0.41,-0.14,cyan,k,271525,25,2020-08-05_21h25.57.124,CDT_GNG_IUS12,2020.1.2,Win32,60,k,1,2.043285,0,45,45,75,1,,,,,,,,,,,,,,,,,,,,,,,,,,,,,,,,,,,,,,,,,,,,,,,,
,,,,,,,,,,,,9,same,4,0.27,0.27,red,1,0.14,-0.27,orange,1,-0.14,-0.41,yellow,1,-0.27,0.41,blue,1,0.41,0.41,green,0,0.41,-0.41,cyan,0,-0.27,-0.41,magenta,0,-0.27,0.27,black,0,0.05,0.05,0.15,0.27,0.27,red,k,271525,25,2020-08-05_21h25.57.124,CDT_GNG_IUS12,2020.1.2,Win32,60,k,1,1.01149,0,46,46,8,1,,,,,,,,,,,,,,,,,,,,,,,,,,,,,,,,,,,,,,,,,,,,,,,,
,,,,,,,,,,,,101,different,8,0.14,0.27,magenta,1,0.14,-0.27,cyan,1,-0.41,-0.14,yellow,1,-0.41,0.14,black,1,0.14,0.41,red,1,0.41,-0.41,blue,1,-0.14,-0.41,green,1,-0.27,0.27,orange,1,0.05,0.05,0.15,-0.41,0.14,magenta,l,271525,25,2020-08-05_21h25.57.124,CDT_GNG_IUS12,2020.1.2,Win32,60,l,1,1.137415,0,47,47,100,1,,,,,,,,,,,,,,,,,,,,,,,,,,,,,,,,,,,,,,,,,,,,,,,,
,,,,,,,,,,,,89,same,8,0.14,0.14,blue,1,0.14,-0.27,orange,1,-0.14,-0.27,yellow,1,-0.41,0.27,red,1,0.27,0.27,cyan,1,0.14,-0.14,green,1,-0.14,-0.41,magenta,1,-0.41,0.41,black,1,0.05,0.05,0.15,0.14,-0.27,orange,k,271525,25,2020-08-05_21h25.57.124,CDT_GNG_IUS12,2020.1.2,Win32,60,l,0,2.71483,0,48,48,88,1,,,,,,,,,,,,,,,,,,,,,,,,,,,,,,,,,,,,,,,,,,,,,,,,
,,,,,,,,,,,,54,different,4,0.14,0.14,yellow,1,0.41,-0.41,magenta,1,-0.14,-0.41,black,1,-0.14,0.27,orange,1,0.41,0.27,cyan,0,0.41,-0.27,red,0,-0.27,-0.14,green,0,-0.27,0.27,blue,0,0.05,0.05,0.15,0.41,-0.41,cyan,l,271525,25,2020-08-05_21h25.57.124,CDT_GNG_IUS12,2020.1.2,Win32,60,l,1,1.319065,0,49,49,53,1,,,,,,,,,,,,,,,,,,,,,,,,,,,,,,,,,,,,,,,,,,,,,,,,
,,,,,,,,,,,,62,same,8,0.41,0.14,red,1,0.14,-0.27,cyan,1,-0.41,-0.27,orange,1,-0.27,0.27,magenta,1,0.14,0.27,green,1,0.14,-0.14,blue,1,-0.27,-0.41,black,1,-0.41,0.14,yellow,1,0.05,0.05,0.15,-0.27,0.27,magenta,k,271525,25,2020-08-05_21h25.57.124,CDT_GNG_IUS12,2020.1.2,Win32,60,k,1,1.13378,0,50,50,61,1,,,,,,,,,,,,,,,,,,,,,,,,,,,,,,,,,,,,,,,,,,,,,,,,
,,,,,,,,,,,,45,different,4,0.14,0.14,red,1,0.27,-0.27,black,1,-0.41,-0.27,cyan,1,-0.41,0.27,blue,1,0.27,0.27,magenta,0,0.14,-0.41,orange,0,-0.14,-0.14,green,0,-0.27,0.14,yellow,0,0.05,0.05,0.15,0.14,0.14,blue,l,271525,25,2020-08-05_21h25.57.124,CDT_GNG_IUS12,2020.1.2,Win32,60,l,1,1.132835,0,51,51,44,1,,,,,,,,,,,,,,,,,,,,,,,,,,,,,,,,,,,,,,,,,,,,,,,,
,,,,,,,,,,,,65,same,8,0.41,0.41,blue,1,0.27,-0.41,yellow,1,-0.27,-0.41,red,1,-0.41,0.27,cyan,1,0.14,0.27,black,1,0.27,-0.27,orange,1,-0.41,-0.41,magenta,1,-0.41,0.41,green,1,0.05,0.05,0.15,0.27,-0.27,orange,k,271525,25,2020-08-05_21h25.57.124,CDT_GNG_IUS12,2020.1.2,Win32,60,l,0,2.246845,0,52,52,64,1,,,,,,,,,,,,,,,,,,,,,,,,,,,,,,,,,,,,,,,,,,,,,,,,
,,,,,,,,,,,,106,different,8,0.41,0.41,black,1,0.14,-0.41,yellow,1,-0.41,-0.14,orange,1,-0.27,0.27,blue,1,0.14,0.41,red,1,0.41,-0.27,green,1,-0.14,-0.14,cyan,1,-0.14,0.14,magenta,1,0.05,0.05,0.15,-0.41,-0.14,green,l,271525,25,2020-08-05_21h25.57.124,CDT_GNG_IUS12,2020.1.2,Win32,60,k,0,2.971625,0,53,53,105,1,,,,,,,,,,,,,,,,,,,,,,,,,,,,,,,,,,,,,,,,,,,,,,,,
,,,,,,,,,,,,17,same,4,0.41,0.27,cyan,1,0.41,-0.41,black,1,-0.14,-0.27,magenta,1,-0.14,0.41,green,1,0.14,0.14,orange,0,0.14,-0.41,yellow,0,-0.14,-0.41,red,0,-0.27,0.14,blue,0,0.05,0.05,0.15,-0.14,0.41,green,k,271525,25,2020-08-05_21h25.57.124,CDT_GNG_IUS12,2020.1.2,Win32,60,k,1,0.766615,0,54,54,16,1,,,,,,,,,,,,,,,,,,,,,,,,,,,,,,,,,,,,,,,,,,,,,,,,
,,,,,,,,,,,,78,same,8,0.41,0.14,green,1,0.14,-0.27,magenta,1,-0.41,-0.27,blue,1,-0.41,0.41,black,1,0.41,0.27,cyan,1,0.41,-0.14,orange,1,-0.14,-0.41,yellow,1,-0.14,0.41,red,1,0.05,0.05,0.15,-0.41,-0.27,blue,k,271525,25,2020-08-05_21h25.57.124,CDT_GNG_IUS12,2020.1.2,Win32,60,l,0,1.61344,0,55,55,77,1,,,,,,,,,,,,,,,,,,,,,,,,,,,,,,,,,,,,,,,,,,,,,,,,
,,,,,,,,,,,,13,same,4,0.41,0.41,black,1,0.14,-0.14,red,1,-0.14,-0.14,orange,1,-0.14,0.14,cyan,1,0.14,0.14,green,0,0.27,-0.27,magenta,0,-0.27,-0.14,yellow,0,-0.14,0.41,blue,0,0.05,0.05,0.15,0.41,0.41,black,k,271525,25,2020-08-05_21h25.57.124,CDT_GNG_IUS12,2020.1.2,Win32,60,k,1,1.2831,0,56,56,12,1,,,,,,,,,,,,,,,,,,,,,,,,,,,,,,,,,,,,,,,,,,,,,,,,
,,,,,,,,,,,,107,different,8,0.27,0.41,green,1,0.27,-0.41,cyan,1,-0.41,-0.41,black,1,-0.14,0.41,blue,1,0.14,0.14,red,1,0.27,-0.27,yellow,1,-0.14,-0.41,magenta,1,-0.14,0.14,orange,1,0.05,0.05,0.15,-0.14,0.14,black,l,271525,25,2020-08-05_21h25.57.124,CDT_GNG_IUS12,2020.1.2,Win32,60,l,1,1.2512,0,57,57,106,1,,,,,,,,,,,,,,,,,,,,,,,,,,,,,,,,,,,,,,,,,,,,,,,,
,,,,,,,,,,,,48,different,4,0.14,0.27,red,1,0.27,-0.14,yellow,1,-0.27,-0.41,magenta,1,-0.41,0.14,green,1,0.14,0.14,orange,0,0.41,-0.14,cyan,0,-0.27,-0.27,black,0,-0.41,0.41,blue,0,0.05,0.05,0.15,0.14,0.27,blue,l,271525,25,2020-08-05_21h25.57.124,CDT_GNG_IUS12,2020.1.2,Win32,60,l,1,1.43691,0,58,58,47,1,,,,,,,,,,,,,,,,,,,,,,,,,,,,,,,,,,,,,,,,,,,,,,,,
,,,,,,,,,,,,72,same,8,0.27,0.41,blue,1,0.41,-0.27,magenta,1,-0.41,-0.41,yellow,1,-0.27,0.41,black,1,0.41,0.41,cyan,1,0.27,-0.41,green,1,-0.41,-0.27,orange,1,-0.14,0.27,red,1,0.05,0.05,0.15,-0.14,0.27,red,k,271525,25,2020-08-05_21h25.57.124,CDT_GNG_IUS12,2020.1.2,Win32,60,l,0,0.76202,0,59,59,71,1,,,,,,,,,,,,,,,,,,,,,,,,,,,,,,,,,,,,,,,,,,,,,,,,
,,,,,,,,,,,,95,different,8,0.41,0.41,black,1,0.14,-0.14,cyan,1,-0.14,-0.41,orange,1,-0.14,0.27,blue,1,0.41,0.27,magenta,1,0.14,-0.41,green,1,-0.27,-0.27,red,1,-0.41,0.14,yellow,1,0.05,0.05,0.15,-0.14,0.27,green,l,271525,25,2020-08-05_21h25.57.124,CDT_GNG_IUS12,2020.1.2,Win32,60,l,1,0.792345,0,60,60,94,1,,,,,,,,,,,,,,,,,,,,,,,,,,,,,,,,,,,,,,,,,,,,,,,,
,,,,,,,,,,,,50,different,4,0.41,0.14,black,1,0.14,-0.14,blue,1,-0.41,-0.41,red,1,-0.27,0.14,green,1,0.14,0.41,cyan,0,0.41,-0.14,magenta,0,-0.14,-0.27,yellow,0,-0.27,0.41,orange,0,0.05,0.05,0.15,-0.41,-0.41,orange,l,271525,25,2020-08-05_21h25.57.124,CDT_GNG_IUS12,2020.1.2,Win32,60,k,0,3.83258,0,61,61,49,1,,,,,,,,,,,,,,,,,,,,,,,,,,,,,,,,,,,,,,,,,,,,,,,,
,,,,,,,,,,,,11,same,4,0.27,0.14,red,1,0.14,-0.14,cyan,1,-0.27,-0.41,blue,1,-0.27,0.14,yellow,1,0.27,0.27,green,0,0.41,-0.27,black,0,-0.41,-0.41,magenta,0,-0.41,0.14,orange,0,0.05,0.05,0.15,-0.27,-0.41,blue,k,271525,25,2020-08-05_21h25.57.124,CDT_GNG_IUS12,2020.1.2,Win32,60,k,1,4.69347,0,62,62,10,1,,,,,,,,,,,,,,,,,,,,,,,,,,,,,,,,,,,,,,,,,,,,,,,,
,,,,,,,,,,,,34,different,4,0.14,0.14,cyan,1,0.14,-0.14,magenta,1,-0.41,-0.41,black,1,-0.41,0.14,yellow,1,0.27,0.27,orange,0,0.14,-0.41,green,0,-0.41,-0.14,red,0,-0.14,0.14,blue,0,0.05,0.05,0.15,0.14,-0.14,cyan,l,271525,25,2020-08-05_21h25.57.124,CDT_GNG_IUS12,2020.1.2,Win32,60,l,1,1.17381,0,63,63,33,1,,,,,,,,,,,,,,,,,,,,,,,,,,,,,,,,,,,,,,,,,,,,,,,,
,,,,,,,,,,,,41,different,4,0.41,0.41,green,1,0.27,-0.41,orange,1,-0.27,-0.41,black,1,-0.27,0.41,magenta,1,0.14,0.41,cyan,0,0.41,-0.27,blue,0,-0.14,-0.27,red,0,-0.27,0.14,yellow,0,0.05,0.05,0.15,-0.27,-0.41,cyan,l,271525,25,2020-08-05_21h25.57.124,CDT_GNG_IUS12,2020.1.2,Win32,60,l,1,1.866925,0,64,64,40,1,,,,,,,,,,,,,,,,,,,,,,,,,,,,,,,,,,,,,,,,,,,,,,,,
,,,,,,,,,,,,91,different,8,0.27,0.27,red,1,0.41,-0.14,orange,1,-0.14,-0.27,green,1,-0.27,0.27,yellow,1,0.14,0.27,cyan,1,0.14,-0.14,black,1,-0.41,-0.41,blue,1,-0.14,0.41,magenta,1,0.05,0.05,0.15,-0.14,0.41,yellow,l,271525,25,2020-08-05_21h25.57.124,CDT_GNG_IUS12,2020.1.2,Win32,60,l,1,1.007975,0,65,65,90,1,,,,,,,,,,,,,,,,,,,,,,,,,,,,,,,,,,,,,,,,,,,,,,,,
,,,,,,,,,,,,86,same,8,0.41,0.27,magenta,1,0.14,-0.14,green,1,-0.14,-0.41,orange,1,-0.14,0.41,red,1,0.27,0.14,black,1,0.14,-0.41,cyan,1,-0.41,-0.27,yellow,1,-0.27,0.14,blue,1,0.05,0.05,0.15,0.14,-0.41,cyan,k,271525,25,2020-08-05_21h25.57.124,CDT_GNG_IUS12,2020.1.2,Win32,60,l,0,1.180605,0,66,66,85,1,,,,,,,,,,,,,,,,,,,,,,,,,,,,,,,,,,,,,,,,,,,,,,,,
,,,,,,,,,,,,96,different,8,0.14,0.14,yellow,1,0.14,-0.41,black,1,-0.27,-0.27,orange,1,-0.14,0.41,blue,1,0.14,0.27,magenta,1,0.41,-0.27,cyan,1,-0.41,-0.41,red,1,-0.41,0.41,green,1,0.05,0.05,0.15,0.41,-0.27,magenta,l,271525,25,2020-08-05_21h25.57.124,CDT_GNG_IUS12,2020.1.2,Win32,60,l,1,0.85528,0,67,67,95,1,,,,,,,,,,,,,,,,,,,,,,,,,,,,,,,,,,,,,,,,,,,,,,,,
,,,,,,,,,,,,25,same,4,0.41,0.27,cyan,1,0.27,-0.27,yellow,1,-0.41,-0.14,black,1,-0.14,0.27,blue,1,0.41,0.14,green,0,0.14,-0.41,magenta,0,-0.41,-0.41,orange,0,-0.27,0.41,red,0,0.05,0.05,0.15,0.27,-0.27,yellow,k,271525,25,2020-08-05_21h25.57.124,CDT_GNG_IUS12,2020.1.2,Win32,60,k,1,1.9697,0,68,68,24,1,,,,,,,,,,,,,,,,,,,,,,,,,,,,,,,,,,,,,,,,,,,,,,,,
,,,,,,,,,,,,109,different,8,0.41,0.14,yellow,1,0.27,-0.27,cyan,1,-0.14,-0.27,magenta,1,-0.27,0.14,orange,1,0.41,0.41,green,1,0.27,-0.41,red,1,-0.27,-0.41,black,1,-0.27,0.41,blue,1,0.05,0.05,0.15,0.27,-0.27,green,l,271525,25,2020-08-05_21h25.57.124,CDT_GNG_IUS12,2020.1.2,Win32,60,l,1,1.542645,0,69,69,108,1,,,,,,,,,,,,,,,,,,,,,,,,,,,,,,,,,,,,,,,,,,,,,,,,
,,,,,,,,,,,,47,different,4,0.27,0.27,magenta,1,0.41,-0.27,black,1,-0.14,-0.41,red,1,-0.14,0.41,green,1,0.41,0.41,cyan,0,0.27,-0.14,orange,0,-0.27,-0.14,blue,0,-0.27,0.14,yellow,0,0.05,0.05,0.15,0.27,0.27,blue,l,271525,25,2020-08-05_21h25.57.124,CDT_GNG_IUS12,2020.1.2,Win32,60,l,1,0.90193,0,70,70,46,1,,,,,,,,,,,,,,,,,,,,,,,,,,,,,,,,,,,,,,,,,,,,,,,,
,,,,,,,,,,,,7,same,4,0.41,0.41,yellow,1,0.41,-0.41,blue,1,-0.14,-0.41,black,1,-0.14,0.14,magenta,1,0.27,0.41,red,0,0.41,-0.27,green,0,-0.41,-0.14,cyan,0,-0.14,0.27,orange,0,0.05,0.05,0.15,-0.14,0.14,magenta,k,271525,25,2020-08-05_21h25.57.124,CDT_GNG_IUS12,2020.1.2,Win32,60,k,1,1.036405,0,71,71,6,1,,,,,,,,,,,,,,,,,,,,,,,,,,,,,,,,,,,,,,,,,,,,,,,,
,,,,,,,,,,,,40,different,4,0.41,0.41,magenta,1,0.41,-0.27,cyan,1,-0.27,-0.41,yellow,1,-0.14,0.41,black,1,0.27,0.27,blue,0,0.41,-0.41,green,0,-0.14,-0.27,red,0,-0.27,0.27,orange,0,0.05,0.05,0.15,-0.27,-0.41,orange,l,271525,25,2020-08-05_21h25.57.124,CDT_GNG_IUS12,2020.1.2,Win32,60,l,1,1.82424,0,72,72,39,1,,,,,,,,,,,,,,,,,,,,,,,,,,,,,,,,,,,,,,,,,,,,,,,,
,,,,,,,,,,,,67,same,8,0.14,0.27,yellow,1,0.27,-0.14,magenta,1,-0.27,-0.27,black,1,-0.41,0.41,blue,1,0.41,0.14,cyan,1,0.14,-0.14,red,1,-0.41,-0.14,orange,1,-0.41,0.27,green,1,0.05,0.05,0.15,-0.27,-0.27,black,k,271525,25,2020-08-05_21h25.57.124,CDT_GNG_IUS12,2020.1.2,Win32,60,k,1,0.835095,0,73,73,66,1,,,,,,,,,,,,,,,,,,,,,,,,,,,,,,,,,,,,,,,,,,,,,,,,
,,,,,,,,,,,,100,different,8,0.41,0.27,black,1,0.41,-0.27,red,1,-0.14,-0.27,magenta,1,-0.14,0.27,orange,1,0.14,0.27,blue,1,0.27,-0.14,yellow,1,-0.41,-0.14,cyan,1,-0.41,0.14,green,1,0.05,0.05,0.15,0.41,0.27,orange,l,271525,25,2020-08-05_21h25.57.124,CDT_GNG_IUS12,2020.1.2,Win32,60,l,1,1.681955,0,74,74,99,1,,,,,,,,,,,,,,,,,,,,,,,,,,,,,,,,,,,,,,,,,,,,,,,,
,,,,,,,,,,,,88,same,8,0.27,0.41,red,1,0.41,-0.14,cyan,1,-0.14,-0.14,green,1,-0.41,0.41,orange,1,0.14,0.27,magenta,1,0.27,-0.27,yellow,1,-0.41,-0.41,black,1,-0.27,0.41,blue,1,0.05,0.05,0.15,-0.41,0.41,orange,k,271525,25,2020-08-05_21h25.57.124,CDT_GNG_IUS12,2020.1.2,Win32,60,l,0,1.172445,0,75,75,87,1,,,,,,,,,,,,,,,,,,,,,,,,,,,,,,,,,,,,,,,,,,,,,,,,
,,,,,,,,,,,,79,same,8,0.27,0.14,green,1,0.41,-0.14,yellow,1,-0.27,-0.41,orange,1,-0.14,0.14,black,1,0.41,0.27,cyan,1,0.14,-0.14,red,1,-0.14,-0.27,blue,1,-0.27,0.41,magenta,1,0.05,0.05,0.15,0.41,0.27,cyan,k,271525,25,2020-08-05_21h25.57.124,CDT_GNG_IUS12,2020.1.2,Win32,60,l,0,1.083285,0,76,76,78,1,,,,,,,,,,,,,,,,,,,,,,,,,,,,,,,,,,,,,,,,,,,,,,,,
,,,,,,,,,,,,43,different,4,0.27,0.27,red,1,0.14,-0.27,orange,1,-0.41,-0.14,green,1,-0.27,0.27,cyan,1,0.41,0.41,black,0,0.27,-0.14,magenta,0,-0.41,-0.41,yellow,0,-0.41,0.41,blue,0,0.05,0.05,0.15,-0.41,-0.14,magenta,l,271525,25,2020-08-05_21h25.57.124,CDT_GNG_IUS12,2020.1.2,Win32,60,l,1,1.10259,0,77,77,42,1,,,,,,,,,,,,,,,,,,,,,,,,,,,,,,,,,,,,,,,,,,,,,,,,
,,,,,,,,,,,,23,same,4,0.41,0.14,cyan,1,0.14,-0.27,magenta,1,-0.14,-0.27,red,1,-0.14,0.27,green,1,0.41,0.27,blue,0,0.14,-0.41,yellow,0,-0.41,-0.27,orange,0,-0.27,0.41,black,0,0.05,0.05,0.15,-0.14,0.27,green,k,271525,25,2020-08-05_21h25.57.124,CDT_GNG_IUS12,2020.1.2,Win32,60,k,1,1.091355,0,78,78,22,1,,,,,,,,,,,,,,,,,,,,,,,,,,,,,,,,,,,,,,,,,,,,,,,,
,,,,,,,,,,,,52,different,4,0.27,0.41,cyan,1,0.14,-0.14,orange,1,-0.41,-0.14,black,1,-0.27,0.41,blue,1,0.14,0.27,magenta,0,0.27,-0.14,green,0,-0.27,-0.14,red,0,-0.14,0.41,yellow,0,0.05,0.05,0.15,0.14,-0.14,green,l,271525,25,2020-08-05_21h25.57.124,CDT_GNG_IUS12,2020.1.2,Win32,60,k,0,1.766885,0,79,79,51,1,,,,,,,,,,,,,,,,,,,,,,,,,,,,,,,,,,,,,,,,,,,,,,,,
,,,,,,,,,,,,53,different,4,0.14,0.27,cyan,1,0.41,-0.14,yellow,1,-0.41,-0.41,green,1,-0.14,0.41,black,1,0.41,0.27,red,0,0.14,-0.14,magenta,0,-0.27,-0.27,blue,0,-0.27,0.27,orange,0,0.05,0.05,0.15,0.14,0.27,blue,l,271525,25,2020-08-05_21h25.57.124,CDT_GNG_IUS12,2020.1.2,Win32,60,l,1,1.10013,0,80,80,52,1,,,,,,,,,,,,,,,,,,,,,,,,,,,,,,,,,,,,,,,,,,,,,,,,
,,,,,,,,,,,,93,different,8,0.14,0.41,blue,1,0.14,-0.27,red,1,-0.41,-0.14,magenta,1,-0.14,0.27,black,1,0.41,0.27,yellow,1,0.41,-0.14,orange,1,-0.27,-0.14,green,1,-0.14,0.41,cyan,1,0.05,0.05,0.15,0.41,-0.14,blue,l,271525,25,2020-08-05_21h25.57.124,CDT_GNG_IUS12,2020.1.2,Win32,60,l,1,2.18596,0,81,81,92,1,,,,,,,,,,,,,,,,,,,,,,,,,,,,,,,,,,,,,,,,,,,,,,,,
,,,,,,,,,,,,10,same,4,0.14,0.41,magenta,1,0.41,-0.14,black,1,-0.27,-0.27,orange,1,-0.41,0.27,green,1,0.27,0.41,blue,0,0.41,-0.41,yellow,0,-0.41,-0.41,cyan,0,-0.27,0.27,red,0,0.05,0.05,0.15,0.41,-0.14,black,k,271525,25,2020-08-05_21h25.57.124,CDT_GNG_IUS12,2020.1.2,Win32,60,k,1,1.740235,0,82,82,9,1,,,,,,,,,,,,,,,,,,,,,,,,,,,,,,,,,,,,,,,,,,,,,,,,
,,,,,,,,,,,,29,same,4,0.14,0.27,black,1,0.41,-0.14,blue,1,-0.41,-0.14,magenta,1,-0.27,0.27,green,1,0.27,0.27,yellow,0,0.41,-0.41,orange,0,-0.41,-0.27,cyan,0,-0.14,0.14,red,0,0.05,0.05,0.15,0.41,-0.14,blue,k,271525,25,2020-08-05_21h25.57.124,CDT_GNG_IUS12,2020.1.2,Win32,60,k,1,2.345275,0,83,83,28,1,,,,,,,,,,,,,,,,,,,,,,,,,,,,,,,,,,,,,,,,,,,,,,,,
,,,,,,,,,,,,84,same,8,0.27,0.14,magenta,1,0.14,-0.14,yellow,1,-0.14,-0.14,blue,1,-0.27,0.27,red,1,0.41,0.14,cyan,1,0.41,-0.27,orange,1,-0.14,-0.27,black,1,-0.41,0.14,green,1,0.05,0.05,0.15,-0.27,0.27,red,k,271525,25,2020-08-05_21h25.57.124,CDT_GNG_IUS12,2020.1.2,Win32,60,l,0,0.95792,0,84,84,83,1,,,,,,,,,,,,,,,,,,,,,,,,,,,,,,,,,,,,,,,,,,,,,,,,
,,,,,,,,,,,,103,different,8,0.14,0.14,black,1,0.14,-0.27,cyan,1,-0.41,-0.41,green,1,-0.41,0.27,red,1,0.27,0.41,orange,1,0.27,-0.27,blue,1,-0.41,-0.14,magenta,1,-0.41,0.41,yellow,1,0.05,0.05,0.15,0.27,-0.27,magenta,l,271525,25,2020-08-05_21h25.57.124,CDT_GNG_IUS12,2020.1.2,Win32,60,l,1,1.199995,0,85,85,102,1,,,,,,,,,,,,,,,,,,,,,,,,,,,,,,,,,,,,,,,,,,,,,,,,
,,,,,,,,,,,,24,same,4,0.41,0.27,green,1,0.14,-0.27,black,1,-0.27,-0.27,yellow,1,-0.14,0.14,orange,1,0.41,0.14,blue,0,0.14,-0.14,cyan,0,-0.41,-0.14,red,0,-0.27,0.41,magenta,0,0.05,0.05,0.15,-0.14,0.14,orange,k,271525,25,2020-08-05_21h25.57.124,CDT_GNG_IUS12,2020.1.2,Win32,60,k,1,0.89303,0,86,86,23,1,,,,,,,,,,,,,,,,,,,,,,,,,,,,,,,,,,,,,,,,,,,,,,,,
,,,,,,,,,,,,57,different,4,0.14,0.41,black,1,0.14,-0.14,blue,1,-0.41,-0.14,red,1,-0.41,0.14,orange,1,0.41,0.41,magenta,0,0.41,-0.14,cyan,0,-0.14,-0.27,yellow,0,-0.27,0.41,green,0,0.05,0.05,0.15,-0.41,0.14,blue,l,271525,25,2020-08-05_21h25.57.124,CDT_GNG_IUS12,2020.1.2,Win32,60,l,1,1.154005,0,87,87,56,1,,,,,,,,,,,,,,,,,,,,,,,,,,,,,,,,,,,,,,,,,,,,,,,,
,,,,,,,,,,,,70,same,8,0.41,0.41,black,1,0.14,-0.27,red,1,-0.41,-0.41,magenta,1,-0.27,0.41,green,1,0.27,0.14,yellow,1,0.41,-0.41,orange,1,-0.27,-0.14,blue,1,-0.27,0.27,cyan,1,0.05,0.05,0.15,0.14,-0.27,red,k,271525,25,2020-08-05_21h25.57.124,CDT_GNG_IUS12,2020.1.2,Win32,60,k,1,1.885035,0,88,88,69,1,,,,,,,,,,,,,,,,,,,,,,,,,,,,,,,,,,,,,,,,,,,,,,,,
,,,,,,,,,,,,39,different,4,0.41,0.27,green,1,0.41,-0.27,yellow,1,-0.27,-0.27,orange,1,-0.14,0.14,cyan,1,0.14,0.14,magenta,0,0.27,-0.41,blue,0,-0.14,-0.27,red,0,-0.41,0.27,black,0,0.05,0.05,0.15,-0.14,0.14,green,l,271525,25,2020-08-05_21h25.57.124,CDT_GNG_IUS12,2020.1.2,Win32,60,l,1,0.834625,0,89,89,38,1,,,,,,,,,,,,,,,,,,,,,,,,,,,,,,,,,,,,,,,,,,,,,,,,
,,,,,,,,,,,,6,same,4,0.41,0.27,orange,1,0.41,-0.14,magenta,1,-0.14,-0.27,black,1,-0.27,0.41,cyan,1,0.14,0.41,red,0,0.14,-0.41,blue,0,-0.14,-0.14,green,0,-0.41,0.41,yellow,0,0.05,0.05,0.15,-0.14,-0.27,black,k,271525,25,2020-08-05_21h25.57.124,CDT_GNG_IUS12,2020.1.2,Win32,60,l,0,0.835415,0,90,90,5,1,,,,,,,,,,,,,,,,,,,,,,,,,,,,,,,,,,,,,,,,,,,,,,,,
,,,,,,,,,,,,110,different,8,0.41,0.14,orange,1,0.27,-0.27,black,1,-0.14,-0.27,blue,1,-0.27,0.27,cyan,1,0.27,0.41,magenta,1,0.27,-0.41,red,1,-0.27,-0.41,yellow,1,-0.27,0.41,green,1,0.05,0.05,0.15,-0.27,-0.41,red,l,271525,25,2020-08-05_21h25.57.124,CDT_GNG_IUS12,2020.1.2,Win32,60,l,1,1.689615,0,91,91,109,1,,,,,,,,,,,,,,,,,,,,,,,,,,,,,,,,,,,,,,,,,,,,,,,,
,,,,,,,,,,,,113,different,8,0.41,0.27,magenta,1,0.27,-0.27,red,1,-0.41,-0.41,yellow,1,-0.14,0.27,green,1,0.41,0.14,orange,1,0.14,-0.41,blue,1,-0.14,-0.41,black,1,-0.41,0.27,cyan,1,0.05,0.05,0.15,0.41,0.14,yellow,l,271525,25,2020-08-05_21h25.57.124,CDT_GNG_IUS12,2020.1.2,Win32,60,l,1,1.314915,0,92,92,112,1,,,,,,,,,,,,,,,,,,,,,,,,,,,,,,,,,,,,,,,,,,,,,,,,
,,,,,,,,,,,,28,same,4,0.41,0.41,magenta,1,0.27,-0.14,blue,1,-0.14,-0.14,red,1,-0.14,0.41,orange,1,0.14,0.14,black,0,0.41,-0.14,green,0,-0.27,-0.14,yellow,0,-0.14,0.27,cyan,0,0.05,0.05,0.15,0.27,-0.14,blue,k,271525,25,2020-08-05_21h25.57.124,CDT_GNG_IUS12,2020.1.2,Win32,60,k,1,1.32149,0,93,93,27,1,,,,,,,,,,,,,,,,,,,,,,,,,,,,,,,,,,,,,,,,,,,,,,,,
,,,,,,,,,,,,117,different,8,0.14,0.41,black,1,0.14,-0.41,cyan,1,-0.41,-0.27,magenta,1,-0.27,0.41,yellow,1,0.41,0.27,orange,1,0.41,-0.14,red,1,-0.27,-0.27,green,1,-0.14,0.14,blue,1,0.05,0.05,0.15,0.41,-0.14,black,l,271525,25,2020-08-05_21h25.57.124,CDT_GNG_IUS12,2020.1.2,Win32,60,l,1,1.177655,0,94,94,116,1,,,,,,,,,,,,,,,,,,,,,,,,,,,,,,,,,,,,,,,,,,,,,,,,
,,,,,,,,,,,,92,different,8,0.27,0.27,yellow,1,0.14,-0.27,green,1,-0.41,-0.14,blue,1,-0.41,0.41,red,1,0.14,0.27,magenta,1,0.27,-0.14,cyan,1,-0.14,-0.14,orange,1,-0.27,0.27,black,1,0.05,0.05,0.15,-0.41,-0.14,magenta,l,271525,25,2020-08-05_21h25.57.124,CDT_GNG_IUS12,2020.1.2,Win32,60,l,1,1.535815,0,95,95,91,1,,,,,,,,,,,,,,,,,,,,,,,,,,,,,,,,,,,,,,,,,,,,,,,,
,,,,,,,,,,,,44,different,4,0.27,0.27,black,1,0.41,-0.14,red,1,-0.41,-0.27,magenta,1,-0.14,0.14,green,1,0.41,0.41,cyan,0,0.14,-0.14,yellow,0,-0.27,-0.41,blue,0,-0.27,0.14,orange,0,0.05,0.05,0.15,0.41,-0.14,magenta,l,271525,25,2020-08-05_21h25.57.124,CDT_GNG_IUS12,2020.1.2,Win32,60,l,1,2.458635,0,96,96,43,1,,,,,,,,,,,,,,,,,,,,,,,,,,,,,,,,,,,,,,,,,,,,,,,,
,,,,,,,,,,,,64,same,8,0.41,0.14,green,1,0.14,-0.41,cyan,1,-0.14,-0.14,yellow,1,-0.14,0.27,red,1,0.27,0.14,blue,1,0.27,-0.27,magenta,1,-0.14,-0.27,orange,1,-0.14,0.41,black,1,0.05,0.05,0.15,-0.14,0.27,red,k,271525,25,2020-08-05_21h25.57.124,CDT_GNG_IUS12,2020.1.2,Win32,60,k,1,1.1423,0,97,97,63,1,,,,,,,,,,,,,,,,,,,,,,,,,,,,,,,,,,,,,,,,,,,,,,,,
,,,,,,,,,,,,98,different,8,0.41,0.27,black,1,0.14,-0.27,yellow,1,-0.14,-0.27,cyan,1,-0.27,0.14,red,1,0.27,0.27,green,1,0.41,-0.41,magenta,1,-0.41,-0.14,blue,1,-0.41,0.41,orange,1,0.05,0.05,0.15,0.41,0.27,red,l,271525,25,2020-08-05_21h25.57.124,CDT_GNG_IUS12,2020.1.2,Win32,60,l,1,1.45104,0,98,98,97,1,,,,,,,,,,,,,,,,,,,,,,,,,,,,,,,,,,,,,,,,,,,,,,,,
,,,,,,,,,,,,12,same,4,0.14,0.41,red,1,0.14,-0.41,green,1,-0.41,-0.41,black,1,-0.27,0.27,cyan,1,0.27,0.41,magenta,0,0.41,-0.14,orange,0,-0.27,-0.41,yellow,0,-0.41,0.27,blue,0,0.05,0.05,0.15,-0.41,-0.41,black,k,271525,25,2020-08-05_21h25.57.124,CDT_GNG_IUS12,2020.1.2,Win32,60,k,1,1.68467,0,99,99,11,1,,,,,,,,,,,,,,,,,,,,,,,,,,,,,,,,,,,,,,,,,,,,,,,,
,,,,,,,,,,,,119,different,8,0.27,0.27,green,1,0.27,-0.14,orange,1,-0.41,-0.41,cyan,1,-0.27,0.27,blue,1,0.41,0.27,black,1,0.14,-0.41,red,1,-0.14,-0.41,yellow,1,-0.41,0.27,magenta,1,0.05,0.05,0.15,-0.41,0.27,cyan,l,271525,25,2020-08-05_21h25.57.124,CDT_GNG_IUS12,2020.1.2,Win32,60,l,1,0.934975,0,100,100,118,1,,,,,,,,,,,,,,,,,,,,,,,,,,,,,,,,,,,,,,,,,,,,,,,,
,,,,,,,,,,,,1,same,4,0.14,0.14,magenta,1,0.27,-0.14,blue,1,-0.27,-0.14,black,1,-0.27,0.27,green,1,0.41,0.41,red,0,0.27,-0.27,cyan,0,-0.14,-0.14,yellow,0,-0.27,0.41,orange,0,0.05,0.05,0.15,0.14,0.14,magenta,k,271525,25,2020-08-05_21h25.57.124,CDT_GNG_IUS12,2020.1.2,Win32,60,k,1,1.036785,0,101,101,0,1,,,,,,,,,,,,,,,,,,,,,,,,,,,,,,,,,,,,,,,,,,,,,,,,
,,,,,,,,,,,,37,different,4,0.41,0.41,yellow,1,0.27,-0.14,black,1,-0.14,-0.14,orange,1,-0.41,0.14,green,1,0.14,0.14,cyan,0,0.27,-0.41,blue,0,-0.14,-0.27,magenta,0,-0.14,0.14,red,0,0.05,0.05,0.15,0.41,0.41,red,l,271525,25,2020-08-05_21h25.57.124,CDT_GNG_IUS12,2020.1.2,Win32,60,l,1,1.15815,0,102,102,36,1,,,,,,,,,,,,,,,,,,,,,,,,,,,,,,,,,,,,,,,,,,,,,,,,
,,,,,,,,,,,,120,different,8,0.41,0.41,blue,1,0.14,-0.14,magenta,1,-0.27,-0.27,cyan,1,-0.27,0.41,orange,1,0.27,0.41,yellow,1,0.14,-0.41,red,1,-0.14,-0.27,green,1,-0.14,0.41,black,1,0.05,0.05,0.15,-0.14,0.41,orange,l,271525,25,2020-08-05_21h25.57.124,CDT_GNG_IUS12,2020.1.2,Win32,60,l,1,1.89507,0,103,103,119,1,,,,,,,,,,,,,,,,,,,,,,,,,,,,,,,,,,,,,,,,,,,,,,,,
,,,,,,,,,,,,21,same,4,0.41,0.27,magenta,1,0.27,-0.41,black,1,-0.27,-0.14,orange,1,-0.41,0.41,green,1,0.27,0.14,yellow,0,0.27,-0.14,cyan,0,-0.27,-0.27,red,0,-0.41,0.27,blue,0,0.05,0.05,0.15,0.27,-0.41,black,k,271525,25,2020-08-05_21h25.57.124,CDT_GNG_IUS12,2020.1.2,Win32,60,k,1,2.053015,0,104,104,20,1,,,,,,,,,,,,,,,,,,,,,,,,,,,,,,,,,,,,,,,,,,,,,,,,
,,,,,,,,,,,,18,same,4,0.41,0.27,orange,1,0.14,-0.27,blue,1,-0.27,-0.41,yellow,1,-0.41,0.27,magenta,1,0.14,0.41,red,0,0.14,-0.14,black,0,-0.41,-0.27,green,0,-0.41,0.41,cyan,0,0.05,0.05,0.15,0.14,-0.27,blue,k,271525,25,2020-08-05_21h25.57.124,CDT_GNG_IUS12,2020.1.2,Win32,60,k,1,0.816085,0,105,105,17,1,,,,,,,,,,,,,,,,,,,,,,,,,,,,,,,,,,,,,,,,,,,,,,,,
,,,,,,,,,,,,32,different,4,0.41,0.27,orange,1,0.41,-0.41,green,1,-0.14,-0.14,cyan,1,-0.41,0.41,red,1,0.27,0.41,black,0,0.27,-0.41,magenta,0,-0.27,-0.14,blue,0,-0.14,0.14,yellow,0,0.05,0.05,0.15,-0.14,-0.14,blue,l,271525,25,2020-08-05_21h25.57.124,CDT_GNG_IUS12,2020.1.2,Win32,60,l,1,0.77272,0,106,106,31,1,,,,,,,,,,,,,,,,,,,,,,,,,,,,,,,,,,,,,,,,,,,,,,,,
,,,,,,,,,,,,90,same,8,0.27,0.14,orange,1,0.14,-0.27,green,1,-0.14,-0.41,magenta,1,-0.14,0.27,cyan,1,0.41,0.41,blue,1,0.14,-0.14,black,1,-0.14,-0.14,yellow,1,-0.27,0.27,red,1,0.05,0.05,0.15,0.14,-0.14,black,k,271525,25,2020-08-05_21h25.57.124,CDT_GNG_IUS12,2020.1.2,Win32,60,l,0,2.170925,0,107,107,89,1,,,,,,,,,,,,,,,,,,,,,,,,,,,,,,,,,,,,,,,,,,,,,,,,
,,,,,,,,,,,,74,same,8,0.41,0.41,blue,1,0.14,-0.14,orange,1,-0.27,-0.41,cyan,1,-0.27,0.41,yellow,1,0.41,0.27,black,1,0.41,-0.41,red,1,-0.14,-0.27,magenta,1,-0.27,0.14,green,1,0.05,0.05,0.15,0.41,0.27,black,k,271525,25,2020-08-05_21h25.57.124,CDT_GNG_IUS12,2020.1.2,Win32,60,k,1,1.014585,0,108,108,73,1,,,,,,,,,,,,,,,,,,,,,,,,,,,,,,,,,,,,,,,,,,,,,,,,
,,,,,,,,,,,,16,same,4,0.27,0.27,magenta,1,0.14,-0.14,orange,1,-0.14,-0.41,blue,1,-0.27,0.14,red,1,0.14,0.14,black,0,0.14,-0.27,green,0,-0.27,-0.27,yellow,0,-0.27,0.27,cyan,0,0.05,0.05,0.15,-0.27,0.14,red,k,271525,25,2020-08-05_21h25.57.124,CDT_GNG_IUS12,2020.1.2,Win32,60,k,1,0.9297,0,109,109,15,1,,,,,,,,,,,,,,,,,,,,,,,,,,,,,,,,,,,,,,,,,,,,,,,,
,,,,,,,,,,,,61,same,8,0.41,0.41,orange,1,0.41,-0.41,magenta,1,-0.27,-0.41,blue,1,-0.14,0.27,yellow,1,0.14,0.41,red,1,0.14,-0.27,black,1,-0.41,-0.41,cyan,1,-0.27,0.14,green,1,0.05,0.05,0.15,-0.27,-0.41,blue,k,271525,25,2020-08-05_21h25.57.124,CDT_GNG_IUS12,2020.1.2,Win32,60,l,0,2.177095,0,110,110,60,1,,,,,,,,,,,,,,,,,,,,,,,,,,,,,,,,,,,,,,,,,,,,,,,,
,,,,,,,,,,,,63,same,8,0.27,0.27,magenta,1,0.27,-0.27,yellow,1,-0.27,-0.14,orange,1,-0.14,0.14,green,1,0.41,0.27,blue,1,0.41,-0.27,cyan,1,-0.41,-0.41,red,1,-0.41,0.27,black,1,0.05,0.05,0.15,0.27,0.27,magenta,k,271525,25,2020-08-05_21h25.57.124,CDT_GNG_IUS12,2020.1.2,Win32,60,k,1,1.80934,0,111,111,62,1,,,,,,,,,,,,,,,,,,,,,,,,,,,,,,,,,,,,,,,,,,,,,,,,
,,,,,,,,,,,,60,different,4,0.41,0.14,cyan,1,0.14,-0.41,green,1,-0.41,-0.41,yellow,1,-0.41,0.41,magenta,1,0.14,0.14,orange,0,0.41,-0.41,red,0,-0.14,-0.41,black,0,-0.27,0.27,blue,0,0.05,0.05,0.15,0.41,0.14,blue,l,271525,25,2020-08-05_21h25.57.124,CDT_GNG_IUS12,2020.1.2,Win32,60,l,1,1.133605,0,112,112,59,1,,,,,,,,,,,,,,,,,,,,,,,,,,,,,,,,,,,,,,,,,,,,,,,,
,,,,,,,,,,,,112,different,8,0.27,0.41,magenta,1,0.14,-0.41,green,1,-0.14,-0.14,black,1,-0.27,0.27,cyan,1,0.41,0.41,red,1,0.14,-0.27,blue,1,-0.41,-0.14,orange,1,-0.14,0.14,yellow,1,0.05,0.05,0.15,0.41,0.41,blue,l,271525,25,2020-08-05_21h25.57.124,CDT_GNG_IUS12,2020.1.2,Win32,60,l,1,1.59024,0,113,113,111,1,,,,,,,,,,,,,,,,,,,,,,,,,,,,,,,,,,,,,,,,,,,,,,,,
,,,,,,,,,,,,77,same,8,0.41,0.41,black,1,0.14,-0.14,cyan,1,-0.27,-0.41,yellow,1,-0.14,0.27,orange,1,0.41,0.14,blue,1,0.41,-0.14,magenta,1,-0.14,-0.27,green,1,-0.27,0.14,red,1,0.05,0.05,0.15,0.41,-0.14,magenta,k,271525,25,2020-08-05_21h25.57.124,CDT_GNG_IUS12,2020.1.2,Win32,60,k,1,1.0019,0,114,114,76,1,,,,,,,,,,,,,,,,,,,,,,,,,,,,,,,,,,,,,,,,,,,,,,,,
,,,,,,,,,,,,31,different,4,0.27,0.41,orange,1,0.14,-0.14,black,1,-0.41,-0.41,yellow,1,-0.41,0.27,cyan,1,0.27,0.14,green,0,0.41,-0.27,blue,0,-0.14,-0.41,red,0,-0.41,0.14,magenta,0,0.05,0.05,0.15,-0.41,0.27,yellow,l,271525,25,2020-08-05_21h25.57.124,CDT_GNG_IUS12,2020.1.2,Win32,60,l,1,1.591895,0,115,115,30,1,,,,,,,,,,,,,,,,,,,,,,,,,,,,,,,,,,,,,,,,,,,,,,,,
,,,,,,,,,,,,108,different,8,0.27,0.41,magenta,1,0.27,-0.14,green,1,-0.14,-0.41,yellow,1,-0.41,0.41,red,1,0.41,0.27,blue,1,0.14,-0.27,cyan,1,-0.27,-0.27,orange,1,-0.41,0.14,black,1,0.05,0.05,0.15,0.27,0.41,black,l,271525,25,2020-08-05_21h25.57.124,CDT_GNG_IUS12,2020.1.2,Win32,60,l,1,2.084885,0,116,116,107,1,,,,,,,,,,,,,,,,,,,,,,,,,,,,,,,,,,,,,,,,,,,,,,,,
,,,,,,,,,,,,46,different,4,0.14,0.14,red,1,0.14,-0.14,green,1,-0.14,-0.41,orange,1,-0.27,0.41,blue,1,0.41,0.27,cyan,0,0.14,-0.27,magenta,0,-0.14,-0.14,black,0,-0.41,0.27,yellow,0,0.05,0.05,0.15,-0.14,-0.41,blue,l,271525,25,2020-08-05_21h25.57.124,CDT_GNG_IUS12,2020.1.2,Win32,60,l,1,1.159505,0,117,117,45,1,,,,,,,,,,,,,,,,,,,,,,,,,,,,,,,,,,,,,,,,,,,,,,,,
,,,,,,,,,,,,3,same,4,0.27,0.14,green,1,0.27,-0.27,orange,1,-0.27,-0.41,yellow,1,-0.41,0.41,magenta,1,0.14,0.41,black,0,0.14,-0.41,red,0,-0.27,-0.14,cyan,0,-0.14,0.14,blue,0,0.05,0.05,0.15,-0.27,-0.41,yellow,k,271525,25,2020-08-05_21h25.57.124,CDT_GNG_IUS12,2020.1.2,Win32,60,k,1,1.266375,0,118,118,2,1,,,,,,,,,,,,,,,,,,,,,,,,,,,,,,,,,,,,,,,,,,,,,,,,
,,,,,,,,,,,,87,same,8,0.27,0.14,red,1,0.14,-0.14,yellow,1,-0.27,-0.14,orange,1,-0.27,0.27,magenta,1,0.41,0.27,blue,1,0.41,-0.41,green,1,-0.27,-0.27,black,1,-0.14,0.27,cyan,1,0.05,0.05,0.15,0.41,-0.41,green,k,271525,25,2020-08-05_21h25.57.124,CDT_GNG_IUS12,2020.1.2,Win32,60,k,1,1.4585,0,119,119,86,1,,,,,,,,,,,,,,,,,,,,,,,,,,,,,,,,,,,,,,,,,,,,,,,,
,,,,,,,,,,,,,,,,,,,,,,,,,,,,,,,,,,,,,,,,,,,,,,,,,,,,,,271525,25,2020-08-05_21h25.57.124,CDT_GNG_IUS12,2020.1.2,Win32,60,,,,,,,,,,1,0,0,0,2,1,1,0,,,,,,,,,,,,,,,,,,,,,,,,,,,,,,,,,,,,,,,
,,,,,,,,,,,,,,,,,,,,,,,,,,,,,,,,,,,,,,,,,,,,,,,,,,,,,space,271525,25,2020-08-05_21h25.57.124,CDT_GNG_IUS12,2020.1.2,Win32,60,,,,,,,,,space,1,0,1,1,4,1,0,1,0.387415,,,,,,,,,,,,,,,,,,,,,,,,,,,,,,,,,,,,,,
,,,,,,,,,,,,,,,,,,,,,,,,,,,,,,,,,,,,,,,,,,,,,,,,,,,,,,271525,25,2020-08-05_21h25.57.124,CDT_GNG_IUS12,2020.1.2,Win32,60,,,,,,,,,,1,0,2,2,3,1,1,0,,,,,,,,,,,,,,,,,,,,,,,,,,,,,,,,,,,,,,,
,,,,,,,,,,,,,,,,,,,,,,,,,,,,,,,,,,,,,,,,,,,,,,,,,,,,,space,271525,25,2020-08-05_21h25.57.124,CDT_GNG_IUS12,2020.1.2,Win32,60,,,,,,,,,space,1,0,3,3,6,1,0,1,0.577695,,,,,,,,,,,,,,,,,,,,,,,,,,,,,,,,,,,,,,
,,,,,,,,,,,,,,,,,,,,,,,,,,,,,,,,,,,,,,,,,,,,,,,,,,,,,space,271525,25,2020-08-05_21h25.57.124,CDT_GNG_IUS12,2020.1.2,Win32,60,,,,,,,,,space,1,0,4,4,7,1,0,1,0.717155,,,,,,,,,,,,,,,,,,,,,,,,,,,,,,,,,,,,,,
,,,,,,,,,,,,,,,,,,,,,,,,,,,,,,,,,,,,,,,,,,,,,,,,,,,,,space,271525,25,2020-08-05_21h25.57.124,CDT_GNG_IUS12,2020.1.2,Win32,60,,,,,,,,,,0,0,5,5,5,1,0,1,,,,,,,,,,,,,,,,,,,,,,,,,,,,,,,,,,,,,,,
,,,,,,,,,,,,,,,,,,,,,,,,,,,,,,,,,,,,,,,,,,,,,,,,,,,,,,271525,25,2020-08-05_21h25.57.124,CDT_GNG_IUS12,2020.1.2,Win32,60,,,,,,,,,,1,0,6,6,1,1,1,0,,,,,,,,,,,,,,,,,,,,,,,,,,,,,,,,,,,,,,,
,,,,,,,,,,,,,,,,,,,,,,,,,,,,,,,,,,,,,,,,,,,,,,,,,,,,,,271525,25,2020-08-05_21h25.57.124,CDT_GNG_IUS12,2020.1.2,Win32,60,,,,,,,,,,1,0,7,7,0,1,1,0,,,,,,,,,,,,,,,,,,,,,,,,,,,,,,,,,,,,,,,
,,,,,,,,,,,,,,,,,,,,,,,,,,,,,,,,,,,,,,,,,,,,,,,,,,,,,space,271525,25,2020-08-05_21h25.57.124,CDT_GNG_IUS12,2020.1.2,Win32,60,,,,,,,,,,,,,,,,0,1,,space,1,0.33699,0,0,0,14,1,,,,,,,,,,,,,,,,,,,,,,,,,,,,,,
,,,,,,,,,,,,,,,,,,,,,,,,,,,,,,,,,,,,,,,,,,,,,,,,,,,,,space,271525,25,2020-08-05_21h25.57.124,CDT_GNG_IUS12,2020.1.2,Win32,60,,,,,,,,,,,,,,,,0,1,,space,1,0.41628,0,1,1,33,1,,,,,,,,,,,,,,,,,,,,,,,,,,,,,,
,,,,,,,,,,,,,,,,,,,,,,,,,,,,,,,,,,,,,,,,,,,,,,,,,,,,,space,271525,25,2020-08-05_21h25.57.124,CDT_GNG_IUS12,2020.1.2,Win32,60,,,,,,,,,,,,,,,,0,1,,space,1,0.289045,0,2,2,23,1,,,,,,,,,,,,,,,,,,,,,,,,,,,,,,
,,,,,,,,,,,,,,,,,,,,,,,,,,,,,,,,,,,,,,,,,,,,,,,,,,,,,space,271525,25,2020-08-05_21h25.57.124,CDT_GNG_IUS12,2020.1.2,Win32,60,,,,,,,,,,,,,,,,0,1,,space,1,0.26331,0,3,3,27,1,,,,,,,,,,,,,,,,,,,,,,,,,,,,,,
,,,,,,,,,,,,,,,,,,,,,,,,,,,,,,,,,,,,,,,,,,,,,,,,,,,,,,271525,25,2020-08-05_21h25.57.124,CDT_GNG_IUS12,2020.1.2,Win32,60,,,,,,,,,,,,,,,,1,0,,space,0,0.20153,0,4,4,5,1,,,,,,,,,,,,,,,,,,,,,,,,,,,,,,
,,,,,,,,,,,,,,,,,,,,,,,,,,,,,,,,,,,,,,,,,,,,,,,,,,,,,space,271525,25,2020-08-05_21h25.57.124,CDT_GNG_IUS12,2020.1.2,Win32,60,,,,,,,,,,,,,,,,0,1,,space,1,0.51805,0,5,5,12,1,,,,,,,,,,,,,,,,,,,,,,,,,,,,,,
,,,,,,,,,,,,,,,,,,,,,,,,,,,,,,,,,,,,,,,,,,,,,,,,,,,,,space,271525,25,2020-08-05_21h25.57.124,CDT_GNG_IUS12,2020.1.2,Win32,60,,,,,,,,,,,,,,,,0,1,,space,1,0.449575,0,6,6,36,1,,,,,,,,,,,,,,,,,,,,,,,,,,,,,,
,,,,,,,,,,,,,,,,,,,,,,,,,,,,,,,,,,,,,,,,,,,,,,,,,,,,,space,271525,25,2020-08-05_21h25.57.124,CDT_GNG_IUS12,2020.1.2,Win32,60,,,,,,,,,,,,,,,,0,1,,space,1,0.325385,0,7,7,17,1,,,,,,,,,,,,,,,,,,,,,,,,,,,,,,
,,,,,,,,,,,,,,,,,,,,,,,,,,,,,,,,,,,,,,,,,,,,,,,,,,,,,space,271525,25,2020-08-05_21h25.57.124,CDT_GNG_IUS12,2020.1.2,Win32,60,,,,,,,,,,,,,,,,0,1,,space,1,0.31902,0,8,8,26,1,,,,,,,,,,,,,,,,,,,,,,,,,,,,,,
,,,,,,,,,,,,,,,,,,,,,,,,,,,,,,,,,,,,,,,,,,,,,,,,,,,,,space,271525,25,2020-08-05_21h25.57.124,CDT_GNG_IUS12,2020.1.2,Win32,60,,,,,,,,,,,,,,,,0,1,,space,1,0.27138,0,9,9,46,1,,,,,,,,,,,,,,,,,,,,,,,,,,,,,,
,,,,,,,,,,,,,,,,,,,,,,,,,,,,,,,,,,,,,,,,,,,,,,,,,,,,,space,271525,25,2020-08-05_21h25.57.124,CDT_GNG_IUS12,2020.1.2,Win32,60,,,,,,,,,,,,,,,,0,1,,space,1,0.277145,0,10,10,15,1,,,,,,,,,,,,,,,,,,,,,,,,,,,,,,
,,,,,,,,,,,,,,,,,,,,,,,,,,,,,,,,,,,,,,,,,,,,,,,,,,,,,space,271525,25,2020-08-05_21h25.57.124,CDT_GNG_IUS12,2020.1.2,Win32,60,,,,,,,,,,,,,,,,0,1,,space,1,0.301445,0,11,11,47,1,,,,,,,,,,,,,,,,,,,,,,,,,,,,,,
,,,,,,,,,,,,,,,,,,,,,,,,,,,,,,,,,,,,,,,,,,,,,,,,,,,,,space,271525,25,2020-08-05_21h25.57.124,CDT_GNG_IUS12,2020.1.2,Win32,60,,,,,,,,,,,,,,,,0,1,,space,1,0.25368,0,12,12,16,1,,,,,,,,,,,,,,,,,,,,,,,,,,,,,,
,,,,,,,,,,,,,,,,,,,,,,,,,,,,,,,,,,,,,,,,,,,,,,,,,,,,,space,271525,25,2020-08-05_21h25.57.124,CDT_GNG_IUS12,2020.1.2,Win32,60,,,,,,,,,,,,,,,,0,1,,space,1,0.256265,0,13,13,24,1,,,,,,,,,,,,,,,,,,,,,,,,,,,,,,
,,,,,,,,,,,,,,,,,,,,,,,,,,,,,,,,,,,,,,,,,,,,,,,,,,,,,space,271525,25,2020-08-05_21h25.57.124,CDT_GNG_IUS12,2020.1.2,Win32,60,,,,,,,,,,,,,,,,0,1,,space,1,0.2611,0,14,14,41,1,,,,,,,,,,,,,,,,,,,,,,,,,,,,,,
,,,,,,,,,,,,,,,,,,,,,,,,,,,,,,,,,,,,,,,,,,,,,,,,,,,,,space,271525,25,2020-08-05_21h25.57.124,CDT_GNG_IUS12,2020.1.2,Win32,60,,,,,,,,,,,,,,,,0,1,,space,1,0.215325,0,15,15,42,1,,,,,,,,,,,,,,,,,,,,,,,,,,,,,,
,,,,,,,,,,,,,,,,,,,,,,,,,,,,,,,,,,,,,,,,,,,,,,,,,,,,,,271525,25,2020-08-05_21h25.57.124,CDT_GNG_IUS12,2020.1.2,Win32,60,,,,,,,,,,,,,,,,1,0,,space,0,0.13324,0,16,16,4,1,,,,,,,,,,,,,,,,,,,,,,,,,,,,,,
,,,,,,,,,,,,,,,,,,,,,,,,,,,,,,,,,,,,,,,,,,,,,,,,,,,,,space,271525,25,2020-08-05_21h25.57.124,CDT_GNG_IUS12,2020.1.2,Win32,60,,,,,,,,,,,,,,,,0,1,,,0,,0,17,17,37,1,,,,,,,,,,,,,,,,,,,,,,,,,,,,,,
,,,,,,,,,,,,,,,,,,,,,,,,,,,,,,,,,,,,,,,,,,,,,,,,,,,,,space,271525,25,2020-08-05_21h25.57.124,CDT_GNG_IUS12,2020.1.2,Win32,60,,,,,,,,,,,,,,,,0,1,,space,1,0.34304,0,18,18,19,1,,,,,,,,,,,,,,,,,,,,,,,,,,,,,,
,,,,,,,,,,,,,,,,,,,,,,,,,,,,,,,,,,,,,,,,,,,,,,,,,,,,,space,271525,25,2020-08-05_21h25.57.124,CDT_GNG_IUS12,2020.1.2,Win32,60,,,,,,,,,,,,,,,,0,1,,space,1,0.01138,0,19,19,45,1,,,,,,,,,,,,,,,,,,,,,,,,,,,,,,
,,,,,,,,,,,,,,,,,,,,,,,,,,,,,,,,,,,,,,,,,,,,,,,,,,,,,,271525,25,2020-08-05_21h25.57.124,CDT_GNG_IUS12,2020.1.2,Win32,60,,,,,,,,,,,,,,,,1,0,,,1,,0,20,20,9,1,,,,,,,,,,,,,,,,,,,,,,,,,,,,,,
,,,,,,,,,,,,,,,,,,,,,,,,,,,,,,,,,,,,,,,,,,,,,,,,,,,,,space,271525,25,2020-08-05_21h25.57.124,CDT_GNG_IUS12,2020.1.2,Win32,60,,,,,,,,,,,,,,,,0,1,,,0,,0,21,21,28,1,,,,,,,,,,,,,,,,,,,,,,,,,,,,,,
,,,,,,,,,,,,,,,,,,,,,,,,,,,,,,,,,,,,,,,,,,,,,,,,,,,,,space,271525,25,2020-08-05_21h25.57.124,CDT_GNG_IUS12,2020.1.2,Win32,60,,,,,,,,,,,,,,,,0,1,,space,1,0.30628,0,22,22,38,1,,,,,,,,,,,,,,,,,,,,,,,,,,,,,,
,,,,,,,,,,,,,,,,,,,,,,,,,,,,,,,,,,,,,,,,,,,,,,,,,,,,,,271525,25,2020-08-05_21h25.57.124,CDT_GNG_IUS12,2020.1.2,Win32,60,,,,,,,,,,,,,,,,1,0,,,1,,0,23,23,0,1,,,,,,,,,,,,,,,,,,,,,,,,,,,,,,
,,,,,,,,,,,,,,,,,,,,,,,,,,,,,,,,,,,,,,,,,,,,,,,,,,,,,,271525,25,2020-08-05_21h25.57.124,CDT_GNG_IUS12,2020.1.2,Win32,60,,,,,,,,,,,,,,,,1,0,,,1,,0,24,24,1,1,,,,,,,,,,,,,,,,,,,,,,,,,,,,,,
,,,,,,,,,,,,,,,,,,,,,,,,,,,,,,,,,,,,,,,,,,,,,,,,,,,,,space,271525,25,2020-08-05_21h25.57.124,CDT_GNG_IUS12,2020.1.2,Win32,60,,,,,,,,,,,,,,,,0,1,,space,1,0.494815,0,25,25,35,1,,,,,,,,,,,,,,,,,,,,,,,,,,,,,,
,,,,,,,,,,,,,,,,,,,,,,,,,,,,,,,,,,,,,,,,,,,,,,,,,,,,,,271525,25,2020-08-05_21h25.57.124,CDT_GNG_IUS12,2020.1.2,Win32,60,,,,,,,,,,,,,,,,1,0,,,1,,0,26,26,3,1,,,,,,,,,,,,,,,,,,,,,,,,,,,,,,
,,,,,,,,,,,,,,,,,,,,,,,,,,,,,,,,,,,,,,,,,,,,,,,,,,,,,space,271525,25,2020-08-05_21h25.57.124,CDT_GNG_IUS12,2020.1.2,Win32,60,,,,,,,,,,,,,,,,0,1,,,0,,0,27,27,30,1,,,,,,,,,,,,,,,,,,,,,,,,,,,,,,
,,,,,,,,,,,,,,,,,,,,,,,,,,,,,,,,,,,,,,,,,,,,,,,,,,,,,space,271525,25,2020-08-05_21h25.57.124,CDT_GNG_IUS12,2020.1.2,Win32,60,,,,,,,,,,,,,,,,0,1,,space,1,0.15113,0,28,28,34,1,,,,,,,,,,,,,,,,,,,,,,,,,,,,,,
,,,,,,,,,,,,,,,,,,,,,,,,,,,,,,,,,,,,,,,,,,,,,,,,,,,,,space,271525,25,2020-08-05_21h25.57.124,CDT_GNG_IUS12,2020.1.2,Win32,60,,,,,,,,,,,,,,,,0,1,,space,1,0.485365,0,29,29,25,1,,,,,,,,,,,,,,,,,,,,,,,,,,,,,,
,,,,,,,,,,,,,,,,,,,,,,,,,,,,,,,,,,,,,,,,,,,,,,,,,,,,,space,271525,25,2020-08-05_21h25.57.124,CDT_GNG_IUS12,2020.1.2,Win32,60,,,,,,,,,,,,,,,,0,1,,space,1,0.4092,0,30,30,39,1,,,,,,,,,,,,,,,,,,,,,,,,,,,,,,
,,,,,,,,,,,,,,,,,,,,,,,,,,,,,,,,,,,,,,,,,,,,,,,,,,,,,space,271525,25,2020-08-05_21h25.57.124,CDT_GNG_IUS12,2020.1.2,Win32,60,,,,,,,,,,,,,,,,0,1,,space,1,0.346525,0,31,31,18,1,,,,,,,,,,,,,,,,,,,,,,,,,,,,,,
,,,,,,,,,,,,,,,,,,,,,,,,,,,,,,,,,,,,,,,,,,,,,,,,,,,,,space,271525,25,2020-08-05_21h25.57.124,CDT_GNG_IUS12,2020.1.2,Win32,60,,,,,,,,,,,,,,,,0,1,,space,1,0.385115,0,32,32,40,1,,,,,,,,,,,,,,,,,,,,,,,,,,,,,,
,,,,,,,,,,,,,,,,,,,,,,,,,,,,,,,,,,,,,,,,,,,,,,,,,,,,,space,271525,25,2020-08-05_21h25.57.124,CDT_GNG_IUS12,2020.1.2,Win32,60,,,,,,,,,,,,,,,,0,1,,space,1,0.412465,0,33,33,44,1,,,,,,,,,,,,,,,,,,,,,,,,,,,,,,
,,,,,,,,,,,,,,,,,,,,,,,,,,,,,,,,,,,,,,,,,,,,,,,,,,,,,,271525,25,2020-08-05_21h25.57.124,CDT_GNG_IUS12,2020.1.2,Win32,60,,,,,,,,,,,,,,,,1,0,,,1,,0,34,34,2,1,,,,,,,,,,,,,,,,,,,,,,,,,,,,,,
,,,,,,,,,,,,,,,,,,,,,,,,,,,,,,,,,,,,,,,,,,,,,,,,,,,,,space,271525,25,2020-08-05_21h25.57.124,CDT_GNG_IUS12,2020.1.2,Win32,60,,,,,,,,,,,,,,,,0,1,,,0,,0,35,35,21,1,,,,,,,,,,,,,,,,,,,,,,,,,,,,,,
,,,,,,,,,,,,,,,,,,,,,,,,,,,,,,,,,,,,,,,,,,,,,,,,,,,,,space,271525,25,2020-08-05_21h25.57.124,CDT_GNG_IUS12,2020.1.2,Win32,60,,,,,,,,,,,,,,,,0,1,,space,1,0.236945,0,36,36,43,1,,,,,,,,,,,,,,,,,,,,,,,,,,,,,,
,,,,,,,,,,,,,,,,,,,,,,,,,,,,,,,,,,,,,,,,,,,,,,,,,,,,,space,271525,25,2020-08-05_21h25.57.124,CDT_GNG_IUS12,2020.1.2,Win32,60,,,,,,,,,,,,,,,,0,1,,space,1,0.2602,0,37,37,10,1,,,,,,,,,,,,,,,,,,,,,,,,,,,,,,
,,,,,,,,,,,,,,,,,,,,,,,,,,,,,,,,,,,,,,,,,,,,,,,,,,,,,space,271525,25,2020-08-05_21h25.57.124,CDT_GNG_IUS12,2020.1.2,Win32,60,,,,,,,,,,,,,,,,0,1,,space,1,0.39364,0,38,38,11,1,,,,,,,,,,,,,,,,,,,,,,,,,,,,,,
,,,,,,,,,,,,,,,,,,,,,,,,,,,,,,,,,,,,,,,,,,,,,,,,,,,,,space,271525,25,2020-08-05_21h25.57.124,CDT_GNG_IUS12,2020.1.2,Win32,60,,,,,,,,,,,,,,,,0,1,,space,1,0.31281,0,39,39,31,1,,,,,,,,,,,,,,,,,,,,,,,,,,,,,,
,,,,,,,,,,,,,,,,,,,,,,,,,,,,,,,,,,,,,,,,,,,,,,,,,,,,,space,271525,25,2020-08-05_21h25.57.124,CDT_GNG_IUS12,2020.1.2,Win32,60,,,,,,,,,,,,,,,,0,1,,space,1,0.30726,0,40,40,20,1,,,,,,,,,,,,,,,,,,,,,,,,,,,,,,
,,,,,,,,,,,,,,,,,,,,,,,,,,,,,,,,,,,,,,,,,,,,,,,,,,,,,,271525,25,2020-08-05_21h25.57.124,CDT_GNG_IUS12,2020.1.2,Win32,60,,,,,,,,,,,,,,,,1,0,,,1,,0,41,41,6,1,,,,,,,,,,,,,,,,,,,,,,,,,,,,,,
,,,,,,,,,,,,,,,,,,,,,,,,,,,,,,,,,,,,,,,,,,,,,,,,,,,,,,271525,25,2020-08-05_21h25.57.124,CDT_GNG_IUS12,2020.1.2,Win32,60,,,,,,,,,,,,,,,,1,0,,,1,,0,42,42,7,1,,,,,,,,,,,,,,,,,,,,,,,,,,,,,,
,,,,,,,,,,,,,,,,,,,,,,,,,,,,,,,,,,,,,,,,,,,,,,,,,,,,,space,271525,25,2020-08-05_21h25.57.124,CDT_GNG_IUS12,2020.1.2,Win32,60,,,,,,,,,,,,,,,,0,1,,,0,,0,43,43,48,1,,,,,,,,,,,,,,,,,,,,,,,,,,,,,,
,,,,,,,,,,,,,,,,,,,,,,,,,,,,,,,,,,,,,,,,,,,,,,,,,,,,,space,271525,25,2020-08-05_21h25.57.124,CDT_GNG_IUS12,2020.1.2,Win32,60,,,,,,,,,,,,,,,,0,1,,,0,,0,44,44,29,1,,,,,,,,,,,,,,,,,,,,,,,,,,,,,,
,,,,,,,,,,,,,,,,,,,,,,,,,,,,,,,,,,,,,,,,,,,,,,,,,,,,,,271525,25,2020-08-05_21h25.57.124,CDT_GNG_IUS12,2020.1.2,Win32,60,,,,,,,,,,,,,,,,1,0,,space,0,0.20148,0,45,45,8,1,,,,,,,,,,,,,,,,,,,,,,,,,,,,,,
,,,,,,,,,,,,,,,,,,,,,,,,,,,,,,,,,,,,,,,,,,,,,,,,,,,,,space,271525,25,2020-08-05_21h25.57.124,CDT_GNG_IUS12,2020.1.2,Win32,60,,,,,,,,,,,,,,,,0,1,,,0,,0,46,46,13,1,,,,,,,,,,,,,,,,,,,,,,,,,,,,,,
,,,,,,,,,,,,,,,,,,,,,,,,,,,,,,,,,,,,,,,,,,,,,,,,,,,,,space,271525,25,2020-08-05_21h25.57.124,CDT_GNG_IUS12,2020.1.2,Win32,60,,,,,,,,,,,,,,,,0,1,,space,1,0.35942,0,47,47,49,1,,,,,,,,,,,,,,,,,,,,,,,,,,,,,,
,,,,,,,,,,,,,,,,,,,,,,,,,,,,,,,,,,,,,,,,,,,,,,,,,,,,,space,271525,25,2020-08-05_21h25.57.124,CDT_GNG_IUS12,2020.1.2,Win32,60,,,,,,,,,,,,,,,,0,1,,space,1,0.52636,0,48,48,32,1,,,,,,,,,,,,,,,,,,,,,,,,,,,,,,
,,,,,,,,,,,,,,,,,,,,,,,,,,,,,,,,,,,,,,,,,,,,,,,,,,,,,space,271525,25,2020-08-05_21h25.57.124,CDT_GNG_IUS12,2020.1.2,Win32,60,,,,,,,,,,,,,,,,0,1,,space,1,0.41974,0,49,49,22,1,,,,,,,,,,,,,,,,,,,,,,,,,,,,,,
,,,,,,,,,,,,,,,,,,,,,,,,,,,,,,,,,,,,,,,,,,,,,,,,,,,,,space,271525,25,2020-08-05_21h25.57.124,CDT_GNG_IUS12,2020.1.2,Win32,60,,,,,,,,,,,,,,,,0,1,,space,1,0.282825,,,,,,0,0,0,40,1,,,,,,,,,,,,,,,,,,,,,,,,,
,,,,,,,,,,,,,,,,,,,,,,,,,,,,,,,,,,,,,,,,,,,,,,,,,,,,,space,271525,25,2020-08-05_21h25.57.124,CDT_GNG_IUS12,2020.1.2,Win32,60,,,,,,,,,,,,,,,,0,1,,space,1,0.23588,,,,,,0,1,1,11,1,,,,,,,,,,,,,,,,,,,,,,,,,
,,,,,,,,,,,,,,,,,,,,,,,,,,,,,,,,,,,,,,,,,,,,,,,,,,,,,space,271525,25,2020-08-05_21h25.57.124,CDT_GNG_IUS12,2020.1.2,Win32,60,,,,,,,,,,,,,,,,0,1,,space,1,0.11828,,,,,,0,2,2,33,1,,,,,,,,,,,,,,,,,,,,,,,,,
,,,,,,,,,,,,,,,,,,,,,,,,,,,,,,,,,,,,,,,,,,,,,,,,,,,,,space,271525,25,2020-08-05_21h25.57.124,CDT_GNG_IUS12,2020.1.2,Win32,60,,,,,,,,,,,,,,,,0,1,,space,1,0.06808,,,,,,0,3,3,15,1,,,,,,,,,,,,,,,,,,,,,,,,,
,,,,,,,,,,,,,,,,,,,,,,,,,,,,,,,,,,,,,,,,,,,,,,,,,,,,,space,271525,25,2020-08-05_21h25.57.124,CDT_GNG_IUS12,2020.1.2,Win32,60,,,,,,,,,,,,,,,,0,1,,space,1,0.047035,,,,,,0,4,4,46,1,,,,,,,,,,,,,,,,,,,,,,,,,
,,,,,,,,,,,,,,,,,,,,,,,,,,,,,,,,,,,,,,,,,,,,,,,,,,,,,,271525,25,2020-08-05_21h25.57.124,CDT_GNG_IUS12,2020.1.2,Win32,60,,,,,,,,,,,,,,,,1,0,,space,0,0.070675,,,,,,0,5,5,0,1,,,,,,,,,,,,,,,,,,,,,,,,,
,,,,,,,,,,,,,,,,,,,,,,,,,,,,,,,,,,,,,,,,,,,,,,,,,,,,,space,271525,25,2020-08-05_21h25.57.124,CDT_GNG_IUS12,2020.1.2,Win32,60,,,,,,,,,,,,,,,,0,1,,space,1,0.36549,,,,,,0,6,6,41,1,,,,,,,,,,,,,,,,,,,,,,,,,
,,,,,,,,,,,,,,,,,,,,,,,,,,,,,,,,,,,,,,,,,,,,,,,,,,,,,space,271525,25,2020-08-05_21h25.57.124,CDT_GNG_IUS12,2020.1.2,Win32,60,,,,,,,,,,,,,,,,0,1,,space,1,0.277065,,,,,,0,7,7,31,1,,,,,,,,,,,,,,,,,,,,,,,,,
,,,,,,,,,,,,,,,,,,,,,,,,,,,,,,,,,,,,,,,,,,,,,,,,,,,,,space,271525,25,2020-08-05_21h25.57.124,CDT_GNG_IUS12,2020.1.2,Win32,60,,,,,,,,,,,,,,,,0,1,,space,1,0.27065,,,,,,0,8,8,44,1,,,,,,,,,,,,,,,,,,,,,,,,,
,,,,,,,,,,,,,,,,,,,,,,,,,,,,,,,,,,,,,,,,,,,,,,,,,,,,,space,271525,25,2020-08-05_21h25.57.124,CDT_GNG_IUS12,2020.1.2,Win32,60,,,,,,,,,,,,,,,,0,1,,space,1,0.30031,,,,,,0,9,9,25,1,,,,,,,,,,,,,,,,,,,,,,,,,
,,,,,,,,,,,,,,,,,,,,,,,,,,,,,,,,,,,,,,,,,,,,,,,,,,,,,space,271525,25,2020-08-05_21h25.57.124,CDT_GNG_IUS12,2020.1.2,Win32,60,,,,,,,,,,,,,,,,0,1,,space,1,0.27775,,,,,,0,10,10,19,1,,,,,,,,,,,,,,,,,,,,,,,,,
,,,,,,,,,,,,,,,,,,,,,,,,,,,,,,,,,,,,,,,,,,,,,,,,,,,,,,271525,25,2020-08-05_21h25.57.124,CDT_GNG_IUS12,2020.1.2,Win32,60,,,,,,,,,,,,,,,,1,0,,,1,,,,,,,0,11,11,3,1,,,,,,,,,,,,,,,,,,,,,,,,,
,,,,,,,,,,,,,,,,,,,,,,,,,,,,,,,,,,,,,,,,,,,,,,,,,,,,,,271525,25,2020-08-05_21h25.57.124,CDT_GNG_IUS12,2020.1.2,Win32,60,,,,,,,,,,,,,,,,1,0,,,1,,,,,,,0,12,12,9,1,,,,,,,,,,,,,,,,,,,,,,,,,
,,,,,,,,,,,,,,,,,,,,,,,,,,,,,,,,,,,,,,,,,,,,,,,,,,,,,,271525,25,2020-08-05_21h25.57.124,CDT_GNG_IUS12,2020.1.2,Win32,60,,,,,,,,,,,,,,,,1,0,,,1,,,,,,,0,13,13,1,1,,,,,,,,,,,,,,,,,,,,,,,,,
,,,,,,,,,,,,,,,,,,,,,,,,,,,,,,,,,,,,,,,,,,,,,,,,,,,,,space,271525,25,2020-08-05_21h25.57.124,CDT_GNG_IUS12,2020.1.2,Win32,60,,,,,,,,,,,,,,,,0,1,,space,1,0.401025,,,,,,0,14,14,20,1,,,,,,,,,,,,,,,,,,,,,,,,,
,,,,,,,,,,,,,,,,,,,,,,,,,,,,,,,,,,,,,,,,,,,,,,,,,,,,,space,271525,25,2020-08-05_21h25.57.124,CDT_GNG_IUS12,2020.1.2,Win32,60,,,,,,,,,,,,,,,,0,1,,space,1,0.266635,,,,,,0,15,15,28,1,,,,,,,,,,,,,,,,,,,,,,,,,
,,,,,,,,,,,,,,,,,,,,,,,,,,,,,,,,,,,,,,,,,,,,,,,,,,,,,space,271525,25,2020-08-05_21h25.57.124,CDT_GNG_IUS12,2020.1.2,Win32,60,,,,,,,,,,,,,,,,0,1,,space,1,0.241225,,,,,,0,16,16,37,1,,,,,,,,,,,,,,,,,,,,,,,,,
,,,,,,,,,,,,,,,,,,,,,,,,,,,,,,,,,,,,,,,,,,,,,,,,,,,,,space,271525,25,2020-08-05_21h25.57.124,CDT_GNG_IUS12,2020.1.2,Win32,60,,,,,,,,,,,,,,,,0,1,,space,1,0.19874,,,,,,0,17,17,48,1,,,,,,,,,,,,,,,,,,,,,,,,,
,,,,,,,,,,,,,,,,,,,,,,,,,,,,,,,,,,,,,,,,,,,,,,,,,,,,,space,271525,25,2020-08-05_21h25.57.124,CDT_GNG_IUS12,2020.1.2,Win32,60,,,,,,,,,,,,,,,,0,1,,space,1,0.168815,,,,,,0,18,18,45,1,,,,,,,,,,,,,,,,,,,,,,,,,
,,,,,,,,,,,,,,,,,,,,,,,,,,,,,,,,,,,,,,,,,,,,,,,,,,,,,space,271525,25,2020-08-05_21h25.57.124,CDT_GNG_IUS12,2020.1.2,Win32,60,,,,,,,,,,,,,,,,0,1,,space,1,0.09614,,,,,,0,19,19,18,1,,,,,,,,,,,,,,,,,,,,,,,,,
,,,,,,,,,,,,,,,,,,,,,,,,,,,,,,,,,,,,,,,,,,,,,,,,,,,,,space,271525,25,2020-08-05_21h25.57.124,CDT_GNG_IUS12,2020.1.2,Win32,60,,,,,,,,,,,,,,,,0,1,,space,1,0.0348,,,,,,0,20,20,14,1,,,,,,,,,,,,,,,,,,,,,,,,,
,,,,,,,,,,,,,,,,,,,,,,,,,,,,,,,,,,,,,,,,,,,,,,,,,,,,,space,271525,25,2020-08-05_21h25.57.124,CDT_GNG_IUS12,2020.1.2,Win32,60,,,,,,,,,,,,,,,,0,1,,space,1,0.49228,,,,,,0,21,21,43,1,,,,,,,,,,,,,,,,,,,,,,,,,
,,,,,,,,,,,,,,,,,,,,,,,,,,,,,,,,,,,,,,,,,,,,,,,,,,,,,space,271525,25,2020-08-05_21h25.57.124,CDT_GNG_IUS12,2020.1.2,Win32,60,,,,,,,,,,,,,,,,0,1,,space,1,0.482715,,,,,,0,22,22,26,1,,,,,,,,,,,,,,,,,,,,,,,,,
,,,,,,,,,,,,,,,,,,,,,,,,,,,,,,,,,,,,,,,,,,,,,,,,,,,,,space,271525,25,2020-08-05_21h25.57.124,CDT_GNG_IUS12,2020.1.2,Win32,60,,,,,,,,,,,,,,,,0,1,,space,1,0.44089,,,,,,0,23,23,36,1,,,,,,,,,,,,,,,,,,,,,,,,,
,,,,,,,,,,,,,,,,,,,,,,,,,,,,,,,,,,,,,,,,,,,,,,,,,,,,,space,271525,25,2020-08-05_21h25.57.124,CDT_GNG_IUS12,2020.1.2,Win32,60,,,,,,,,,,,,,,,,0,1,,space,1,0.375095,,,,,,0,24,24,35,1,,,,,,,,,,,,,,,,,,,,,,,,,
,,,,,,,,,,,,,,,,,,,,,,,,,,,,,,,,,,,,,,,,,,,,,,,,,,,,,space,271525,25,2020-08-05_21h25.57.124,CDT_GNG_IUS12,2020.1.2,Win32,60,,,,,,,,,,,,,,,,0,1,,space,1,0.39941,,,,,,0,25,25,13,1,,,,,,,,,,,,,,,,,,,,,,,,,
,,,,,,,,,,,,,,,,,,,,,,,,,,,,,,,,,,,,,,,,,,,,,,,,,,,,,space,271525,25,2020-08-05_21h25.57.124,CDT_GNG_IUS12,2020.1.2,Win32,60,,,,,,,,,,,,,,,,0,1,,space,1,0.36378,,,,,,0,26,26,24,1,,,,,,,,,,,,,,,,,,,,,,,,,
,,,,,,,,,,,,,,,,,,,,,,,,,,,,,,,,,,,,,,,,,,,,,,,,,,,,,space,271525,25,2020-08-05_21h25.57.124,CDT_GNG_IUS12,2020.1.2,Win32,60,,,,,,,,,,,,,,,,0,1,,space,1,0.310495,,,,,,0,27,27,49,1,,,,,,,,,,,,,,,,,,,,,,,,,
,,,,,,,,,,,,,,,,,,,,,,,,,,,,,,,,,,,,,,,,,,,,,,,,,,,,,space,271525,25,2020-08-05_21h25.57.124,CDT_GNG_IUS12,2020.1.2,Win32,60,,,,,,,,,,,,,,,,0,1,,space,1,0.20053,,,,,,0,28,28,32,1,,,,,,,,,,,,,,,,,,,,,,,,,
,,,,,,,,,,,,,,,,,,,,,,,,,,,,,,,,,,,,,,,,,,,,,,,,,,,,,,271525,25,2020-08-05_21h25.57.124,CDT_GNG_IUS12,2020.1.2,Win32,60,,,,,,,,,,,,,,,,1,0,,,1,,,,,,,0,29,29,2,1,,,,,,,,,,,,,,,,,,,,,,,,,
,,,,,,,,,,,,,,,,,,,,,,,,,,,,,,,,,,,,,,,,,,,,,,,,,,,,,space,271525,25,2020-08-05_21h25.57.124,CDT_GNG_IUS12,2020.1.2,Win32,60,,,,,,,,,,,,,,,,0,1,,,0,,,,,,,0,30,30,29,1,,,,,,,,,,,,,,,,,,,,,,,,,
,,,,,,,,,,,,,,,,,,,,,,,,,,,,,,,,,,,,,,,,,,,,,,,,,,,,,space,271525,25,2020-08-05_21h25.57.124,CDT_GNG_IUS12,2020.1.2,Win32,60,,,,,,,,,,,,,,,,0,1,,space,1,0.341395,,,,,,0,31,31,17,1,,,,,,,,,,,,,,,,,,,,,,,,,
,,,,,,,,,,,,,,,,,,,,,,,,,,,,,,,,,,,,,,,,,,,,,,,,,,,,,space,271525,25,2020-08-05_21h25.57.124,CDT_GNG_IUS12,2020.1.2,Win32,60,,,,,,,,,,,,,,,,0,1,,space,1,0.306365,,,,,,0,32,32,21,1,,,,,,,,,,,,,,,,,,,,,,,,,
,,,,,,,,,,,,,,,,,,,,,,,,,,,,,,,,,,,,,,,,,,,,,,,,,,,,,,271525,25,2020-08-05_21h25.57.124,CDT_GNG_IUS12,2020.1.2,Win32,60,,,,,,,,,,,,,,,,1,0,,,1,,,,,,,0,33,33,5,1,,,,,,,,,,,,,,,,,,,,,,,,,
,,,,,,,,,,,,,,,,,,,,,,,,,,,,,,,,,,,,,,,,,,,,,,,,,,,,,space,271525,25,2020-08-05_21h25.57.124,CDT_GNG_IUS12,2020.1.2,Win32,60,,,,,,,,,,,,,,,,0,1,,,0,,,,,,,0,34,34,39,1,,,,,,,,,,,,,,,,,,,,,,,,,
,,,,,,,,,,,,,,,,,,,,,,,,,,,,,,,,,,,,,,,,,,,,,,,,,,,,,,271525,25,2020-08-05_21h25.57.124,CDT_GNG_IUS12,2020.1.2,Win32,60,,,,,,,,,,,,,,,,1,0,,space,0,0.115545,,,,,,0,35,35,8,1,,,,,,,,,,,,,,,,,,,,,,,,,
,,,,,,,,,,,,,,,,,,,,,,,,,,,,,,,,,,,,,,,,,,,,,,,,,,,,,space,271525,25,2020-08-05_21h25.57.124,CDT_GNG_IUS12,2020.1.2,Win32,60,,,,,,,,,,,,,,,,0,1,,,0,,,,,,,0,36,36,47,1,,,,,,,,,,,,,,,,,,,,,,,,,
,,,,,,,,,,,,,,,,,,,,,,,,,,,,,,,,,,,,,,,,,,,,,,,,,,,,,space,271525,25,2020-08-05_21h25.57.124,CDT_GNG_IUS12,2020.1.2,Win32,60,,,,,,,,,,,,,,,,0,1,,space,1,0.16683,,,,,,0,37,37,34,1,,,,,,,,,,,,,,,,,,,,,,,,,
,,,,,,,,,,,,,,,,,,,,,,,,,,,,,,,,,,,,,,,,,,,,,,,,,,,,,space,271525,25,2020-08-05_21h25.57.124,CDT_GNG_IUS12,2020.1.2,Win32,60,,,,,,,,,,,,,,,,0,1,,space,1,0.11927,,,,,,0,38,38,42,1,,,,,,,,,,,,,,,,,,,,,,,,,
,,,,,,,,,,,,,,,,,,,,,,,,,,,,,,,,,,,,,,,,,,,,,,,,,,,,,space,271525,25,2020-08-05_21h25.57.124,CDT_GNG_IUS12,2020.1.2,Win32,60,,,,,,,,,,,,,,,,0,1,,space,1,0.097175,,,,,,0,39,39,27,1,,,,,,,,,,,,,,,,,,,,,,,,,
,,,,,,,,,,,,,,,,,,,,,,,,,,,,,,,,,,,,,,,,,,,,,,,,,,,,,space,271525,25,2020-08-05_21h25.57.124,CDT_GNG_IUS12,2020.1.2,Win32,60,,,,,,,,,,,,,,,,0,1,,space,1,0.051105,,,,,,0,40,40,38,1,,,,,,,,,,,,,,,,,,,,,,,,,
,,,,,,,,,,,,,,,,,,,,,,,,,,,,,,,,,,,,,,,,,,,,,,,,,,,,,,271525,25,2020-08-05_21h25.57.124,CDT_GNG_IUS12,2020.1.2,Win32,60,,,,,,,,,,,,,,,,1,0,,space,0,0.01578,,,,,,0,41,41,7,1,,,,,,,,,,,,,,,,,,,,,,,,,
,,,,,,,,,,,,,,,,,,,,,,,,,,,,,,,,,,,,,,,,,,,,,,,,,,,,,space,271525,25,2020-08-05_21h25.57.124,CDT_GNG_IUS12,2020.1.2,Win32,60,,,,,,,,,,,,,,,,0,1,,,0,,,,,,,0,42,42,30,1,,,,,,,,,,,,,,,,,,,,,,,,,
,,,,,,,,,,,,,,,,,,,,,,,,,,,,,,,,,,,,,,,,,,,,,,,,,,,,,,271525,25,2020-08-05_21h25.57.124,CDT_GNG_IUS12,2020.1.2,Win32,60,,,,,,,,,,,,,,,,1,0,,space,0,0.056415,,,,,,0,43,43,6,1,,,,,,,,,,,,,,,,,,,,,,,,,
,,,,,,,,,,,,,,,,,,,,,,,,,,,,,,,,,,,,,,,,,,,,,,,,,,,,,space,271525,25,2020-08-05_21h25.57.124,CDT_GNG_IUS12,2020.1.2,Win32,60,,,,,,,,,,,,,,,,0,1,,,0,,,,,,,0,44,44,10,1,,,,,,,,,,,,,,,,,,,,,,,,,
,,,,,,,,,,,,,,,,,,,,,,,,,,,,,,,,,,,,,,,,,,,,,,,,,,,,,space,271525,25,2020-08-05_21h25.57.124,CDT_GNG_IUS12,2020.1.2,Win32,60,,,,,,,,,,,,,,,,0,1,,space,1,0.50441,,,,,,0,45,45,23,1,,,,,,,,,,,,,,,,,,,,,,,,,
,,,,,,,,,,,,,,,,,,,,,,,,,,,,,,,,,,,,,,,,,,,,,,,,,,,,,space,271525,25,2020-08-05_21h25.57.124,CDT_GNG_IUS12,2020.1.2,Win32,60,,,,,,,,,,,,,,,,0,1,,space,1,0.416735,,,,,,0,46,46,22,1,,,,,,,,,,,,,,,,,,,,,,,,,
,,,,,,,,,,,,,,,,,,,,,,,,,,,,,,,,,,,,,,,,,,,,,,,,,,,,,space,271525,25,2020-08-05_21h25.57.124,CDT_GNG_IUS12,2020.1.2,Win32,60,,,,,,,,,,,,,,,,0,1,,space,1,0.396655,,,,,,0,47,47,16,1,,,,,,,,,,,,,,,,,,,,,,,,,
,,,,,,,,,,,,,,,,,,,,,,,,,,,,,,,,,,,,,,,,,,,,,,,,,,,,,space,271525,25,2020-08-05_21h25.57.124,CDT_GNG_IUS12,2020.1.2,Win32,60,,,,,,,,,,,,,,,,0,1,,space,1,0.31095,,,,,,0,48,48,12,1,,,,,,,,,,,,,,,,,,,,,,,,,
,,,,,,,,,,,,,,,,,,,,,,,,,,,,,,,,,,,,,,,,,,,,,,,,,,,,,,271525,25,2020-08-05_21h25.57.124,CDT_GNG_IUS12,2020.1.2,Win32,60,,,,,,,,,,,,,,,,1,0,,,1,,,,,,,0,49,49,4,1,,,,,,,,,,,,,,,,,,,,,,,,,
,,,,,,,,,,,,,,,,,,,,,,,,,,,,,,,,,,,,,,,,,,,,,,,,,,,,,space,271525,25,2020-08-05_21h25.57.124,CDT_GNG_IUS12,2020.1.2,Win32,60,,,,,,,,,,,,,,,,0,1,,space,1,0.29498,,,,,,,,,,,0,0,0,29,1,,,,,,,,,,,,,,,,,,,,
,,,,,,,,,,,,,,,,,,,,,,,,,,,,,,,,,,,,,,,,,,,,,,,,,,,,,space,271525,25,2020-08-05_21h25.57.124,CDT_GNG_IUS12,2020.1.2,Win32,60,,,,,,,,,,,,,,,,0,1,,space,1,0.22293,,,,,,,,,,,0,1,1,48,1,,,,,,,,,,,,,,,,,,,,
,,,,,,,,,,,,,,,,,,,,,,,,,,,,,,,,,,,,,,,,,,,,,,,,,,,,,space,271525,25,2020-08-05_21h25.57.124,CDT_GNG_IUS12,2020.1.2,Win32,60,,,,,,,,,,,,,,,,0,1,,space,1,0.196895,,,,,,,,,,,0,2,2,14,1,,,,,,,,,,,,,,,,,,,,
,,,,,,,,,,,,,,,,,,,,,,,,,,,,,,,,,,,,,,,,,,,,,,,,,,,,,space,271525,25,2020-08-05_21h25.57.124,CDT_GNG_IUS12,2020.1.2,Win32,60,,,,,,,,,,,,,,,,0,1,,space,1,0.081785,,,,,,,,,,,0,3,3,27,1,,,,,,,,,,,,,,,,,,,,
,,,,,,,,,,,,,,,,,,,,,,,,,,,,,,,,,,,,,,,,,,,,,,,,,,,,,space,271525,25,2020-08-05_21h25.57.124,CDT_GNG_IUS12,2020.1.2,Win32,60,,,,,,,,,,,,,,,,0,1,,space,1,0.00061,,,,,,,,,,,0,4,4,13,1,,,,,,,,,,,,,,,,,,,,
,,,,,,,,,,,,,,,,,,,,,,,,,,,,,,,,,,,,,,,,,,,,,,,,,,,,,space,271525,25,2020-08-05_21h25.57.124,CDT_GNG_IUS12,2020.1.2,Win32,60,,,,,,,,,,,,,,,,0,1,,space,1,0.481305,,,,,,,,,,,0,5,5,18,1,,,,,,,,,,,,,,,,,,,,
,,,,,,,,,,,,,,,,,,,,,,,,,,,,,,,,,,,,,,,,,,,,,,,,,,,,,,271525,25,2020-08-05_21h25.57.124,CDT_GNG_IUS12,2020.1.2,Win32,60,,,,,,,,,,,,,,,,1,0,,,1,,,,,,,,,,,,0,6,6,2,1,,,,,,,,,,,,,,,,,,,,
,,,,,,,,,,,,,,,,,,,,,,,,,,,,,,,,,,,,,,,,,,,,,,,,,,,,,space,271525,25,2020-08-05_21h25.57.124,CDT_GNG_IUS12,2020.1.2,Win32,60,,,,,,,,,,,,,,,,0,1,,space,1,0.316755,,,,,,,,,,,0,7,7,33,1,,,,,,,,,,,,,,,,,,,,
,,,,,,,,,,,,,,,,,,,,,,,,,,,,,,,,,,,,,,,,,,,,,,,,,,,,,space,271525,25,2020-08-05_21h25.57.124,CDT_GNG_IUS12,2020.1.2,Win32,60,,,,,,,,,,,,,,,,0,1,,space,1,0.219735,,,,,,,,,,,0,8,8,39,1,,,,,,,,,,,,,,,,,,,,
,,,,,,,,,,,,,,,,,,,,,,,,,,,,,,,,,,,,,,,,,,,,,,,,,,,,,space,271525,25,2020-08-05_21h25.57.124,CDT_GNG_IUS12,2020.1.2,Win32,60,,,,,,,,,,,,,,,,0,1,,space,1,0.06453,,,,,,,,,,,0,9,9,11,1,,,,,,,,,,,,,,,,,,,,
,,,,,,,,,,,,,,,,,,,,,,,,,,,,,,,,,,,,,,,,,,,,,,,,,,,,,space,271525,25,2020-08-05_21h25.57.124,CDT_GNG_IUS12,2020.1.2,Win32,60,,,,,,,,,,,,,,,,0,1,,space,1,0.483535,,,,,,,,,,,0,10,10,38,1,,,,,,,,,,,,,,,,,,,,
,,,,,,,,,,,,,,,,,,,,,,,,,,,,,,,,,,,,,,,,,,,,,,,,,,,,,space,271525,25,2020-08-05_21h25.57.124,CDT_GNG_IUS12,2020.1.2,Win32,60,,,,,,,,,,,,,,,,0,1,,space,1,0.398845,,,,,,,,,,,0,11,11,34,1,,,,,,,,,,,,,,,,,,,,
,,,,,,,,,,,,,,,,,,,,,,,,,,,,,,,,,,,,,,,,,,,,,,,,,,,,,space,271525,25,2020-08-05_21h25.57.124,CDT_GNG_IUS12,2020.1.2,Win32,60,,,,,,,,,,,,,,,,0,1,,space,1,0.38954,,,,,,,,,,,0,12,12,25,1,,,,,,,,,,,,,,,,,,,,
,,,,,,,,,,,,,,,,,,,,,,,,,,,,,,,,,,,,,,,,,,,,,,,,,,,,,space,271525,25,2020-08-05_21h25.57.124,CDT_GNG_IUS12,2020.1.2,Win32,60,,,,,,,,,,,,,,,,0,1,,space,1,0.300035,,,,,,,,,,,0,13,13,26,1,,,,,,,,,,,,,,,,,,,,
,,,,,,,,,,,,,,,,,,,,,,,,,,,,,,,,,,,,,,,,,,,,,,,,,,,,,,271525,25,2020-08-05_21h25.57.124,CDT_GNG_IUS12,2020.1.2,Win32,60,,,,,,,,,,,,,,,,1,0,,,1,,,,,,,,,,,,0,14,14,9,1,,,,,,,,,,,,,,,,,,,,
,,,,,,,,,,,,,,,,,,,,,,,,,,,,,,,,,,,,,,,,,,,,,,,,,,,,,space,271525,25,2020-08-05_21h25.57.124,CDT_GNG_IUS12,2020.1.2,Win32,60,,,,,,,,,,,,,,,,0,1,,,0,,,,,,,,,,,,0,15,15,12,1,,,,,,,,,,,,,,,,,,,,
,,,,,,,,,,,,,,,,,,,,,,,,,,,,,,,,,,,,,,,,,,,,,,,,,,,,,space,271525,25,2020-08-05_21h25.57.124,CDT_GNG_IUS12,2020.1.2,Win32,60,,,,,,,,,,,,,,,,0,1,,space,1,0.437485,,,,,,,,,,,0,16,16,24,1,,,,,,,,,,,,,,,,,,,,
,,,,,,,,,,,,,,,,,,,,,,,,,,,,,,,,,,,,,,,,,,,,,,,,,,,,,space,271525,25,2020-08-05_21h25.57.124,CDT_GNG_IUS12,2020.1.2,Win32,60,,,,,,,,,,,,,,,,0,1,,space,1,0.310375,,,,,,,,,,,0,17,17,49,1,,,,,,,,,,,,,,,,,,,,
,,,,,,,,,,,,,,,,,,,,,,,,,,,,,,,,,,,,,,,,,,,,,,,,,,,,,space,271525,25,2020-08-05_21h25.57.124,CDT_GNG_IUS12,2020.1.2,Win32,60,,,,,,,,,,,,,,,,0,1,,space,1,0.24632,,,,,,,,,,,0,18,18,19,1,,,,,,,,,,,,,,,,,,,,
,,,,,,,,,,,,,,,,,,,,,,,,,,,,,,,,,,,,,,,,,,,,,,,,,,,,,space,271525,25,2020-08-05_21h25.57.124,CDT_GNG_IUS12,2020.1.2,Win32,60,,,,,,,,,,,,,,,,0,1,,space,1,0.118395,,,,,,,,,,,0,19,19,42,1,,,,,,,,,,,,,,,,,,,,
,,,,,,,,,,,,,,,,,,,,,,,,,,,,,,,,,,,,,,,,,,,,,,,,,,,,,,271525,25,2020-08-05_21h25.57.124,CDT_GNG_IUS12,2020.1.2,Win32,60,,,,,,,,,,,,,,,,1,0,,,1,,,,,,,,,,,,0,20,20,4,1,,,,,,,,,,,,,,,,,,,,
,,,,,,,,,,,,,,,,,,,,,,,,,,,,,,,,,,,,,,,,,,,,,,,,,,,,,space,271525,25,2020-08-05_21h25.57.124,CDT_GNG_IUS12,2020.1.2,Win32,60,,,,,,,,,,,,,,,,0,1,,space,1,0.490015,,,,,,,,,,,0,21,21,17,1,,,,,,,,,,,,,,,,,,,,
,,,,,,,,,,,,,,,,,,,,,,,,,,,,,,,,,,,,,,,,,,,,,,,,,,,,,space,271525,25,2020-08-05_21h25.57.124,CDT_GNG_IUS12,2020.1.2,Win32,60,,,,,,,,,,,,,,,,0,1,,space,1,0.38673,,,,,,,,,,,0,22,22,32,1,,,,,,,,,,,,,,,,,,,,
,,,,,,,,,,,,,,,,,,,,,,,,,,,,,,,,,,,,,,,,,,,,,,,,,,,,,,271525,25,2020-08-05_21h25.57.124,CDT_GNG_IUS12,2020.1.2,Win32,60,,,,,,,,,,,,,,,,1,0,,,1,,,,,,,,,,,,0,23,23,5,1,,,,,,,,,,,,,,,,,,,,
,,,,,,,,,,,,,,,,,,,,,,,,,,,,,,,,,,,,,,,,,,,,,,,,,,,,,space,271525,25,2020-08-05_21h25.57.124,CDT_GNG_IUS12,2020.1.2,Win32,60,,,,,,,,,,,,,,,,0,1,,,0,,,,,,,,,,,,0,24,24,31,1,,,,,,,,,,,,,,,,,,,,
,,,,,,,,,,,,,,,,,,,,,,,,,,,,,,,,,,,,,,,,,,,,,,,,,,,,,space,271525,25,2020-08-05_21h25.57.124,CDT_GNG_IUS12,2020.1.2,Win32,60,,,,,,,,,,,,,,,,0,1,,space,1,0.131345,,,,,,,,,,,0,25,25,36,1,,,,,,,,,,,,,,,,,,,,
,,,,,,,,,,,,,,,,,,,,,,,,,,,,,,,,,,,,,,,,,,,,,,,,,,,,,space,271525,25,2020-08-05_21h25.57.124,CDT_GNG_IUS12,2020.1.2,Win32,60,,,,,,,,,,,,,,,,0,1,,space,1,0.521425,,,,,,,,,,,0,26,26,16,1,,,,,,,,,,,,,,,,,,,,
,,,,,,,,,,,,,,,,,,,,,,,,,,,,,,,,,,,,,,,,,,,,,,,,,,,,,space,271525,25,2020-08-05_21h25.57.124,CDT_GNG_IUS12,2020.1.2,Win32,60,,,,,,,,,,,,,,,,0,1,,,0,,,,,,,,,,,,0,27,27,43,1,,,,,,,,,,,,,,,,,,,,
,,,,,,,,,,,,,,,,,,,,,,,,,,,,,,,,,,,,,,,,,,,,,,,,,,,,,space,271525,25,2020-08-05_21h25.57.124,CDT_GNG_IUS12,2020.1.2,Win32,60,,,,,,,,,,,,,,,,0,1,,space,1,0.15653,,,,,,,,,,,0,28,28,23,1,,,,,,,,,,,,,,,,,,,,
,,,,,,,,,,,,,,,,,,,,,,,,,,,,,,,,,,,,,,,,,,,,,,,,,,,,,space,271525,25,2020-08-05_21h25.57.124,CDT_GNG_IUS12,2020.1.2,Win32,60,,,,,,,,,,,,,,,,0,1,,space,1,0.508145,,,,,,,,,,,0,29,29,41,1,,,,,,,,,,,,,,,,,,,,
,,,,,,,,,,,,,,,,,,,,,,,,,,,,,,,,,,,,,,,,,,,,,,,,,,,,,space,271525,25,2020-08-05_21h25.57.124,CDT_GNG_IUS12,2020.1.2,Win32,60,,,,,,,,,,,,,,,,0,1,,space,1,0.490755,,,,,,,,,,,0,30,30,15,1,,,,,,,,,,,,,,,,,,,,
,,,,,,,,,,,,,,,,,,,,,,,,,,,,,,,,,,,,,,,,,,,,,,,,,,,,,space,271525,25,2020-08-05_21h25.57.124,CDT_GNG_IUS12,2020.1.2,Win32,60,,,,,,,,,,,,,,,,0,1,,space,1,0.52053,,,,,,,,,,,0,31,31,37,1,,,,,,,,,,,,,,,,,,,,
,,,,,,,,,,,,,,,,,,,,,,,,,,,,,,,,,,,,,,,,,,,,,,,,,,,,,,271525,25,2020-08-05_21h25.57.124,CDT_GNG_IUS12,2020.1.2,Win32,60,,,,,,,,,,,,,,,,1,0,,,1,,,,,,,,,,,,0,32,32,1,1,,,,,,,,,,,,,,,,,,,,
,,,,,,,,,,,,,,,,,,,,,,,,,,,,,,,,,,,,,,,,,,,,,,,,,,,,,space,271525,25,2020-08-05_21h25.57.124,CDT_GNG_IUS12,2020.1.2,Win32,60,,,,,,,,,,,,,,,,0,1,,space,1,0.27986,,,,,,,,,,,0,33,33,47,1,,,,,,,,,,,,,,,,,,,,
,,,,,,,,,,,,,,,,,,,,,,,,,,,,,,,,,,,,,,,,,,,,,,,,,,,,,space,271525,25,2020-08-05_21h25.57.124,CDT_GNG_IUS12,2020.1.2,Win32,60,,,,,,,,,,,,,,,,0,1,,,0,,,,,,,,,,,,0,34,34,44,1,,,,,,,,,,,,,,,,,,,,
,,,,,,,,,,,,,,,,,,,,,,,,,,,,,,,,,,,,,,,,,,,,,,,,,,,,,space,271525,25,2020-08-05_21h25.57.124,CDT_GNG_IUS12,2020.1.2,Win32,60,,,,,,,,,,,,,,,,0,1,,space,1,0.188595,,,,,,,,,,,0,35,35,35,1,,,,,,,,,,,,,,,,,,,,
,,,,,,,,,,,,,,,,,,,,,,,,,,,,,,,,,,,,,,,,,,,,,,,,,,,,,space,271525,25,2020-08-05_21h25.57.124,CDT_GNG_IUS12,2020.1.2,Win32,60,,,,,,,,,,,,,,,,0,1,,space,1,0.134925,,,,,,,,,,,0,36,36,21,1,,,,,,,,,,,,,,,,,,,,
,,,,,,,,,,,,,,,,,,,,,,,,,,,,,,,,,,,,,,,,,,,,,,,,,,,,,,271525,25,2020-08-05_21h25.57.124,CDT_GNG_IUS12,2020.1.2,Win32,60,,,,,,,,,,,,,,,,1,0,,space,0,0.04072,,,,,,,,,,,0,37,37,7,1,,,,,,,,,,,,,,,,,,,,
,,,,,,,,,,,,,,,,,,,,,,,,,,,,,,,,,,,,,,,,,,,,,,,,,,,,,,271525,25,2020-08-05_21h25.57.124,CDT_GNG_IUS12,2020.1.2,Win32,60,,,,,,,,,,,,,,,,1,0,,,1,,,,,,,,,,,,0,38,38,0,1,,,,,,,,,,,,,,,,,,,,
,,,,,,,,,,,,,,,,,,,,,,,,,,,,,,,,,,,,,,,,,,,,,,,,,,,,,,271525,25,2020-08-05_21h25.57.124,CDT_GNG_IUS12,2020.1.2,Win32,60,,,,,,,,,,,,,,,,1,0,,,1,,,,,,,,,,,,0,39,39,3,1,,,,,,,,,,,,,,,,,,,,
,,,,,,,,,,,,,,,,,,,,,,,,,,,,,,,,,,,,,,,,,,,,,,,,,,,,,space,271525,25,2020-08-05_21h25.57.124,CDT_GNG_IUS12,2020.1.2,Win32,60,,,,,,,,,,,,,,,,0,1,,space,1,0.36974,,,,,,,,,,,0,40,40,28,1,,,,,,,,,,,,,,,,,,,,
,,,,,,,,,,,,,,,,,,,,,,,,,,,,,,,,,,,,,,,,,,,,,,,,,,,,,,271525,25,2020-08-05_21h25.57.124,CDT_GNG_IUS12,2020.1.2,Win32,60,,,,,,,,,,,,,,,,1,0,,space,0,0.158515,,,,,,,,,,,0,41,41,6,1,,,,,,,,,,,,,,,,,,,,
,,,,,,,,,,,,,,,,,,,,,,,,,,,,,,,,,,,,,,,,,,,,,,,,,,,,,space,271525,25,2020-08-05_21h25.57.124,CDT_GNG_IUS12,2020.1.2,Win32,60,,,,,,,,,,,,,,,,0,1,,,0,,,,,,,,,,,,0,42,42,22,1,,,,,,,,,,,,,,,,,,,,
,,,,,,,,,,,,,,,,,,,,,,,,,,,,,,,,,,,,,,,,,,,,,,,,,,,,,space,271525,25,2020-08-05_21h25.57.124,CDT_GNG_IUS12,2020.1.2,Win32,60,,,,,,,,,,,,,,,,0,1,,space,1,0.132775,,,,,,,,,,,0,43,43,30,1,,,,,,,,,,,,,,,,,,,,
,,,,,,,,,,,,,,,,,,,,,,,,,,,,,,,,,,,,,,,,,,,,,,,,,,,,,space,271525,25,2020-08-05_21h25.57.124,CDT_GNG_IUS12,2020.1.2,Win32,60,,,,,,,,,,,,,,,,0,1,,,0,,,,,,,,,,,,0,44,44,46,1,,,,,,,,,,,,,,,,,,,,
,,,,,,,,,,,,,,,,,,,,,,,,,,,,,,,,,,,,,,,,,,,,,,,,,,,,,space,271525,25,2020-08-05_21h25.57.124,CDT_GNG_IUS12,2020.1.2,Win32,60,,,,,,,,,,,,,,,,0,1,,space,1,0.01971,,,,,,,,,,,0,45,45,45,1,,,,,,,,,,,,,,,,,,,,
,,,,,,,,,,,,,,,,,,,,,,,,,,,,,,,,,,,,,,,,,,,,,,,,,,,,,space,271525,25,2020-08-05_21h25.57.124,CDT_GNG_IUS12,2020.1.2,Win32,60,,,,,,,,,,,,,,,,0,1,,space,1,0.032465,,,,,,,,,,,0,46,46,10,1,,,,,,,,,,,,,,,,,,,,
,,,,,,,,,,,,,,,,,,,,,,,,,,,,,,,,,,,,,,,,,,,,,,,,,,,,,space,271525,25,2020-08-05_21h25.57.124,CDT_GNG_IUS12,2020.1.2,Win32,60,,,,,,,,,,,,,,,,0,1,,space,1,0.033275,,,,,,,,,,,0,47,47,20,1,,,,,,,,,,,,,,,,,,,,
,,,,,,,,,,,,,,,,,,,,,,,,,,,,,,,,,,,,,,,,,,,,,,,,,,,,,space,271525,25,2020-08-05_21h25.57.124,CDT_GNG_IUS12,2020.1.2,Win32,60,,,,,,,,,,,,,,,,0,1,,space,1,0.46417,,,,,,,,,,,0,48,48,40,1,,,,,,,,,,,,,,,,,,,,
,,,,,,,,,,,,,,,,,,,,,,,,,,,,,,,,,,,,,,,,,,,,,,,,,,,,,,271525,25,2020-08-05_21h25.57.124,CDT_GNG_IUS12,2020.1.2,Win32,60,,,,,,,,,,,,,,,,1,0,,,1,,,,,,,,,,,,0,49,49,8,1,,,,,,,,,,,,,,,,,,,,
,,,,,,,,,,,,,,,,,,,,,,,,,,,,,,,,,,,,,,,,,,,,,,,,,,,,,,271525,25,2020-08-05_21h25.57.124,CDT_GNG_IUS12,2020.1.2,Win32,60,,,,,,,,,,,,,,,,,,,,,,,,,,,,,,,,,,,,,7.018518801,11.18989,0,0,0,0,1,1,"On a scale from 0 to 10, indicate your personal perception of your proficiency level for English (10 being the highest score)",,,,,,,,,,,
,,,,,,,,,,,,,,,,,,,,,,,,,,,,,,,,,,,,,,,,,,,,,,,,,,,,,,271525,25,2020-08-05_21h25.57.124,CDT_GNG_IUS12,2020.1.2,Win32,60,,,,,,,,,,,,,,,,,,,,,,,,,,,,,,,,,,,,,4.037036896,5.614005,0,1,1,1,1,2,"On a scale from 0 to 10, indicate how frequently you are exposed to English (10 being 'always', 0 being 'never')",,,,,,,,,,,
,,,,,,,,,,,,,,,,,,,,,,,,,,,,,,,,,,,,,,,,,,,,,,,,,,,,,,271525,25,2020-08-05_21h25.57.124,CDT_GNG_IUS12,2020.1.2,Win32,60,,,,,,,,,,,,,,,,,,,,,,,,,,,,,,,,,,,,,,,,,,,,,"On a scale from 0 to 10, indicate your personal perception of your proficiency level for English (10 being the highest score)",3.037037037,6.117285,0,0,0,0,1,1,Unforeseen events upset me greatly.,,
,,,,,,,,,,,,,,,,,,,,,,,,,,,,,,,,,,,,,,,,,,,,,,,,,,,,,,271525,25,2020-08-05_21h25.57.124,CDT_GNG_IUS12,2020.1.2,Win32,60,,,,,,,,,,,,,,,,,,,,,,,,,,,,,,,,,,,,,,,,,,,,,"On a scale from 0 to 10, indicate how frequently you are exposed to English (10 being 'always', 0 being 'never')",2.985185129,5.445665,0,1,1,1,1,2,It frustrates me not having all the information I need.,,
,,,,,,,,,,,,,,,,,,,,,,,,,,,,,,,,,,,,,,,,,,,,,,,,,,,,,,271525,25,2020-08-05_21h25.57.124,CDT_GNG_IUS12,2020.1.2,Win32,60,,,,,,,,,,,,,,,,,,,,,,,,,,,,,,,,,,,,,,,,,,,,,,3.948148092,6.24209,0,2,2,2,1,3,One should always look ahead so as to avoid surprises.,,
,,,,,,,,,,,,,,,,,,,,,,,,,,,,,,,,,,,,,,,,,,,,,,,,,,,,,,271525,25,2020-08-05_21h25.57.124,CDT_GNG_IUS12,2020.1.2,Win32,60,,,,,,,,,,,,,,,,,,,,,,,,,,,,,,,,,,,,,,,,,,,,,,3.951852021,5.887445,0,3,3,3,1,4,"A small, unforeseen event can spoil everything, even with the best of planning. ",,
,,,,,,,,,,,,,,,,,,,,,,,,,,,,,,,,,,,,,,,,,,,,,,,,,,,,,,271525,25,2020-08-05_21h25.57.124,CDT_GNG_IUS12,2020.1.2,Win32,60,,,,,,,,,,,,,,,,,,,,,,,,,,,,,,,,,,,,,,,,,,,,,,2.940740797,4.109805,0,4,4,4,1,5,I always want to know what the future has in store for me.,,
,,,,,,,,,,,,,,,,,,,,,,,,,,,,,,,,,,,,,,,,,,,,,,,,,,,,,,271525,25,2020-08-05_21h25.57.124,CDT_GNG_IUS12,2020.1.2,Win32,60,,,,,,,,,,,,,,,,,,,,,,,,,,,,,,,,,,,,,,,,,,,,,,1.951852021,2.80251,0,5,5,5,1,6,I can't stand being taken by surprise.,,
,,,,,,,,,,,,,,,,,,,,,,,,,,,,,,,,,,,,,,,,,,,,,,,,,,,,,,271525,25,2020-08-05_21h25.57.124,CDT_GNG_IUS12,2020.1.2,Win32,60,,,,,,,,,,,,,,,,,,,,,,,,,,,,,,,,,,,,,,,,,,,,,,3.040740684,3.82551,0,6,6,6,1,7,I should be able to organize everything in advance,,
,,,,,,,,,,,,,,,,,,,,,,,,,,,,,,,,,,,,,,,,,,,,,,,,,,,,,,271525,25,2020-08-05_21h25.57.124,CDT_GNG_IUS12,2020.1.2,Win32,60,,,,,,,,,,,,,,,,,,,,,,,,,,,,,,,,,,,,,,,,,,,,,,3.025926095,3.53648,0,7,7,7,1,8,Uncertainty keeps me from living a full life.,,
,,,,,,,,,,,,,,,,,,,,,,,,,,,,,,,,,,,,,,,,,,,,,,,,,,,,,,271525,25,2020-08-05_21h25.57.124,CDT_GNG_IUS12,2020.1.2,Win32,60,,,,,,,,,,,,,,,,,,,,,,,,,,,,,,,,,,,,,,,,,,,,,,3.018518519,9.20714,0,8,8,8,1,9,"When it's time to act, uncertainty paralyses me. ",,
,,,,,,,,,,,,,,,,,,,,,,,,,,,,,,,,,,,,,,,,,,,,,,,,,,,,,,271525,25,2020-08-05_21h25.57.124,CDT_GNG_IUS12,2020.1.2,Win32,60,,,,,,,,,,,,,,,,,,,,,,,,,,,,,,,,,,,,,,,,,,,,,,2.985185129,6.1329,0,9,9,9,1,10,"When I am uncertain, I can't function very well. ",,
,,,,,,,,,,,,,,,,,,,,,,,,,,,,,,,,,,,,,,,,,,,,,,,,,,,,,,271525,25,2020-08-05_21h25.57.124,CDT_GNG_IUS12,2020.1.2,Win32,60,,,,,,,,,,,,,,,,,,,,,,,,,,,,,,,,,,,,,,,,,,,,,,3.014814871,3.902245,0,10,10,10,1,11,The smallest doubt can stop me from acting. ,,
,,,,,,,,,,,,,,,,,,,,,,,,,,,,,,,,,,,,,,,,,,,,,,,,,,,,,,271525,25,2020-08-05_21h25.57.124,CDT_GNG_IUS12,2020.1.2,Win32,60,,,,,,,,,,,,,,,,,,,,,,,,,,,,,,,,,,,,,,,,,,,,,,1.992592706,5.800505,0,11,11,11,1,12,I must get away from all uncertain situations. ,,
,,,,,,,,,,,,,,,,,,,,,,,,,,,,,,,,,,,,,,,,,,,,,,,,,,,,,,271525,25,2020-08-05_21h25.57.124,CDT_GNG_IUS12,2020.1.2,Win32,60,,,,,,,,,,,,,,,,,,,,,,,,,,,,,,,,,,,,,,,,,,,,,,,,,,,,,,,x,297.311025
