key_resp_6.keys,key_resp_6.rt,Gender.keys,Gender.rt,key_resp_2.keys,key_resp_2.corr,key_resp_2.rt,CDT_trials_train.thisRepN,CDT_trials_train.thisTrialN,CDT_trials_train.thisN,CDT_trials_train.thisIndex,CDT_trials_train.ran,trialnum,condit,stimamt,stim1posx,stim1posy,stim1col,stim1opa,stim2posx,stim2posy,stim2col,stim2opa,stim3posx,stim3posy,stim3col,stim3opa,stim4posx,stim4posy,stim4col,stim4opa,stim5posx,stim5posy,stim5col,stim5opa,stim6posx,stim6posy,stim6col,stim6opa,stim7posx,stim7posy,stim7col,stim7opa,stim8posx,stim8posy,stim8col,stim8opa,stimsizex,stimsizey,stimdur,targetposx,targetposy,targetcol,corrAns,participant,age,date,expName,psychopyVersion,OS,frameRate,key_resp.keys,key_resp.corr,key_resp.rt,CDT_trials.thisRepN,CDT_trials.thisTrialN,CDT_trials.thisN,CDT_trials.thisIndex,CDT_trials.ran,trialResp_Train.keys,trialResp_Train.corr,GNGtrials_train.thisRepN,GNGtrials_train.thisTrialN,GNGtrials_train.thisN,GNGtrials_train.thisIndex,GNGtrials_train.ran,orangeOpacity,blueOpacity,trialResp_Train.rt,trialResp.keys,trialResp.corr,trialResp.rt,GNG_trials_1.thisRepN,GNG_trials_1.thisTrialN,GNG_trials_1.thisN,GNG_trials_1.thisIndex,GNG_trials_1.ran,GNG_trials_2.thisRepN,GNG_trials_2.thisTrialN,GNG_trials_2.thisN,GNG_trials_2.thisIndex,GNG_trials_2.ran,GNG_trials_3.thisRepN,GNG_trials_3.thisTrialN,GNG_trials_3.thisN,GNG_trials_3.thisIndex,GNG_trials_3.ran,slider_2.response,slider_2.rt,engprof_trials.thisRepN,engprof_trials.thisTrialN,engprof_trials.thisN,engprof_trials.thisIndex,engprof_trials.ran,qpnumber,qproficiency,slider.response,slider.rt,IUS12_trials.thisRepN,IUS12_trials.thisTrialN,IUS12_trials.thisN,IUS12_trials.thisIndex,IUS12_trials.ran,qnumber,qenglish,key_resp_end.keys,key_resp_end.rt
y,1.113,m,2.661,l,0,0.936,0,0,0,0,1,1,same,4,0.14,0.14,orange,1,0.14,-0.41,blue,1,-0.14,-0.27,cyan,1,-0.41,0.14,red,1,0.14,0.41,black,0,0.27,-0.27,green,0,-0.41,-0.27,magenta,0,-0.41,0.41,yellow,0,0.05,0.05,0.15,0.14,-0.41,blue,k,307342,23,2020-08-05_16h59.03.653,CDT_GNG_IUS12,2020.1.2,MacIntel,60,,,,,,,,,,,,,,,,,,,,,,,,,,,,,,,,,,,,,,,,,,,,,,,,,,,,,,,,
,,,,l,1,0.916,0,1,1,1,1,2,different,4,0.14,0.41,black,1,0.14,-0.41,green,1,-0.41,-0.27,orange,1,-0.27,0.41,magenta,1,0.14,0.27,red,0,0.41,-0.27,cyan,0,-0.27,-0.41,yellow,0,-0.27,0.27,blue,0,0.05,0.05,0.15,-0.27,0.41,red,l,307342,23,2020-08-05_16h59.03.653,CDT_GNG_IUS12,2020.1.2,MacIntel,60,,,,,,,,,,,,,,,,,,,,,,,,,,,,,,,,,,,,,,,,,,,,,,,,,,,,,,,,
,,,,k,1,0.974,0,2,2,2,1,3,same,8,0.27,0.41,yellow,1,0.14,-0.41,cyan,1,-0.14,-0.27,blue,1,-0.14,0.27,green,1,0.14,0.14,red,1,0.27,-0.27,black,1,-0.27,-0.27,magenta,1,-0.27,0.14,orange,1,0.05,0.05,0.15,-0.14,0.27,green,k,307342,23,2020-08-05_16h59.03.653,CDT_GNG_IUS12,2020.1.2,MacIntel,60,,,,,,,,,,,,,,,,,,,,,,,,,,,,,,,,,,,,,,,,,,,,,,,,,,,,,,,,
,,,,l,1,0.67,0,3,3,3,1,4,different,8,0.14,0.41,green,1,0.27,-0.14,red,1,-0.27,-0.14,black,1,-0.14,0.41,orange,1,0.41,0.27,blue,1,0.41,-0.27,magenta,1,-0.14,-0.14,cyan,1,-0.27,0.14,yellow,1,0.05,0.05,0.15,0.27,-0.14,cyan,l,307342,23,2020-08-05_16h59.03.653,CDT_GNG_IUS12,2020.1.2,MacIntel,60,,,,,,,,,,,,,,,,,,,,,,,,,,,,,,,,,,,,,,,,,,,,,,,,,,,,,,,,
,,,,,,,,,,,,36,different,4,0.41,0.27,magenta,1,0.27,-0.14,orange,1,-0.41,-0.41,yellow,1,-0.14,0.14,blue,1,0.14,0.41,green,0,0.27,-0.27,black,0,-0.41,-0.27,cyan,0,-0.41,0.41,red,0,0.05,0.05,0.15,0.27,-0.14,black,l,307342,23,2020-08-05_16h59.03.653,CDT_GNG_IUS12,2020.1.2,MacIntel,60,l,1,0.7,0,0,0,35,1,,,,,,,,,,,,,,,,,,,,,,,,,,,,,,,,,,,,,,,,,,,,,,,,
,,,,,,,,,,,,80,same,8,0.41,0.14,red,1,0.41,-0.14,blue,1,-0.41,-0.41,black,1,-0.41,0.14,green,1,0.14,0.41,orange,1,0.27,-0.41,cyan,1,-0.41,-0.14,magenta,1,-0.41,0.41,yellow,1,0.05,0.05,0.15,0.27,-0.41,cyan,k,307342,23,2020-08-05_16h59.03.653,CDT_GNG_IUS12,2020.1.2,MacIntel,60,l,0,1.251,0,1,1,79,1,,,,,,,,,,,,,,,,,,,,,,,,,,,,,,,,,,,,,,,,,,,,,,,,
,,,,,,,,,,,,63,same,8,0.27,0.27,magenta,1,0.27,-0.27,yellow,1,-0.27,-0.14,orange,1,-0.14,0.14,green,1,0.41,0.27,blue,1,0.41,-0.27,cyan,1,-0.41,-0.41,red,1,-0.41,0.27,black,1,0.05,0.05,0.15,0.27,0.27,magenta,k,307342,23,2020-08-05_16h59.03.653,CDT_GNG_IUS12,2020.1.2,MacIntel,60,l,0,1.024,0,2,2,62,1,,,,,,,,,,,,,,,,,,,,,,,,,,,,,,,,,,,,,,,,,,,,,,,,
,,,,,,,,,,,,49,different,4,0.27,0.14,green,1,0.41,-0.14,yellow,1,-0.27,-0.41,red,1,-0.14,0.14,cyan,1,0.14,0.14,blue,0,0.27,-0.27,black,0,-0.14,-0.41,orange,0,-0.41,0.14,magenta,0,0.05,0.05,0.15,0.27,0.14,yellow,l,307342,23,2020-08-05_16h59.03.653,CDT_GNG_IUS12,2020.1.2,MacIntel,60,l,1,0.933,0,3,3,48,1,,,,,,,,,,,,,,,,,,,,,,,,,,,,,,,,,,,,,,,,,,,,,,,,
,,,,,,,,,,,,76,same,8,0.14,0.27,orange,1,0.41,-0.14,cyan,1,-0.27,-0.27,blue,1,-0.14,0.14,black,1,0.27,0.41,green,1,0.27,-0.14,red,1,-0.27,-0.14,yellow,1,-0.27,0.27,magenta,1,0.05,0.05,0.15,0.41,-0.14,cyan,k,307342,23,2020-08-05_16h59.03.653,CDT_GNG_IUS12,2020.1.2,MacIntel,60,k,1,1.197,0,4,4,75,1,,,,,,,,,,,,,,,,,,,,,,,,,,,,,,,,,,,,,,,,,,,,,,,,
,,,,,,,,,,,,111,different,8,0.27,0.14,red,1,0.41,-0.27,green,1,-0.27,-0.14,yellow,1,-0.14,0.14,orange,1,0.41,0.41,black,1,0.27,-0.27,cyan,1,-0.27,-0.41,blue,1,-0.27,0.14,magenta,1,0.05,0.05,0.15,-0.27,-0.41,red,l,307342,23,2020-08-05_16h59.03.653,CDT_GNG_IUS12,2020.1.2,MacIntel,60,l,1,0.87,0,5,5,110,1,,,,,,,,,,,,,,,,,,,,,,,,,,,,,,,,,,,,,,,,,,,,,,,,
,,,,,,,,,,,,11,same,4,0.27,0.14,red,1,0.14,-0.14,cyan,1,-0.27,-0.41,blue,1,-0.27,0.14,yellow,1,0.27,0.27,green,0,0.41,-0.27,black,0,-0.41,-0.41,magenta,0,-0.41,0.14,orange,0,0.05,0.05,0.15,-0.27,-0.41,blue,k,307342,23,2020-08-05_16h59.03.653,CDT_GNG_IUS12,2020.1.2,MacIntel,60,l,0,1.021,0,6,6,10,1,,,,,,,,,,,,,,,,,,,,,,,,,,,,,,,,,,,,,,,,,,,,,,,,
,,,,,,,,,,,,5,same,4,0.27,0.27,blue,1,0.14,-0.14,orange,1,-0.27,-0.27,black,1,-0.27,0.41,magenta,1,0.27,0.41,green,0,0.14,-0.41,cyan,0,-0.27,-0.41,yellow,0,-0.27,0.14,red,0,0.05,0.05,0.15,0.14,-0.14,orange,k,307342,23,2020-08-05_16h59.03.653,CDT_GNG_IUS12,2020.1.2,MacIntel,60,l,0,0.917,0,7,7,4,1,,,,,,,,,,,,,,,,,,,,,,,,,,,,,,,,,,,,,,,,,,,,,,,,
,,,,,,,,,,,,43,different,4,0.27,0.27,red,1,0.14,-0.27,orange,1,-0.41,-0.14,green,1,-0.27,0.27,cyan,1,0.41,0.41,black,0,0.27,-0.14,magenta,0,-0.41,-0.41,yellow,0,-0.41,0.41,blue,0,0.05,0.05,0.15,-0.41,-0.14,magenta,l,307342,23,2020-08-05_16h59.03.653,CDT_GNG_IUS12,2020.1.2,MacIntel,60,l,1,0.934,0,8,8,42,1,,,,,,,,,,,,,,,,,,,,,,,,,,,,,,,,,,,,,,,,,,,,,,,,
,,,,,,,,,,,,86,same,8,0.41,0.27,magenta,1,0.14,-0.14,green,1,-0.14,-0.41,orange,1,-0.14,0.41,red,1,0.27,0.14,black,1,0.14,-0.41,cyan,1,-0.41,-0.27,yellow,1,-0.27,0.14,blue,1,0.05,0.05,0.15,0.14,-0.41,cyan,k,307342,23,2020-08-05_16h59.03.653,CDT_GNG_IUS12,2020.1.2,MacIntel,60,l,0,0.951,0,9,9,85,1,,,,,,,,,,,,,,,,,,,,,,,,,,,,,,,,,,,,,,,,,,,,,,,,
,,,,,,,,,,,,14,same,4,0.27,0.41,cyan,1,0.27,-0.41,black,1,-0.27,-0.27,yellow,1,-0.27,0.27,green,1,0.41,0.41,blue,0,0.14,-0.27,red,0,-0.14,-0.14,orange,0,-0.41,0.41,magenta,0,0.05,0.05,0.15,0.27,-0.41,black,k,307342,23,2020-08-05_16h59.03.653,CDT_GNG_IUS12,2020.1.2,MacIntel,60,l,0,1.199,0,10,10,13,1,,,,,,,,,,,,,,,,,,,,,,,,,,,,,,,,,,,,,,,,,,,,,,,,
,,,,,,,,,,,,47,different,4,0.27,0.27,magenta,1,0.41,-0.27,black,1,-0.14,-0.41,red,1,-0.14,0.41,green,1,0.41,0.41,cyan,0,0.27,-0.14,orange,0,-0.27,-0.14,blue,0,-0.27,0.14,yellow,0,0.05,0.05,0.15,0.27,0.27,blue,l,307342,23,2020-08-05_16h59.03.653,CDT_GNG_IUS12,2020.1.2,MacIntel,60,l,1,0.991,0,11,11,46,1,,,,,,,,,,,,,,,,,,,,,,,,,,,,,,,,,,,,,,,,,,,,,,,,
,,,,,,,,,,,,16,same,4,0.27,0.27,magenta,1,0.14,-0.14,orange,1,-0.14,-0.41,blue,1,-0.27,0.14,red,1,0.14,0.14,black,0,0.14,-0.27,green,0,-0.27,-0.27,yellow,0,-0.27,0.27,cyan,0,0.05,0.05,0.15,-0.27,0.14,red,k,307342,23,2020-08-05_16h59.03.653,CDT_GNG_IUS12,2020.1.2,MacIntel,60,k,1,0.785,0,12,12,15,1,,,,,,,,,,,,,,,,,,,,,,,,,,,,,,,,,,,,,,,,,,,,,,,,
,,,,,,,,,,,,109,different,8,0.41,0.14,yellow,1,0.27,-0.27,cyan,1,-0.14,-0.27,magenta,1,-0.27,0.14,orange,1,0.41,0.41,green,1,0.27,-0.41,red,1,-0.27,-0.41,black,1,-0.27,0.41,blue,1,0.05,0.05,0.15,0.27,-0.27,green,l,307342,23,2020-08-05_16h59.03.653,CDT_GNG_IUS12,2020.1.2,MacIntel,60,l,1,0.807,0,13,13,108,1,,,,,,,,,,,,,,,,,,,,,,,,,,,,,,,,,,,,,,,,,,,,,,,,
,,,,,,,,,,,,82,same,8,0.27,0.41,yellow,1,0.14,-0.14,magenta,1,-0.14,-0.14,orange,1,-0.14,0.41,black,1,0.14,0.41,red,1,0.27,-0.14,green,1,-0.27,-0.27,cyan,1,-0.41,0.41,blue,1,0.05,0.05,0.15,0.14,-0.14,magenta,k,307342,23,2020-08-05_16h59.03.653,CDT_GNG_IUS12,2020.1.2,MacIntel,60,l,0,0.618,0,14,14,81,1,,,,,,,,,,,,,,,,,,,,,,,,,,,,,,,,,,,,,,,,,,,,,,,,
,,,,,,,,,,,,57,different,4,0.14,0.41,black,1,0.14,-0.14,blue,1,-0.41,-0.14,red,1,-0.41,0.14,orange,1,0.41,0.41,magenta,0,0.41,-0.14,cyan,0,-0.14,-0.27,yellow,0,-0.27,0.41,green,0,0.05,0.05,0.15,-0.41,0.14,blue,l,307342,23,2020-08-05_16h59.03.653,CDT_GNG_IUS12,2020.1.2,MacIntel,60,l,1,0.822,0,15,15,56,1,,,,,,,,,,,,,,,,,,,,,,,,,,,,,,,,,,,,,,,,,,,,,,,,
,,,,,,,,,,,,25,same,4,0.41,0.27,cyan,1,0.27,-0.27,yellow,1,-0.41,-0.14,black,1,-0.14,0.27,blue,1,0.41,0.14,green,0,0.14,-0.41,magenta,0,-0.41,-0.41,orange,0,-0.27,0.41,red,0,0.05,0.05,0.15,0.27,-0.27,yellow,k,307342,23,2020-08-05_16h59.03.653,CDT_GNG_IUS12,2020.1.2,MacIntel,60,l,0,1.399,0,16,16,24,1,,,,,,,,,,,,,,,,,,,,,,,,,,,,,,,,,,,,,,,,,,,,,,,,
,,,,,,,,,,,,104,different,8,0.41,0.41,cyan,1,0.41,-0.41,blue,1,-0.27,-0.14,green,1,-0.27,0.14,orange,1,0.14,0.41,red,1,0.27,-0.27,yellow,1,-0.41,-0.27,magenta,1,-0.14,0.41,black,1,0.05,0.05,0.15,-0.14,0.41,magenta,l,307342,23,2020-08-05_16h59.03.653,CDT_GNG_IUS12,2020.1.2,MacIntel,60,l,1,0.687,0,17,17,103,1,,,,,,,,,,,,,,,,,,,,,,,,,,,,,,,,,,,,,,,,,,,,,,,,
,,,,,,,,,,,,15,same,4,0.41,0.14,magenta,1,0.41,-0.27,blue,1,-0.27,-0.14,yellow,1,-0.14,0.41,green,1,0.41,0.27,red,0,0.14,-0.14,orange,0,-0.14,-0.14,cyan,0,-0.27,0.27,black,0,0.05,0.05,0.15,-0.14,0.41,green,k,307342,23,2020-08-05_16h59.03.653,CDT_GNG_IUS12,2020.1.2,MacIntel,60,k,1,0.971,0,18,18,14,1,,,,,,,,,,,,,,,,,,,,,,,,,,,,,,,,,,,,,,,,,,,,,,,,
,,,,,,,,,,,,1,same,4,0.14,0.14,magenta,1,0.27,-0.14,blue,1,-0.27,-0.14,black,1,-0.27,0.27,green,1,0.41,0.41,red,0,0.27,-0.27,cyan,0,-0.14,-0.14,yellow,0,-0.27,0.41,orange,0,0.05,0.05,0.15,0.14,0.14,magenta,k,307342,23,2020-08-05_16h59.03.653,CDT_GNG_IUS12,2020.1.2,MacIntel,60,l,0,0.55,0,19,19,0,1,,,,,,,,,,,,,,,,,,,,,,,,,,,,,,,,,,,,,,,,,,,,,,,,
,,,,,,,,,,,,39,different,4,0.41,0.27,green,1,0.41,-0.27,yellow,1,-0.27,-0.27,orange,1,-0.14,0.14,cyan,1,0.14,0.14,magenta,0,0.27,-0.41,blue,0,-0.14,-0.27,red,0,-0.41,0.27,black,0,0.05,0.05,0.15,-0.14,0.14,green,l,307342,23,2020-08-05_16h59.03.653,CDT_GNG_IUS12,2020.1.2,MacIntel,60,l,1,1.2,0,20,20,38,1,,,,,,,,,,,,,,,,,,,,,,,,,,,,,,,,,,,,,,,,,,,,,,,,
,,,,,,,,,,,,83,same,8,0.14,0.27,yellow,1,0.27,-0.41,orange,1,-0.27,-0.41,green,1,-0.41,0.14,cyan,1,0.41,0.27,blue,1,0.14,-0.14,magenta,1,-0.14,-0.14,red,1,-0.41,0.41,black,1,0.05,0.05,0.15,-0.41,0.41,black,k,307342,23,2020-08-05_16h59.03.653,CDT_GNG_IUS12,2020.1.2,MacIntel,60,l,0,0.937,0,21,21,82,1,,,,,,,,,,,,,,,,,,,,,,,,,,,,,,,,,,,,,,,,,,,,,,,,
,,,,,,,,,,,,46,different,4,0.14,0.14,red,1,0.14,-0.14,green,1,-0.14,-0.41,orange,1,-0.27,0.41,blue,1,0.41,0.27,cyan,0,0.14,-0.27,magenta,0,-0.14,-0.14,black,0,-0.41,0.27,yellow,0,0.05,0.05,0.15,-0.14,-0.41,blue,l,307342,23,2020-08-05_16h59.03.653,CDT_GNG_IUS12,2020.1.2,MacIntel,60,k,0,0.904,0,22,22,45,1,,,,,,,,,,,,,,,,,,,,,,,,,,,,,,,,,,,,,,,,,,,,,,,,
,,,,,,,,,,,,81,same,8,0.27,0.14,yellow,1,0.41,-0.14,blue,1,-0.41,-0.14,green,1,-0.41,0.14,orange,1,0.14,0.41,red,1,0.14,-0.27,magenta,1,-0.14,-0.27,cyan,1,-0.14,0.14,black,1,0.05,0.05,0.15,-0.41,0.14,orange,k,307342,23,2020-08-05_16h59.03.653,CDT_GNG_IUS12,2020.1.2,MacIntel,60,l,0,0.874,0,23,23,80,1,,,,,,,,,,,,,,,,,,,,,,,,,,,,,,,,,,,,,,,,,,,,,,,,
,,,,,,,,,,,,113,different,8,0.41,0.27,magenta,1,0.27,-0.27,red,1,-0.41,-0.41,yellow,1,-0.14,0.27,green,1,0.41,0.14,orange,1,0.14,-0.41,blue,1,-0.14,-0.41,black,1,-0.41,0.27,cyan,1,0.05,0.05,0.15,0.41,0.14,yellow,l,307342,23,2020-08-05_16h59.03.653,CDT_GNG_IUS12,2020.1.2,MacIntel,60,l,1,2.116,0,24,24,112,1,,,,,,,,,,,,,,,,,,,,,,,,,,,,,,,,,,,,,,,,,,,,,,,,
,,,,,,,,,,,,68,same,8,0.14,0.27,green,1,0.41,-0.27,magenta,1,-0.14,-0.27,cyan,1,-0.41,0.14,red,1,0.41,0.14,yellow,1,0.27,-0.14,blue,1,-0.14,-0.41,orange,1,-0.14,0.14,black,1,0.05,0.05,0.15,0.27,-0.14,blue,k,307342,23,2020-08-05_16h59.03.653,CDT_GNG_IUS12,2020.1.2,MacIntel,60,l,0,0.722,0,25,25,67,1,,,,,,,,,,,,,,,,,,,,,,,,,,,,,,,,,,,,,,,,,,,,,,,,
,,,,,,,,,,,,19,same,4,0.27,0.41,blue,1,0.14,-0.41,red,1,-0.14,-0.27,black,1,-0.14,0.27,magenta,1,0.27,0.14,yellow,0,0.27,-0.14,orange,0,-0.14,-0.41,green,0,-0.14,0.14,cyan,0,0.05,0.05,0.15,0.27,0.41,blue,k,307342,23,2020-08-05_16h59.03.653,CDT_GNG_IUS12,2020.1.2,MacIntel,60,l,0,0.853,0,26,26,18,1,,,,,,,,,,,,,,,,,,,,,,,,,,,,,,,,,,,,,,,,,,,,,,,,
,,,,,,,,,,,,108,different,8,0.27,0.41,magenta,1,0.27,-0.14,green,1,-0.14,-0.41,yellow,1,-0.41,0.41,red,1,0.41,0.27,blue,1,0.14,-0.27,cyan,1,-0.27,-0.27,orange,1,-0.41,0.14,black,1,0.05,0.05,0.15,0.27,0.41,black,l,307342,23,2020-08-05_16h59.03.653,CDT_GNG_IUS12,2020.1.2,MacIntel,60,l,1,0.739,0,27,27,107,1,,,,,,,,,,,,,,,,,,,,,,,,,,,,,,,,,,,,,,,,,,,,,,,,
,,,,,,,,,,,,100,different,8,0.41,0.27,black,1,0.41,-0.27,red,1,-0.14,-0.27,magenta,1,-0.14,0.27,orange,1,0.14,0.27,blue,1,0.27,-0.14,yellow,1,-0.41,-0.14,cyan,1,-0.41,0.14,green,1,0.05,0.05,0.15,0.41,0.27,orange,l,307342,23,2020-08-05_16h59.03.653,CDT_GNG_IUS12,2020.1.2,MacIntel,60,k,0,0.82,0,28,28,99,1,,,,,,,,,,,,,,,,,,,,,,,,,,,,,,,,,,,,,,,,,,,,,,,,
,,,,,,,,,,,,110,different,8,0.41,0.14,orange,1,0.27,-0.27,black,1,-0.14,-0.27,blue,1,-0.27,0.27,cyan,1,0.27,0.41,magenta,1,0.27,-0.41,red,1,-0.27,-0.41,yellow,1,-0.27,0.41,green,1,0.05,0.05,0.15,-0.27,-0.41,red,l,307342,23,2020-08-05_16h59.03.653,CDT_GNG_IUS12,2020.1.2,MacIntel,60,l,1,0.856,0,29,29,109,1,,,,,,,,,,,,,,,,,,,,,,,,,,,,,,,,,,,,,,,,,,,,,,,,
,,,,,,,,,,,,65,same,8,0.41,0.41,blue,1,0.27,-0.41,yellow,1,-0.27,-0.41,red,1,-0.41,0.27,cyan,1,0.14,0.27,black,1,0.27,-0.27,orange,1,-0.41,-0.41,magenta,1,-0.41,0.41,green,1,0.05,0.05,0.15,0.27,-0.27,orange,k,307342,23,2020-08-05_16h59.03.653,CDT_GNG_IUS12,2020.1.2,MacIntel,60,k,1,0.703,0,30,30,64,1,,,,,,,,,,,,,,,,,,,,,,,,,,,,,,,,,,,,,,,,,,,,,,,,
,,,,,,,,,,,,6,same,4,0.41,0.27,orange,1,0.41,-0.14,magenta,1,-0.14,-0.27,black,1,-0.27,0.41,cyan,1,0.14,0.41,red,0,0.14,-0.41,blue,0,-0.14,-0.14,green,0,-0.41,0.41,yellow,0,0.05,0.05,0.15,-0.14,-0.27,black,k,307342,23,2020-08-05_16h59.03.653,CDT_GNG_IUS12,2020.1.2,MacIntel,60,k,1,0.675,0,31,31,5,1,,,,,,,,,,,,,,,,,,,,,,,,,,,,,,,,,,,,,,,,,,,,,,,,
,,,,,,,,,,,,106,different,8,0.41,0.41,black,1,0.14,-0.41,yellow,1,-0.41,-0.14,orange,1,-0.27,0.27,blue,1,0.14,0.41,red,1,0.41,-0.27,green,1,-0.14,-0.14,cyan,1,-0.14,0.14,magenta,1,0.05,0.05,0.15,-0.41,-0.14,green,l,307342,23,2020-08-05_16h59.03.653,CDT_GNG_IUS12,2020.1.2,MacIntel,60,l,1,0.883,0,32,32,105,1,,,,,,,,,,,,,,,,,,,,,,,,,,,,,,,,,,,,,,,,,,,,,,,,
,,,,,,,,,,,,91,different,8,0.27,0.27,red,1,0.41,-0.14,orange,1,-0.14,-0.27,green,1,-0.27,0.27,yellow,1,0.14,0.27,cyan,1,0.14,-0.14,black,1,-0.41,-0.41,blue,1,-0.14,0.41,magenta,1,0.05,0.05,0.15,-0.14,0.41,yellow,l,307342,23,2020-08-05_16h59.03.653,CDT_GNG_IUS12,2020.1.2,MacIntel,60,l,1,1.119,0,33,33,90,1,,,,,,,,,,,,,,,,,,,,,,,,,,,,,,,,,,,,,,,,,,,,,,,,
,,,,,,,,,,,,27,same,4,0.27,0.27,yellow,1,0.27,-0.27,green,1,-0.27,-0.41,cyan,1,-0.14,0.41,black,1,0.14,0.41,blue,0,0.41,-0.14,red,0,-0.14,-0.14,orange,0,-0.27,0.41,magenta,0,0.05,0.05,0.15,0.27,-0.27,green,k,307342,23,2020-08-05_16h59.03.653,CDT_GNG_IUS12,2020.1.2,MacIntel,60,k,1,0.59,0,34,34,26,1,,,,,,,,,,,,,,,,,,,,,,,,,,,,,,,,,,,,,,,,,,,,,,,,
,,,,,,,,,,,,69,same,8,0.27,0.14,magenta,1,0.27,-0.41,yellow,1,-0.14,-0.41,green,1,-0.14,0.41,orange,1,0.14,0.41,red,1,0.14,-0.27,black,1,-0.14,-0.27,blue,1,-0.27,0.14,cyan,1,0.05,0.05,0.15,0.14,-0.27,black,k,307342,23,2020-08-05_16h59.03.653,CDT_GNG_IUS12,2020.1.2,MacIntel,60,k,1,0.57,0,35,35,68,1,,,,,,,,,,,,,,,,,,,,,,,,,,,,,,,,,,,,,,,,,,,,,,,,
,,,,,,,,,,,,73,same,8,0.14,0.14,blue,1,0.14,-0.41,yellow,1,-0.41,-0.41,red,1,-0.41,0.27,orange,1,0.27,0.41,magenta,1,0.14,-0.27,green,1,-0.41,-0.27,black,1,-0.27,0.27,cyan,1,0.05,0.05,0.15,0.27,0.41,magenta,k,307342,23,2020-08-05_16h59.03.653,CDT_GNG_IUS12,2020.1.2,MacIntel,60,k,1,0.888,0,36,36,72,1,,,,,,,,,,,,,,,,,,,,,,,,,,,,,,,,,,,,,,,,,,,,,,,,
,,,,,,,,,,,,92,different,8,0.27,0.27,yellow,1,0.14,-0.27,green,1,-0.41,-0.14,blue,1,-0.41,0.41,red,1,0.14,0.27,magenta,1,0.27,-0.14,cyan,1,-0.14,-0.14,orange,1,-0.27,0.27,black,1,0.05,0.05,0.15,-0.41,-0.14,magenta,l,307342,23,2020-08-05_16h59.03.653,CDT_GNG_IUS12,2020.1.2,MacIntel,60,l,1,0.72,0,37,37,91,1,,,,,,,,,,,,,,,,,,,,,,,,,,,,,,,,,,,,,,,,,,,,,,,,
,,,,,,,,,,,,9,same,4,0.27,0.27,red,1,0.14,-0.27,orange,1,-0.14,-0.41,yellow,1,-0.27,0.41,blue,1,0.41,0.41,green,0,0.41,-0.41,cyan,0,-0.27,-0.41,magenta,0,-0.27,0.27,black,0,0.05,0.05,0.15,0.27,0.27,red,k,307342,23,2020-08-05_16h59.03.653,CDT_GNG_IUS12,2020.1.2,MacIntel,60,k,1,0.555,0,38,38,8,1,,,,,,,,,,,,,,,,,,,,,,,,,,,,,,,,,,,,,,,,,,,,,,,,
,,,,,,,,,,,,114,different,8,0.41,0.41,yellow,1,0.14,-0.41,red,1,-0.41,-0.41,blue,1,-0.27,0.14,cyan,1,0.41,0.27,black,1,0.27,-0.41,green,1,-0.14,-0.41,orange,1,-0.14,0.41,magenta,1,0.05,0.05,0.15,-0.14,0.41,orange,l,307342,23,2020-08-05_16h59.03.653,CDT_GNG_IUS12,2020.1.2,MacIntel,60,l,1,0.85,0,39,39,113,1,,,,,,,,,,,,,,,,,,,,,,,,,,,,,,,,,,,,,,,,,,,,,,,,
,,,,,,,,,,,,34,different,4,0.14,0.14,cyan,1,0.14,-0.14,magenta,1,-0.41,-0.41,black,1,-0.41,0.14,yellow,1,0.27,0.27,orange,0,0.14,-0.41,green,0,-0.41,-0.14,red,0,-0.14,0.14,blue,0,0.05,0.05,0.15,0.14,-0.14,cyan,l,307342,23,2020-08-05_16h59.03.653,CDT_GNG_IUS12,2020.1.2,MacIntel,60,k,0,0.57,0,40,40,33,1,,,,,,,,,,,,,,,,,,,,,,,,,,,,,,,,,,,,,,,,,,,,,,,,
,,,,,,,,,,,,7,same,4,0.41,0.41,yellow,1,0.41,-0.41,blue,1,-0.14,-0.41,black,1,-0.14,0.14,magenta,1,0.27,0.41,red,0,0.41,-0.27,green,0,-0.41,-0.14,cyan,0,-0.14,0.27,orange,0,0.05,0.05,0.15,-0.14,0.14,magenta,k,307342,23,2020-08-05_16h59.03.653,CDT_GNG_IUS12,2020.1.2,MacIntel,60,k,1,0.657,0,41,41,6,1,,,,,,,,,,,,,,,,,,,,,,,,,,,,,,,,,,,,,,,,,,,,,,,,
,,,,,,,,,,,,24,same,4,0.41,0.27,green,1,0.14,-0.27,black,1,-0.27,-0.27,yellow,1,-0.14,0.14,orange,1,0.41,0.14,blue,0,0.14,-0.14,cyan,0,-0.41,-0.14,red,0,-0.27,0.41,magenta,0,0.05,0.05,0.15,-0.14,0.14,orange,k,307342,23,2020-08-05_16h59.03.653,CDT_GNG_IUS12,2020.1.2,MacIntel,60,k,1,0.573,0,42,42,23,1,,,,,,,,,,,,,,,,,,,,,,,,,,,,,,,,,,,,,,,,,,,,,,,,
,,,,,,,,,,,,77,same,8,0.41,0.41,black,1,0.14,-0.14,cyan,1,-0.27,-0.41,yellow,1,-0.14,0.27,orange,1,0.41,0.14,blue,1,0.41,-0.14,magenta,1,-0.14,-0.27,green,1,-0.27,0.14,red,1,0.05,0.05,0.15,0.41,-0.14,magenta,k,307342,23,2020-08-05_16h59.03.653,CDT_GNG_IUS12,2020.1.2,MacIntel,60,k,1,0.807,0,43,43,76,1,,,,,,,,,,,,,,,,,,,,,,,,,,,,,,,,,,,,,,,,,,,,,,,,
,,,,,,,,,,,,38,different,4,0.27,0.27,black,1,0.14,-0.27,green,1,-0.14,-0.27,magenta,1,-0.41,0.14,blue,1,0.14,0.41,orange,0,0.27,-0.41,yellow,0,-0.41,-0.14,cyan,0,-0.27,0.41,red,0,0.05,0.05,0.15,-0.14,-0.27,orange,l,307342,23,2020-08-05_16h59.03.653,CDT_GNG_IUS12,2020.1.2,MacIntel,60,l,1,0.667,0,44,44,37,1,,,,,,,,,,,,,,,,,,,,,,,,,,,,,,,,,,,,,,,,,,,,,,,,
,,,,,,,,,,,,118,different,8,0.14,0.14,red,1,0.27,-0.27,yellow,1,-0.27,-0.14,orange,1,-0.41,0.41,magenta,1,0.27,0.27,cyan,1,0.14,-0.41,green,1,-0.27,-0.41,blue,1,-0.41,0.14,black,1,0.05,0.05,0.15,-0.27,-0.41,black,l,307342,23,2020-08-05_16h59.03.653,CDT_GNG_IUS12,2020.1.2,MacIntel,60,l,1,1.274,0,45,45,117,1,,,,,,,,,,,,,,,,,,,,,,,,,,,,,,,,,,,,,,,,,,,,,,,,
,,,,,,,,,,,,87,same,8,0.27,0.14,red,1,0.14,-0.14,yellow,1,-0.27,-0.14,orange,1,-0.27,0.27,magenta,1,0.41,0.27,blue,1,0.41,-0.41,green,1,-0.27,-0.27,black,1,-0.14,0.27,cyan,1,0.05,0.05,0.15,0.41,-0.41,green,k,307342,23,2020-08-05_16h59.03.653,CDT_GNG_IUS12,2020.1.2,MacIntel,60,l,0,1.321,0,46,46,86,1,,,,,,,,,,,,,,,,,,,,,,,,,,,,,,,,,,,,,,,,,,,,,,,,
,,,,,,,,,,,,66,same,8,0.27,0.27,magenta,1,0.14,-0.41,green,1,-0.27,-0.14,yellow,1,-0.14,0.27,orange,1,0.41,0.41,red,1,0.14,-0.14,cyan,1,-0.14,-0.27,black,1,-0.27,0.41,blue,1,0.05,0.05,0.15,0.41,0.41,red,k,307342,23,2020-08-05_16h59.03.653,CDT_GNG_IUS12,2020.1.2,MacIntel,60,l,0,0.923,0,47,47,65,1,,,,,,,,,,,,,,,,,,,,,,,,,,,,,,,,,,,,,,,,,,,,,,,,
,,,,,,,,,,,,120,different,8,0.41,0.41,blue,1,0.14,-0.14,magenta,1,-0.27,-0.27,cyan,1,-0.27,0.41,orange,1,0.27,0.41,yellow,1,0.14,-0.41,red,1,-0.14,-0.27,green,1,-0.14,0.41,black,1,0.05,0.05,0.15,-0.14,0.41,orange,l,307342,23,2020-08-05_16h59.03.653,CDT_GNG_IUS12,2020.1.2,MacIntel,60,k,0,1.038,0,48,48,119,1,,,,,,,,,,,,,,,,,,,,,,,,,,,,,,,,,,,,,,,,,,,,,,,,
,,,,,,,,,,,,67,same,8,0.14,0.27,yellow,1,0.27,-0.14,magenta,1,-0.27,-0.27,black,1,-0.41,0.41,blue,1,0.41,0.14,cyan,1,0.14,-0.14,red,1,-0.41,-0.14,orange,1,-0.41,0.27,green,1,0.05,0.05,0.15,-0.27,-0.27,black,k,307342,23,2020-08-05_16h59.03.653,CDT_GNG_IUS12,2020.1.2,MacIntel,60,k,1,1.317,0,49,49,66,1,,,,,,,,,,,,,,,,,,,,,,,,,,,,,,,,,,,,,,,,,,,,,,,,
,,,,,,,,,,,,95,different,8,0.41,0.41,black,1,0.14,-0.14,cyan,1,-0.14,-0.41,orange,1,-0.14,0.27,blue,1,0.41,0.27,magenta,1,0.14,-0.41,green,1,-0.27,-0.27,red,1,-0.41,0.14,yellow,1,0.05,0.05,0.15,-0.14,0.27,green,l,307342,23,2020-08-05_16h59.03.653,CDT_GNG_IUS12,2020.1.2,MacIntel,60,l,1,1.133,0,50,50,94,1,,,,,,,,,,,,,,,,,,,,,,,,,,,,,,,,,,,,,,,,,,,,,,,,
,,,,,,,,,,,,58,different,4,0.14,0.41,blue,1,0.14,-0.14,black,1,-0.14,-0.14,yellow,1,-0.27,0.41,magenta,1,0.27,0.41,red,0,0.14,-0.27,cyan,0,-0.41,-0.27,orange,0,-0.27,0.27,green,0,0.05,0.05,0.15,0.14,0.41,yellow,l,307342,23,2020-08-05_16h59.03.653,CDT_GNG_IUS12,2020.1.2,MacIntel,60,l,1,1.09,0,51,51,57,1,,,,,,,,,,,,,,,,,,,,,,,,,,,,,,,,,,,,,,,,,,,,,,,,
,,,,,,,,,,,,115,different,8,0.14,0.27,green,1,0.27,-0.41,orange,1,-0.14,-0.14,yellow,1,-0.27,0.41,magenta,1,0.27,0.14,blue,1,0.14,-0.27,red,1,-0.41,-0.14,cyan,1,-0.41,0.14,black,1,0.05,0.05,0.15,0.14,-0.27,cyan,l,307342,23,2020-08-05_16h59.03.653,CDT_GNG_IUS12,2020.1.2,MacIntel,60,k,0,1.103,0,52,52,114,1,,,,,,,,,,,,,,,,,,,,,,,,,,,,,,,,,,,,,,,,,,,,,,,,
,,,,,,,,,,,,88,same,8,0.27,0.41,red,1,0.41,-0.14,cyan,1,-0.14,-0.14,green,1,-0.41,0.41,orange,1,0.14,0.27,magenta,1,0.27,-0.27,yellow,1,-0.41,-0.41,black,1,-0.27,0.41,blue,1,0.05,0.05,0.15,-0.41,0.41,orange,k,307342,23,2020-08-05_16h59.03.653,CDT_GNG_IUS12,2020.1.2,MacIntel,60,k,1,0.983,0,53,53,87,1,,,,,,,,,,,,,,,,,,,,,,,,,,,,,,,,,,,,,,,,,,,,,,,,
,,,,,,,,,,,,3,same,4,0.27,0.14,green,1,0.27,-0.27,orange,1,-0.27,-0.41,yellow,1,-0.41,0.41,magenta,1,0.14,0.41,black,0,0.14,-0.41,red,0,-0.27,-0.14,cyan,0,-0.14,0.14,blue,0,0.05,0.05,0.15,-0.27,-0.41,yellow,k,307342,23,2020-08-05_16h59.03.653,CDT_GNG_IUS12,2020.1.2,MacIntel,60,k,1,0.785,0,54,54,2,1,,,,,,,,,,,,,,,,,,,,,,,,,,,,,,,,,,,,,,,,,,,,,,,,
,,,,,,,,,,,,51,different,4,0.41,0.41,yellow,1,0.14,-0.27,red,1,-0.14,-0.27,cyan,1,-0.41,0.14,orange,1,0.14,0.41,green,0,0.27,-0.41,black,0,-0.27,-0.14,blue,0,-0.41,0.27,magenta,0,0.05,0.05,0.15,0.41,0.41,red,l,307342,23,2020-08-05_16h59.03.653,CDT_GNG_IUS12,2020.1.2,MacIntel,60,l,1,0.723,0,55,55,50,1,,,,,,,,,,,,,,,,,,,,,,,,,,,,,,,,,,,,,,,,,,,,,,,,
,,,,,,,,,,,,55,different,4,0.14,0.14,black,1,0.41,-0.14,cyan,1,-0.27,-0.27,magenta,1,-0.14,0.41,blue,1,0.27,0.14,yellow,0,0.14,-0.27,red,0,-0.27,-0.41,orange,0,-0.27,0.41,green,0,0.05,0.05,0.15,0.14,0.14,yellow,l,307342,23,2020-08-05_16h59.03.653,CDT_GNG_IUS12,2020.1.2,MacIntel,60,l,1,1.067,0,56,56,54,1,,,,,,,,,,,,,,,,,,,,,,,,,,,,,,,,,,,,,,,,,,,,,,,,
,,,,,,,,,,,,117,different,8,0.14,0.41,black,1,0.14,-0.41,cyan,1,-0.41,-0.27,magenta,1,-0.27,0.41,yellow,1,0.41,0.27,orange,1,0.41,-0.14,red,1,-0.27,-0.27,green,1,-0.14,0.14,blue,1,0.05,0.05,0.15,0.41,-0.14,black,l,307342,23,2020-08-05_16h59.03.653,CDT_GNG_IUS12,2020.1.2,MacIntel,60,l,1,0.684,0,57,57,116,1,,,,,,,,,,,,,,,,,,,,,,,,,,,,,,,,,,,,,,,,,,,,,,,,
,,,,,,,,,,,,2,same,4,0.27,0.41,magenta,1,0.41,-0.14,red,1,-0.27,-0.14,orange,1,-0.27,0.14,blue,1,0.14,0.14,cyan,0,0.14,-0.14,green,0,-0.14,-0.14,black,0,-0.14,0.41,yellow,0,0.05,0.05,0.15,-0.27,-0.14,orange,k,307342,23,2020-08-05_16h59.03.653,CDT_GNG_IUS12,2020.1.2,MacIntel,60,l,0,1.166,0,58,58,1,1,,,,,,,,,,,,,,,,,,,,,,,,,,,,,,,,,,,,,,,,,,,,,,,,
,,,,,,,,,,,,44,different,4,0.27,0.27,black,1,0.41,-0.14,red,1,-0.41,-0.27,magenta,1,-0.14,0.14,green,1,0.41,0.41,cyan,0,0.14,-0.14,yellow,0,-0.27,-0.41,blue,0,-0.27,0.14,orange,0,0.05,0.05,0.15,0.41,-0.14,magenta,l,307342,23,2020-08-05_16h59.03.653,CDT_GNG_IUS12,2020.1.2,MacIntel,60,l,1,0.786,0,59,59,43,1,,,,,,,,,,,,,,,,,,,,,,,,,,,,,,,,,,,,,,,,,,,,,,,,
,,,,,,,,,,,,78,same,8,0.41,0.14,green,1,0.14,-0.27,magenta,1,-0.41,-0.27,blue,1,-0.41,0.41,black,1,0.41,0.27,cyan,1,0.41,-0.14,orange,1,-0.14,-0.41,yellow,1,-0.14,0.41,red,1,0.05,0.05,0.15,-0.41,-0.27,blue,k,307342,23,2020-08-05_16h59.03.653,CDT_GNG_IUS12,2020.1.2,MacIntel,60,l,0,0.99,0,60,60,77,1,,,,,,,,,,,,,,,,,,,,,,,,,,,,,,,,,,,,,,,,,,,,,,,,
,,,,,,,,,,,,89,same,8,0.14,0.14,blue,1,0.14,-0.27,orange,1,-0.14,-0.27,yellow,1,-0.41,0.27,red,1,0.27,0.27,cyan,1,0.14,-0.14,green,1,-0.14,-0.41,magenta,1,-0.41,0.41,black,1,0.05,0.05,0.15,0.14,-0.27,orange,k,307342,23,2020-08-05_16h59.03.653,CDT_GNG_IUS12,2020.1.2,MacIntel,60,l,0,0.742,0,61,61,88,1,,,,,,,,,,,,,,,,,,,,,,,,,,,,,,,,,,,,,,,,,,,,,,,,
,,,,,,,,,,,,31,different,4,0.27,0.41,orange,1,0.14,-0.14,black,1,-0.41,-0.41,yellow,1,-0.41,0.27,cyan,1,0.27,0.14,green,0,0.41,-0.27,blue,0,-0.14,-0.41,red,0,-0.41,0.14,magenta,0,0.05,0.05,0.15,-0.41,0.27,yellow,l,307342,23,2020-08-05_16h59.03.653,CDT_GNG_IUS12,2020.1.2,MacIntel,60,l,1,0.856,0,62,62,30,1,,,,,,,,,,,,,,,,,,,,,,,,,,,,,,,,,,,,,,,,,,,,,,,,
,,,,,,,,,,,,90,same,8,0.27,0.14,orange,1,0.14,-0.27,green,1,-0.14,-0.41,magenta,1,-0.14,0.27,cyan,1,0.41,0.41,blue,1,0.14,-0.14,black,1,-0.14,-0.14,yellow,1,-0.27,0.27,red,1,0.05,0.05,0.15,0.14,-0.14,black,k,307342,23,2020-08-05_16h59.03.653,CDT_GNG_IUS12,2020.1.2,MacIntel,60,k,1,0.8,0,63,63,89,1,,,,,,,,,,,,,,,,,,,,,,,,,,,,,,,,,,,,,,,,,,,,,,,,
,,,,,,,,,,,,72,same,8,0.27,0.41,blue,1,0.41,-0.27,magenta,1,-0.41,-0.41,yellow,1,-0.27,0.41,black,1,0.41,0.41,cyan,1,0.27,-0.41,green,1,-0.41,-0.27,orange,1,-0.14,0.27,red,1,0.05,0.05,0.15,-0.14,0.27,red,k,307342,23,2020-08-05_16h59.03.653,CDT_GNG_IUS12,2020.1.2,MacIntel,60,l,0,0.636,0,64,64,71,1,,,,,,,,,,,,,,,,,,,,,,,,,,,,,,,,,,,,,,,,,,,,,,,,
,,,,,,,,,,,,84,same,8,0.27,0.14,magenta,1,0.14,-0.14,yellow,1,-0.14,-0.14,blue,1,-0.27,0.27,red,1,0.41,0.14,cyan,1,0.41,-0.27,orange,1,-0.14,-0.27,black,1,-0.41,0.14,green,1,0.05,0.05,0.15,-0.27,0.27,red,k,307342,23,2020-08-05_16h59.03.653,CDT_GNG_IUS12,2020.1.2,MacIntel,60,k,1,0.732,0,65,65,83,1,,,,,,,,,,,,,,,,,,,,,,,,,,,,,,,,,,,,,,,,,,,,,,,,
,,,,,,,,,,,,61,same,8,0.41,0.41,orange,1,0.41,-0.41,magenta,1,-0.27,-0.41,blue,1,-0.14,0.27,yellow,1,0.14,0.41,red,1,0.14,-0.27,black,1,-0.41,-0.41,cyan,1,-0.27,0.14,green,1,0.05,0.05,0.15,-0.27,-0.41,blue,k,307342,23,2020-08-05_16h59.03.653,CDT_GNG_IUS12,2020.1.2,MacIntel,60,l,0,1.302,0,66,66,60,1,,,,,,,,,,,,,,,,,,,,,,,,,,,,,,,,,,,,,,,,,,,,,,,,
,,,,,,,,,,,,53,different,4,0.14,0.27,cyan,1,0.41,-0.14,yellow,1,-0.41,-0.41,green,1,-0.14,0.41,black,1,0.41,0.27,red,0,0.14,-0.14,magenta,0,-0.27,-0.27,blue,0,-0.27,0.27,orange,0,0.05,0.05,0.15,0.14,0.27,blue,l,307342,23,2020-08-05_16h59.03.653,CDT_GNG_IUS12,2020.1.2,MacIntel,60,l,1,1.155,0,67,67,52,1,,,,,,,,,,,,,,,,,,,,,,,,,,,,,,,,,,,,,,,,,,,,,,,,
,,,,,,,,,,,,50,different,4,0.41,0.14,black,1,0.14,-0.14,blue,1,-0.41,-0.41,red,1,-0.27,0.14,green,1,0.14,0.41,cyan,0,0.41,-0.14,magenta,0,-0.14,-0.27,yellow,0,-0.27,0.41,orange,0,0.05,0.05,0.15,-0.41,-0.41,orange,l,307342,23,2020-08-05_16h59.03.653,CDT_GNG_IUS12,2020.1.2,MacIntel,60,k,0,1.3,0,68,68,49,1,,,,,,,,,,,,,,,,,,,,,,,,,,,,,,,,,,,,,,,,,,,,,,,,
,,,,,,,,,,,,62,same,8,0.41,0.14,red,1,0.14,-0.27,cyan,1,-0.41,-0.27,orange,1,-0.27,0.27,magenta,1,0.14,0.27,green,1,0.14,-0.14,blue,1,-0.27,-0.41,black,1,-0.41,0.14,yellow,1,0.05,0.05,0.15,-0.27,0.27,magenta,k,307342,23,2020-08-05_16h59.03.653,CDT_GNG_IUS12,2020.1.2,MacIntel,60,l,0,0.754,0,69,69,61,1,,,,,,,,,,,,,,,,,,,,,,,,,,,,,,,,,,,,,,,,,,,,,,,,
,,,,,,,,,,,,45,different,4,0.14,0.14,red,1,0.27,-0.27,black,1,-0.41,-0.27,cyan,1,-0.41,0.27,blue,1,0.27,0.27,magenta,0,0.14,-0.41,orange,0,-0.14,-0.14,green,0,-0.27,0.14,yellow,0,0.05,0.05,0.15,0.14,0.14,blue,l,307342,23,2020-08-05_16h59.03.653,CDT_GNG_IUS12,2020.1.2,MacIntel,60,l,1,0.916,0,70,70,44,1,,,,,,,,,,,,,,,,,,,,,,,,,,,,,,,,,,,,,,,,,,,,,,,,
,,,,,,,,,,,,112,different,8,0.27,0.41,magenta,1,0.14,-0.41,green,1,-0.14,-0.14,black,1,-0.27,0.27,cyan,1,0.41,0.41,red,1,0.14,-0.27,blue,1,-0.41,-0.14,orange,1,-0.14,0.14,yellow,1,0.05,0.05,0.15,0.41,0.41,blue,l,307342,23,2020-08-05_16h59.03.653,CDT_GNG_IUS12,2020.1.2,MacIntel,60,l,1,0.934,0,71,71,111,1,,,,,,,,,,,,,,,,,,,,,,,,,,,,,,,,,,,,,,,,,,,,,,,,
,,,,,,,,,,,,71,same,8,0.14,0.41,red,1,0.27,-0.14,yellow,1,-0.27,-0.41,cyan,1,-0.41,0.27,blue,1,0.41,0.27,magenta,1,0.14,-0.41,orange,1,-0.14,-0.14,black,1,-0.41,0.14,green,1,0.05,0.05,0.15,-0.41,0.27,blue,k,307342,23,2020-08-05_16h59.03.653,CDT_GNG_IUS12,2020.1.2,MacIntel,60,l,0,1.169,0,72,72,70,1,,,,,,,,,,,,,,,,,,,,,,,,,,,,,,,,,,,,,,,,,,,,,,,,
,,,,,,,,,,,,32,different,4,0.41,0.27,orange,1,0.41,-0.41,green,1,-0.14,-0.14,cyan,1,-0.41,0.41,red,1,0.27,0.41,black,0,0.27,-0.41,magenta,0,-0.27,-0.14,blue,0,-0.14,0.14,yellow,0,0.05,0.05,0.15,-0.14,-0.14,blue,l,307342,23,2020-08-05_16h59.03.653,CDT_GNG_IUS12,2020.1.2,MacIntel,60,l,1,1.034,0,73,73,31,1,,,,,,,,,,,,,,,,,,,,,,,,,,,,,,,,,,,,,,,,,,,,,,,,
,,,,,,,,,,,,79,same,8,0.27,0.14,green,1,0.41,-0.14,yellow,1,-0.27,-0.41,orange,1,-0.14,0.14,black,1,0.41,0.27,cyan,1,0.14,-0.14,red,1,-0.14,-0.27,blue,1,-0.27,0.41,magenta,1,0.05,0.05,0.15,0.41,0.27,cyan,k,307342,23,2020-08-05_16h59.03.653,CDT_GNG_IUS12,2020.1.2,MacIntel,60,k,1,0.955,0,74,74,78,1,,,,,,,,,,,,,,,,,,,,,,,,,,,,,,,,,,,,,,,,,,,,,,,,
,,,,,,,,,,,,103,different,8,0.14,0.14,black,1,0.14,-0.27,cyan,1,-0.41,-0.41,green,1,-0.41,0.27,red,1,0.27,0.41,orange,1,0.27,-0.27,blue,1,-0.41,-0.14,magenta,1,-0.41,0.41,yellow,1,0.05,0.05,0.15,0.27,-0.27,magenta,l,307342,23,2020-08-05_16h59.03.653,CDT_GNG_IUS12,2020.1.2,MacIntel,60,k,0,1.107,0,75,75,102,1,,,,,,,,,,,,,,,,,,,,,,,,,,,,,,,,,,,,,,,,,,,,,,,,
,,,,,,,,,,,,17,same,4,0.41,0.27,cyan,1,0.41,-0.41,black,1,-0.14,-0.27,magenta,1,-0.14,0.41,green,1,0.14,0.14,orange,0,0.14,-0.41,yellow,0,-0.14,-0.41,red,0,-0.27,0.14,blue,0,0.05,0.05,0.15,-0.14,0.41,green,k,307342,23,2020-08-05_16h59.03.653,CDT_GNG_IUS12,2020.1.2,MacIntel,60,k,1,0.734,0,76,76,16,1,,,,,,,,,,,,,,,,,,,,,,,,,,,,,,,,,,,,,,,,,,,,,,,,
,,,,,,,,,,,,22,same,4,0.41,0.27,green,1,0.27,-0.14,black,1,-0.27,-0.41,cyan,1,-0.41,0.14,blue,1,0.14,0.14,magenta,0,0.41,-0.41,orange,0,-0.14,-0.27,red,0,-0.41,0.41,yellow,0,0.05,0.05,0.15,0.27,-0.14,black,k,307342,23,2020-08-05_16h59.03.653,CDT_GNG_IUS12,2020.1.2,MacIntel,60,k,1,0.757,0,77,77,21,1,,,,,,,,,,,,,,,,,,,,,,,,,,,,,,,,,,,,,,,,,,,,,,,,
,,,,,,,,,,,,52,different,4,0.27,0.41,cyan,1,0.14,-0.14,orange,1,-0.41,-0.14,black,1,-0.27,0.41,blue,1,0.14,0.27,magenta,0,0.27,-0.14,green,0,-0.27,-0.14,red,0,-0.14,0.41,yellow,0,0.05,0.05,0.15,0.14,-0.14,green,l,307342,23,2020-08-05_16h59.03.653,CDT_GNG_IUS12,2020.1.2,MacIntel,60,l,1,0.684,0,78,78,51,1,,,,,,,,,,,,,,,,,,,,,,,,,,,,,,,,,,,,,,,,,,,,,,,,
,,,,,,,,,,,,97,different,8,0.27,0.27,blue,1,0.14,-0.27,orange,1,-0.14,-0.14,black,1,-0.27,0.14,cyan,1,0.14,0.14,magenta,1,0.27,-0.41,yellow,1,-0.27,-0.41,green,1,-0.41,0.14,red,1,0.05,0.05,0.15,-0.27,0.14,black,l,307342,23,2020-08-05_16h59.03.653,CDT_GNG_IUS12,2020.1.2,MacIntel,60,k,0,0.887,0,79,79,96,1,,,,,,,,,,,,,,,,,,,,,,,,,,,,,,,,,,,,,,,,,,,,,,,,
,,,,,,,,,,,,33,different,4,0.27,0.41,magenta,1,0.41,-0.41,red,1,-0.27,-0.41,yellow,1,-0.14,0.41,black,1,0.14,0.41,blue,0,0.14,-0.41,orange,0,-0.41,-0.14,cyan,0,-0.41,0.27,green,0,0.05,0.05,0.15,0.27,0.41,black,l,307342,23,2020-08-05_16h59.03.653,CDT_GNG_IUS12,2020.1.2,MacIntel,60,l,1,0.718,0,80,80,32,1,,,,,,,,,,,,,,,,,,,,,,,,,,,,,,,,,,,,,,,,,,,,,,,,
,,,,,,,,,,,,20,same,4,0.27,0.14,cyan,1,0.14,-0.14,orange,1,-0.27,-0.27,green,1,-0.41,0.27,yellow,1,0.14,0.41,black,0,0.41,-0.41,red,0,-0.27,-0.41,magenta,0,-0.27,0.27,blue,0,0.05,0.05,0.15,-0.27,-0.27,green,k,307342,23,2020-08-05_16h59.03.653,CDT_GNG_IUS12,2020.1.2,MacIntel,60,k,1,0.802,0,81,81,19,1,,,,,,,,,,,,,,,,,,,,,,,,,,,,,,,,,,,,,,,,,,,,,,,,
,,,,,,,,,,,,56,different,4,0.27,0.14,yellow,1,0.41,-0.14,blue,1,-0.14,-0.27,green,1,-0.41,0.14,cyan,1,0.14,0.14,magenta,0,0.41,-0.41,red,0,-0.41,-0.14,orange,0,-0.41,0.27,black,0,0.05,0.05,0.15,-0.14,-0.27,magenta,l,307342,23,2020-08-05_16h59.03.653,CDT_GNG_IUS12,2020.1.2,MacIntel,60,l,1,0.706,0,82,82,55,1,,,,,,,,,,,,,,,,,,,,,,,,,,,,,,,,,,,,,,,,,,,,,,,,
,,,,,,,,,,,,21,same,4,0.41,0.27,magenta,1,0.27,-0.41,black,1,-0.27,-0.14,orange,1,-0.41,0.41,green,1,0.27,0.14,yellow,0,0.27,-0.14,cyan,0,-0.27,-0.27,red,0,-0.41,0.27,blue,0,0.05,0.05,0.15,0.27,-0.41,black,k,307342,23,2020-08-05_16h59.03.653,CDT_GNG_IUS12,2020.1.2,MacIntel,60,k,1,0.92,0,83,83,20,1,,,,,,,,,,,,,,,,,,,,,,,,,,,,,,,,,,,,,,,,,,,,,,,,
,,,,,,,,,,,,48,different,4,0.14,0.27,red,1,0.27,-0.14,yellow,1,-0.27,-0.41,magenta,1,-0.41,0.14,green,1,0.14,0.14,orange,0,0.41,-0.14,cyan,0,-0.27,-0.27,black,0,-0.41,0.41,blue,0,0.05,0.05,0.15,0.14,0.27,blue,l,307342,23,2020-08-05_16h59.03.653,CDT_GNG_IUS12,2020.1.2,MacIntel,60,l,1,0.45,0,84,84,47,1,,,,,,,,,,,,,,,,,,,,,,,,,,,,,,,,,,,,,,,,,,,,,,,,
,,,,,,,,,,,,75,same,8,0.41,0.27,blue,1,0.41,-0.41,black,1,-0.41,-0.41,red,1,-0.27,0.14,magenta,1,0.27,0.14,yellow,1,0.27,-0.27,cyan,1,-0.14,-0.27,green,1,-0.41,0.27,orange,1,0.05,0.05,0.15,-0.14,-0.27,green,k,307342,23,2020-08-05_16h59.03.653,CDT_GNG_IUS12,2020.1.2,MacIntel,60,k,1,1.131,0,85,85,74,1,,,,,,,,,,,,,,,,,,,,,,,,,,,,,,,,,,,,,,,,,,,,,,,,
,,,,,,,,,,,,105,different,8,0.41,0.27,cyan,1,0.14,-0.14,magenta,1,-0.27,-0.14,blue,1,-0.41,0.41,yellow,1,0.41,0.41,red,1,0.14,-0.41,green,1,-0.27,-0.27,orange,1,-0.27,0.41,black,1,0.05,0.05,0.15,0.41,0.27,orange,l,307342,23,2020-08-05_16h59.03.653,CDT_GNG_IUS12,2020.1.2,MacIntel,60,k,0,0.765,0,86,86,104,1,,,,,,,,,,,,,,,,,,,,,,,,,,,,,,,,,,,,,,,,,,,,,,,,
,,,,,,,,,,,,26,same,4,0.14,0.14,black,1,0.14,-0.14,red,1,-0.41,-0.14,yellow,1,-0.14,0.41,orange,1,0.27,0.14,blue,0,0.14,-0.27,magenta,0,-0.27,-0.41,green,0,-0.14,0.27,cyan,0,0.05,0.05,0.15,-0.41,-0.14,yellow,k,307342,23,2020-08-05_16h59.03.653,CDT_GNG_IUS12,2020.1.2,MacIntel,60,k,1,0.655,0,87,87,25,1,,,,,,,,,,,,,,,,,,,,,,,,,,,,,,,,,,,,,,,,,,,,,,,,
,,,,,,,,,,,,96,different,8,0.14,0.14,yellow,1,0.14,-0.41,black,1,-0.27,-0.27,orange,1,-0.14,0.41,blue,1,0.14,0.27,magenta,1,0.41,-0.27,cyan,1,-0.41,-0.41,red,1,-0.41,0.41,green,1,0.05,0.05,0.15,0.41,-0.27,magenta,l,307342,23,2020-08-05_16h59.03.653,CDT_GNG_IUS12,2020.1.2,MacIntel,60,k,0,0.89,0,88,88,95,1,,,,,,,,,,,,,,,,,,,,,,,,,,,,,,,,,,,,,,,,,,,,,,,,
,,,,,,,,,,,,93,different,8,0.14,0.41,blue,1,0.14,-0.27,red,1,-0.41,-0.14,magenta,1,-0.14,0.27,black,1,0.41,0.27,yellow,1,0.41,-0.14,orange,1,-0.27,-0.14,green,1,-0.14,0.41,cyan,1,0.05,0.05,0.15,0.41,-0.14,blue,l,307342,23,2020-08-05_16h59.03.653,CDT_GNG_IUS12,2020.1.2,MacIntel,60,l,1,1.055,0,89,89,92,1,,,,,,,,,,,,,,,,,,,,,,,,,,,,,,,,,,,,,,,,,,,,,,,,
,,,,,,,,,,,,74,same,8,0.41,0.41,blue,1,0.14,-0.14,orange,1,-0.27,-0.41,cyan,1,-0.27,0.41,yellow,1,0.41,0.27,black,1,0.41,-0.41,red,1,-0.14,-0.27,magenta,1,-0.27,0.14,green,1,0.05,0.05,0.15,0.41,0.27,black,k,307342,23,2020-08-05_16h59.03.653,CDT_GNG_IUS12,2020.1.2,MacIntel,60,k,1,0.95,0,90,90,73,1,,,,,,,,,,,,,,,,,,,,,,,,,,,,,,,,,,,,,,,,,,,,,,,,
,,,,,,,,,,,,42,different,4,0.41,0.41,green,1,0.14,-0.14,red,1,-0.27,-0.14,cyan,1,-0.27,0.27,blue,1,0.27,0.27,orange,0,0.14,-0.27,black,0,-0.27,-0.41,yellow,0,-0.27,0.41,magenta,0,0.05,0.05,0.15,-0.27,0.27,red,l,307342,23,2020-08-05_16h59.03.653,CDT_GNG_IUS12,2020.1.2,MacIntel,60,l,1,0.735,0,91,91,41,1,,,,,,,,,,,,,,,,,,,,,,,,,,,,,,,,,,,,,,,,,,,,,,,,
,,,,,,,,,,,,98,different,8,0.41,0.27,black,1,0.14,-0.27,yellow,1,-0.14,-0.27,cyan,1,-0.27,0.14,red,1,0.27,0.27,green,1,0.41,-0.41,magenta,1,-0.41,-0.14,blue,1,-0.41,0.41,orange,1,0.05,0.05,0.15,0.41,0.27,red,l,307342,23,2020-08-05_16h59.03.653,CDT_GNG_IUS12,2020.1.2,MacIntel,60,l,1,0.777,0,92,92,97,1,,,,,,,,,,,,,,,,,,,,,,,,,,,,,,,,,,,,,,,,,,,,,,,,
,,,,,,,,,,,,18,same,4,0.41,0.27,orange,1,0.14,-0.27,blue,1,-0.27,-0.41,yellow,1,-0.41,0.27,magenta,1,0.14,0.41,red,0,0.14,-0.14,black,0,-0.41,-0.27,green,0,-0.41,0.41,cyan,0,0.05,0.05,0.15,0.14,-0.27,blue,k,307342,23,2020-08-05_16h59.03.653,CDT_GNG_IUS12,2020.1.2,MacIntel,60,k,1,1.023,0,93,93,17,1,,,,,,,,,,,,,,,,,,,,,,,,,,,,,,,,,,,,,,,,,,,,,,,,
,,,,,,,,,,,,4,same,4,0.41,0.27,magenta,1,0.27,-0.41,orange,1,-0.41,-0.41,red,1,-0.14,0.41,green,1,0.27,0.41,blue,0,0.14,-0.41,black,0,-0.27,-0.14,cyan,0,-0.41,0.27,yellow,0,0.05,0.05,0.15,0.27,-0.41,orange,k,307342,23,2020-08-05_16h59.03.653,CDT_GNG_IUS12,2020.1.2,MacIntel,60,l,0,1.106,0,94,94,3,1,,,,,,,,,,,,,,,,,,,,,,,,,,,,,,,,,,,,,,,,,,,,,,,,
,,,,,,,,,,,,99,different,8,0.14,0.27,blue,1,0.41,-0.41,yellow,1,-0.14,-0.14,green,1,-0.41,0.14,black,1,0.41,0.27,red,1,0.27,-0.27,magenta,1,-0.27,-0.27,orange,1,-0.27,0.27,cyan,1,0.05,0.05,0.15,0.14,0.27,black,l,307342,23,2020-08-05_16h59.03.653,CDT_GNG_IUS12,2020.1.2,MacIntel,60,l,1,0.818,0,95,95,98,1,,,,,,,,,,,,,,,,,,,,,,,,,,,,,,,,,,,,,,,,,,,,,,,,
,,,,,,,,,,,,8,same,4,0.27,0.41,orange,1,0.41,-0.14,cyan,1,-0.14,-0.41,green,1,-0.14,0.41,black,1,0.41,0.41,blue,0,0.27,-0.41,yellow,0,-0.41,-0.27,red,0,-0.41,0.41,magenta,0,0.05,0.05,0.15,-0.14,-0.41,green,k,307342,23,2020-08-05_16h59.03.653,CDT_GNG_IUS12,2020.1.2,MacIntel,60,k,1,1.101,0,96,96,7,1,,,,,,,,,,,,,,,,,,,,,,,,,,,,,,,,,,,,,,,,,,,,,,,,
,,,,,,,,,,,,23,same,4,0.41,0.14,cyan,1,0.14,-0.27,magenta,1,-0.14,-0.27,red,1,-0.14,0.27,green,1,0.41,0.27,blue,0,0.14,-0.41,yellow,0,-0.41,-0.27,orange,0,-0.27,0.41,black,0,0.05,0.05,0.15,-0.14,0.27,green,k,307342,23,2020-08-05_16h59.03.653,CDT_GNG_IUS12,2020.1.2,MacIntel,60,k,1,0.399,0,97,97,22,1,,,,,,,,,,,,,,,,,,,,,,,,,,,,,,,,,,,,,,,,,,,,,,,,
,,,,,,,,,,,,60,different,4,0.41,0.14,cyan,1,0.14,-0.41,green,1,-0.41,-0.41,yellow,1,-0.41,0.41,magenta,1,0.14,0.14,orange,0,0.41,-0.41,red,0,-0.14,-0.41,black,0,-0.27,0.27,blue,0,0.05,0.05,0.15,0.41,0.14,blue,l,307342,23,2020-08-05_16h59.03.653,CDT_GNG_IUS12,2020.1.2,MacIntel,60,l,1,0.599,0,98,98,59,1,,,,,,,,,,,,,,,,,,,,,,,,,,,,,,,,,,,,,,,,,,,,,,,,
,,,,,,,,,,,,13,same,4,0.41,0.41,black,1,0.14,-0.14,red,1,-0.14,-0.14,orange,1,-0.14,0.14,cyan,1,0.14,0.14,green,0,0.27,-0.27,magenta,0,-0.27,-0.14,yellow,0,-0.14,0.41,blue,0,0.05,0.05,0.15,0.41,0.41,black,k,307342,23,2020-08-05_16h59.03.653,CDT_GNG_IUS12,2020.1.2,MacIntel,60,k,1,0.785,0,99,99,12,1,,,,,,,,,,,,,,,,,,,,,,,,,,,,,,,,,,,,,,,,,,,,,,,,
,,,,,,,,,,,,30,same,4,0.14,0.41,black,1,0.41,-0.27,yellow,1,-0.14,-0.27,green,1,-0.41,0.14,orange,1,0.41,0.27,blue,0,0.14,-0.41,magenta,0,-0.27,-0.27,cyan,0,-0.41,0.41,red,0,0.05,0.05,0.15,0.14,0.41,black,k,307342,23,2020-08-05_16h59.03.653,CDT_GNG_IUS12,2020.1.2,MacIntel,60,k,1,0.507,0,100,100,29,1,,,,,,,,,,,,,,,,,,,,,,,,,,,,,,,,,,,,,,,,,,,,,,,,
,,,,,,,,,,,,70,same,8,0.41,0.41,black,1,0.14,-0.27,red,1,-0.41,-0.41,magenta,1,-0.27,0.41,green,1,0.27,0.14,yellow,1,0.41,-0.41,orange,1,-0.27,-0.14,blue,1,-0.27,0.27,cyan,1,0.05,0.05,0.15,0.14,-0.27,red,k,307342,23,2020-08-05_16h59.03.653,CDT_GNG_IUS12,2020.1.2,MacIntel,60,l,0,0.991,0,101,101,69,1,,,,,,,,,,,,,,,,,,,,,,,,,,,,,,,,,,,,,,,,,,,,,,,,
,,,,,,,,,,,,37,different,4,0.41,0.41,yellow,1,0.27,-0.14,black,1,-0.14,-0.14,orange,1,-0.41,0.14,green,1,0.14,0.14,cyan,0,0.27,-0.41,blue,0,-0.14,-0.27,magenta,0,-0.14,0.14,red,0,0.05,0.05,0.15,0.41,0.41,red,l,307342,23,2020-08-05_16h59.03.653,CDT_GNG_IUS12,2020.1.2,MacIntel,60,k,0,1.666,0,102,102,36,1,,,,,,,,,,,,,,,,,,,,,,,,,,,,,,,,,,,,,,,,,,,,,,,,
,,,,,,,,,,,,29,same,4,0.14,0.27,black,1,0.41,-0.14,blue,1,-0.41,-0.14,magenta,1,-0.27,0.27,green,1,0.27,0.27,yellow,0,0.41,-0.41,orange,0,-0.41,-0.27,cyan,0,-0.14,0.14,red,0,0.05,0.05,0.15,0.41,-0.14,blue,k,307342,23,2020-08-05_16h59.03.653,CDT_GNG_IUS12,2020.1.2,MacIntel,60,k,1,0.788,0,103,103,28,1,,,,,,,,,,,,,,,,,,,,,,,,,,,,,,,,,,,,,,,,,,,,,,,,
,,,,,,,,,,,,28,same,4,0.41,0.41,magenta,1,0.27,-0.14,blue,1,-0.14,-0.14,red,1,-0.14,0.41,orange,1,0.14,0.14,black,0,0.41,-0.14,green,0,-0.27,-0.14,yellow,0,-0.14,0.27,cyan,0,0.05,0.05,0.15,0.27,-0.14,blue,k,307342,23,2020-08-05_16h59.03.653,CDT_GNG_IUS12,2020.1.2,MacIntel,60,k,1,0.507,0,104,104,27,1,,,,,,,,,,,,,,,,,,,,,,,,,,,,,,,,,,,,,,,,,,,,,,,,
,,,,,,,,,,,,119,different,8,0.27,0.27,green,1,0.27,-0.14,orange,1,-0.41,-0.41,cyan,1,-0.27,0.27,blue,1,0.41,0.27,black,1,0.14,-0.41,red,1,-0.14,-0.41,yellow,1,-0.41,0.27,magenta,1,0.05,0.05,0.15,-0.41,0.27,cyan,l,307342,23,2020-08-05_16h59.03.653,CDT_GNG_IUS12,2020.1.2,MacIntel,60,l,1,0.574,0,105,105,118,1,,,,,,,,,,,,,,,,,,,,,,,,,,,,,,,,,,,,,,,,,,,,,,,,
,,,,,,,,,,,,10,same,4,0.14,0.41,magenta,1,0.41,-0.14,black,1,-0.27,-0.27,orange,1,-0.41,0.27,green,1,0.27,0.41,blue,0,0.41,-0.41,yellow,0,-0.41,-0.41,cyan,0,-0.27,0.27,red,0,0.05,0.05,0.15,0.41,-0.14,black,k,307342,23,2020-08-05_16h59.03.653,CDT_GNG_IUS12,2020.1.2,MacIntel,60,k,1,0.874,0,106,106,9,1,,,,,,,,,,,,,,,,,,,,,,,,,,,,,,,,,,,,,,,,,,,,,,,,
,,,,,,,,,,,,41,different,4,0.41,0.41,green,1,0.27,-0.41,orange,1,-0.27,-0.41,black,1,-0.27,0.41,magenta,1,0.14,0.41,cyan,0,0.41,-0.27,blue,0,-0.14,-0.27,red,0,-0.27,0.14,yellow,0,0.05,0.05,0.15,-0.27,-0.41,cyan,l,307342,23,2020-08-05_16h59.03.653,CDT_GNG_IUS12,2020.1.2,MacIntel,60,l,1,0.683,0,107,107,40,1,,,,,,,,,,,,,,,,,,,,,,,,,,,,,,,,,,,,,,,,,,,,,,,,
,,,,,,,,,,,,94,different,8,0.41,0.27,yellow,1,0.41,-0.27,blue,1,-0.41,-0.14,magenta,1,-0.41,0.27,orange,1,0.41,0.41,red,1,0.41,-0.41,green,1,-0.14,-0.14,black,1,-0.41,0.14,cyan,1,0.05,0.05,0.15,-0.41,0.14,black,l,307342,23,2020-08-05_16h59.03.653,CDT_GNG_IUS12,2020.1.2,MacIntel,60,l,1,1.384,0,108,108,93,1,,,,,,,,,,,,,,,,,,,,,,,,,,,,,,,,,,,,,,,,,,,,,,,,
,,,,,,,,,,,,102,different,8,0.14,0.27,yellow,1,0.14,-0.41,green,1,-0.41,-0.27,red,1,-0.14,0.41,orange,1,0.41,0.41,magenta,1,0.27,-0.41,blue,1,-0.27,-0.41,cyan,1,-0.27,0.27,black,1,0.05,0.05,0.15,-0.27,0.27,yellow,l,307342,23,2020-08-05_16h59.03.653,CDT_GNG_IUS12,2020.1.2,MacIntel,60,k,0,1.182,0,109,109,101,1,,,,,,,,,,,,,,,,,,,,,,,,,,,,,,,,,,,,,,,,,,,,,,,,
,,,,,,,,,,,,85,same,8,0.14,0.41,green,1,0.14,-0.41,magenta,1,-0.41,-0.14,black,1,-0.14,0.27,blue,1,0.27,0.27,orange,1,0.41,-0.41,red,1,-0.27,-0.14,cyan,1,-0.41,0.27,yellow,1,0.05,0.05,0.15,0.27,0.27,orange,k,307342,23,2020-08-05_16h59.03.653,CDT_GNG_IUS12,2020.1.2,MacIntel,60,k,1,1.401,0,110,110,84,1,,,,,,,,,,,,,,,,,,,,,,,,,,,,,,,,,,,,,,,,,,,,,,,,
,,,,,,,,,,,,12,same,4,0.14,0.41,red,1,0.14,-0.41,green,1,-0.41,-0.41,black,1,-0.27,0.27,cyan,1,0.27,0.41,magenta,0,0.41,-0.14,orange,0,-0.27,-0.41,yellow,0,-0.41,0.27,blue,0,0.05,0.05,0.15,-0.41,-0.41,black,k,307342,23,2020-08-05_16h59.03.653,CDT_GNG_IUS12,2020.1.2,MacIntel,60,k,1,0.672,0,111,111,11,1,,,,,,,,,,,,,,,,,,,,,,,,,,,,,,,,,,,,,,,,,,,,,,,,
,,,,,,,,,,,,116,different,8,0.27,0.14,green,1,0.41,-0.14,black,1,-0.27,-0.41,magenta,1,-0.41,0.14,cyan,1,0.41,0.41,blue,1,0.41,-0.27,yellow,1,-0.41,-0.27,red,1,-0.27,0.14,orange,1,0.05,0.05,0.15,0.41,-0.27,magenta,l,307342,23,2020-08-05_16h59.03.653,CDT_GNG_IUS12,2020.1.2,MacIntel,60,k,0,0.755,0,112,112,115,1,,,,,,,,,,,,,,,,,,,,,,,,,,,,,,,,,,,,,,,,,,,,,,,,
,,,,,,,,,,,,35,different,4,0.27,0.41,orange,1,0.41,-0.14,cyan,1,-0.27,-0.27,green,1,-0.14,0.27,yellow,1,0.41,0.27,black,0,0.41,-0.41,magenta,0,-0.14,-0.14,blue,0,-0.27,0.14,red,0,0.05,0.05,0.15,-0.14,0.27,blue,l,307342,23,2020-08-05_16h59.03.653,CDT_GNG_IUS12,2020.1.2,MacIntel,60,l,1,0.682,0,113,113,34,1,,,,,,,,,,,,,,,,,,,,,,,,,,,,,,,,,,,,,,,,,,,,,,,,
,,,,,,,,,,,,40,different,4,0.41,0.41,magenta,1,0.41,-0.27,cyan,1,-0.27,-0.41,yellow,1,-0.14,0.41,black,1,0.27,0.27,blue,0,0.41,-0.41,green,0,-0.14,-0.27,red,0,-0.27,0.27,orange,0,0.05,0.05,0.15,-0.27,-0.41,orange,l,307342,23,2020-08-05_16h59.03.653,CDT_GNG_IUS12,2020.1.2,MacIntel,60,k,0,0.808,0,114,114,39,1,,,,,,,,,,,,,,,,,,,,,,,,,,,,,,,,,,,,,,,,,,,,,,,,
,,,,,,,,,,,,64,same,8,0.41,0.14,green,1,0.14,-0.41,cyan,1,-0.14,-0.14,yellow,1,-0.14,0.27,red,1,0.27,0.14,blue,1,0.27,-0.27,magenta,1,-0.14,-0.27,orange,1,-0.14,0.41,black,1,0.05,0.05,0.15,-0.14,0.27,red,k,307342,23,2020-08-05_16h59.03.653,CDT_GNG_IUS12,2020.1.2,MacIntel,60,k,1,1.216,0,115,115,63,1,,,,,,,,,,,,,,,,,,,,,,,,,,,,,,,,,,,,,,,,,,,,,,,,
,,,,,,,,,,,,59,different,4,0.27,0.41,black,1,0.41,-0.14,blue,1,-0.27,-0.27,cyan,1,-0.14,0.41,green,1,0.14,0.27,red,0,0.41,-0.41,magenta,0,-0.14,-0.27,orange,0,-0.41,0.27,yellow,0,0.05,0.05,0.15,0.27,0.41,yellow,l,307342,23,2020-08-05_16h59.03.653,CDT_GNG_IUS12,2020.1.2,MacIntel,60,l,1,0.838,0,116,116,58,1,,,,,,,,,,,,,,,,,,,,,,,,,,,,,,,,,,,,,,,,,,,,,,,,
,,,,,,,,,,,,54,different,4,0.14,0.14,yellow,1,0.41,-0.41,magenta,1,-0.14,-0.41,black,1,-0.14,0.27,orange,1,0.41,0.27,cyan,0,0.41,-0.27,red,0,-0.27,-0.14,green,0,-0.27,0.27,blue,0,0.05,0.05,0.15,0.41,-0.41,cyan,l,307342,23,2020-08-05_16h59.03.653,CDT_GNG_IUS12,2020.1.2,MacIntel,60,k,0,1.27,0,117,117,53,1,,,,,,,,,,,,,,,,,,,,,,,,,,,,,,,,,,,,,,,,,,,,,,,,
,,,,,,,,,,,,107,different,8,0.27,0.41,green,1,0.27,-0.41,cyan,1,-0.41,-0.41,black,1,-0.14,0.41,blue,1,0.14,0.14,red,1,0.27,-0.27,yellow,1,-0.14,-0.41,magenta,1,-0.14,0.14,orange,1,0.05,0.05,0.15,-0.14,0.14,black,l,307342,23,2020-08-05_16h59.03.653,CDT_GNG_IUS12,2020.1.2,MacIntel,60,l,1,0.725,0,118,118,106,1,,,,,,,,,,,,,,,,,,,,,,,,,,,,,,,,,,,,,,,,,,,,,,,,
,,,,,,,,,,,,101,different,8,0.14,0.27,magenta,1,0.14,-0.27,cyan,1,-0.41,-0.14,yellow,1,-0.41,0.14,black,1,0.14,0.41,red,1,0.41,-0.41,blue,1,-0.14,-0.41,green,1,-0.27,0.27,orange,1,0.05,0.05,0.15,-0.41,0.14,magenta,l,307342,23,2020-08-05_16h59.03.653,CDT_GNG_IUS12,2020.1.2,MacIntel,60,l,1,0.773,0,119,119,100,1,,,,,,,,,,,,,,,,,,,,,,,,,,,,,,,,,,,,,,,,,,,,,,,,
,,,,,,,,,,,,,,,,,,,,,,,,,,,,,,,,,,,,,,,,,,,,,,,,,,,,,,307342,23,2020-08-05_16h59.03.653,CDT_GNG_IUS12,2020.1.2,MacIntel,60,,,,,,,,,,1,0,0,0,0,1,1,0,,,,,,,,,,,,,,,,,,,,,,,,,,,,,,,,,,,,,,,
,,,,,,,,,,,,,,,,,,,,,,,,,,,,,,,,,,,,,,,,,,,,,,,,,,,,,,307342,23,2020-08-05_16h59.03.653,CDT_GNG_IUS12,2020.1.2,MacIntel,60,,,,,,,,,,1,0,1,1,2,1,1,0,,,,,,,,,,,,,,,,,,,,,,,,,,,,,,,,,,,,,,,
,,,,,,,,,,,,,,,,,,,,,,,,,,,,,,,,,,,,,,,,,,,,,,,,,,,,,space,307342,23,2020-08-05_16h59.03.653,CDT_GNG_IUS12,2020.1.2,MacIntel,60,,,,,,,,,space,1,0,2,2,7,1,0,1,0.287,,,,,,,,,,,,,,,,,,,,,,,,,,,,,,,,,,,,,,
,,,,,,,,,,,,,,,,,,,,,,,,,,,,,,,,,,,,,,,,,,,,,,,,,,,,,space,307342,23,2020-08-05_16h59.03.653,CDT_GNG_IUS12,2020.1.2,MacIntel,60,,,,,,,,,space,1,0,3,3,4,1,0,1,0.315,,,,,,,,,,,,,,,,,,,,,,,,,,,,,,,,,,,,,,
,,,,,,,,,,,,,,,,,,,,,,,,,,,,,,,,,,,,,,,,,,,,,,,,,,,,,,307342,23,2020-08-05_16h59.03.653,CDT_GNG_IUS12,2020.1.2,MacIntel,60,,,,,,,,,,1,0,4,4,1,1,1,0,,,,,,,,,,,,,,,,,,,,,,,,,,,,,,,,,,,,,,,
,,,,,,,,,,,,,,,,,,,,,,,,,,,,,,,,,,,,,,,,,,,,,,,,,,,,,space,307342,23,2020-08-05_16h59.03.653,CDT_GNG_IUS12,2020.1.2,MacIntel,60,,,,,,,,,space,1,0,5,5,5,1,0,1,0.42,,,,,,,,,,,,,,,,,,,,,,,,,,,,,,,,,,,,,,
,,,,,,,,,,,,,,,,,,,,,,,,,,,,,,,,,,,,,,,,,,,,,,,,,,,,,space,307342,23,2020-08-05_16h59.03.653,CDT_GNG_IUS12,2020.1.2,MacIntel,60,,,,,,,,,space,1,0,6,6,6,1,0,1,0.314,,,,,,,,,,,,,,,,,,,,,,,,,,,,,,,,,,,,,,
,,,,,,,,,,,,,,,,,,,,,,,,,,,,,,,,,,,,,,,,,,,,,,,,,,,,,,307342,23,2020-08-05_16h59.03.653,CDT_GNG_IUS12,2020.1.2,MacIntel,60,,,,,,,,,,1,0,7,7,3,1,1,0,,,,,,,,,,,,,,,,,,,,,,,,,,,,,,,,,,,,,,,
,,,,,,,,,,,,,,,,,,,,,,,,,,,,,,,,,,,,,,,,,,,,,,,,,,,,,space,307342,23,2020-08-05_16h59.03.653,CDT_GNG_IUS12,2020.1.2,MacIntel,60,,,,,,,,,,,,,,,,0,1,,space,1,0.352,0,0,0,20,1,,,,,,,,,,,,,,,,,,,,,,,,,,,,,,
,,,,,,,,,,,,,,,,,,,,,,,,,,,,,,,,,,,,,,,,,,,,,,,,,,,,,space,307342,23,2020-08-05_16h59.03.653,CDT_GNG_IUS12,2020.1.2,MacIntel,60,,,,,,,,,,,,,,,,0,1,,space,1,0.312,0,1,1,14,1,,,,,,,,,,,,,,,,,,,,,,,,,,,,,,
,,,,,,,,,,,,,,,,,,,,,,,,,,,,,,,,,,,,,,,,,,,,,,,,,,,,,,307342,23,2020-08-05_16h59.03.653,CDT_GNG_IUS12,2020.1.2,MacIntel,60,,,,,,,,,,,,,,,,1,0,,space,0,0.237,0,2,2,1,1,,,,,,,,,,,,,,,,,,,,,,,,,,,,,,
,,,,,,,,,,,,,,,,,,,,,,,,,,,,,,,,,,,,,,,,,,,,,,,,,,,,,space,307342,23,2020-08-05_16h59.03.653,CDT_GNG_IUS12,2020.1.2,MacIntel,60,,,,,,,,,,,,,,,,0,1,,space,1,0.248,0,3,3,32,1,,,,,,,,,,,,,,,,,,,,,,,,,,,,,,
,,,,,,,,,,,,,,,,,,,,,,,,,,,,,,,,,,,,,,,,,,,,,,,,,,,,,space,307342,23,2020-08-05_16h59.03.653,CDT_GNG_IUS12,2020.1.2,MacIntel,60,,,,,,,,,,,,,,,,0,1,,space,1,0.304,0,4,4,10,1,,,,,,,,,,,,,,,,,,,,,,,,,,,,,,
,,,,,,,,,,,,,,,,,,,,,,,,,,,,,,,,,,,,,,,,,,,,,,,,,,,,,space,307342,23,2020-08-05_16h59.03.653,CDT_GNG_IUS12,2020.1.2,MacIntel,60,,,,,,,,,,,,,,,,0,1,,space,1,0.284,0,5,5,42,1,,,,,,,,,,,,,,,,,,,,,,,,,,,,,,
,,,,,,,,,,,,,,,,,,,,,,,,,,,,,,,,,,,,,,,,,,,,,,,,,,,,,space,307342,23,2020-08-05_16h59.03.653,CDT_GNG_IUS12,2020.1.2,MacIntel,60,,,,,,,,,,,,,,,,0,1,,space,1,0.252,0,6,6,17,1,,,,,,,,,,,,,,,,,,,,,,,,,,,,,,
,,,,,,,,,,,,,,,,,,,,,,,,,,,,,,,,,,,,,,,,,,,,,,,,,,,,,space,307342,23,2020-08-05_16h59.03.653,CDT_GNG_IUS12,2020.1.2,MacIntel,60,,,,,,,,,,,,,,,,0,1,,space,1,0.23,0,7,7,28,1,,,,,,,,,,,,,,,,,,,,,,,,,,,,,,
,,,,,,,,,,,,,,,,,,,,,,,,,,,,,,,,,,,,,,,,,,,,,,,,,,,,,,307342,23,2020-08-05_16h59.03.653,CDT_GNG_IUS12,2020.1.2,MacIntel,60,,,,,,,,,,,,,,,,1,0,,space,0,0.232,0,8,8,6,1,,,,,,,,,,,,,,,,,,,,,,,,,,,,,,
,,,,,,,,,,,,,,,,,,,,,,,,,,,,,,,,,,,,,,,,,,,,,,,,,,,,,space,307342,23,2020-08-05_16h59.03.653,CDT_GNG_IUS12,2020.1.2,MacIntel,60,,,,,,,,,,,,,,,,0,1,,space,1,0.218,0,9,9,37,1,,,,,,,,,,,,,,,,,,,,,,,,,,,,,,
,,,,,,,,,,,,,,,,,,,,,,,,,,,,,,,,,,,,,,,,,,,,,,,,,,,,,space,307342,23,2020-08-05_16h59.03.653,CDT_GNG_IUS12,2020.1.2,MacIntel,60,,,,,,,,,,,,,,,,0,1,,space,1,0.28,0,10,10,12,1,,,,,,,,,,,,,,,,,,,,,,,,,,,,,,
,,,,,,,,,,,,,,,,,,,,,,,,,,,,,,,,,,,,,,,,,,,,,,,,,,,,,,307342,23,2020-08-05_16h59.03.653,CDT_GNG_IUS12,2020.1.2,MacIntel,60,,,,,,,,,,,,,,,,1,0,,,1,,0,11,11,7,1,,,,,,,,,,,,,,,,,,,,,,,,,,,,,,
,,,,,,,,,,,,,,,,,,,,,,,,,,,,,,,,,,,,,,,,,,,,,,,,,,,,,,307342,23,2020-08-05_16h59.03.653,CDT_GNG_IUS12,2020.1.2,MacIntel,60,,,,,,,,,,,,,,,,1,0,,,1,,0,12,12,3,1,,,,,,,,,,,,,,,,,,,,,,,,,,,,,,
,,,,,,,,,,,,,,,,,,,,,,,,,,,,,,,,,,,,,,,,,,,,,,,,,,,,,space,307342,23,2020-08-05_16h59.03.653,CDT_GNG_IUS12,2020.1.2,MacIntel,60,,,,,,,,,,,,,,,,0,1,,space,1,0.221,0,13,13,43,1,,,,,,,,,,,,,,,,,,,,,,,,,,,,,,
,,,,,,,,,,,,,,,,,,,,,,,,,,,,,,,,,,,,,,,,,,,,,,,,,,,,,,307342,23,2020-08-05_16h59.03.653,CDT_GNG_IUS12,2020.1.2,MacIntel,60,,,,,,,,,,,,,,,,1,0,,,1,,0,14,14,2,1,,,,,,,,,,,,,,,,,,,,,,,,,,,,,,
,,,,,,,,,,,,,,,,,,,,,,,,,,,,,,,,,,,,,,,,,,,,,,,,,,,,,,307342,23,2020-08-05_16h59.03.653,CDT_GNG_IUS12,2020.1.2,MacIntel,60,,,,,,,,,,,,,,,,1,0,,space,0,0.249,0,15,15,5,1,,,,,,,,,,,,,,,,,,,,,,,,,,,,,,
,,,,,,,,,,,,,,,,,,,,,,,,,,,,,,,,,,,,,,,,,,,,,,,,,,,,,space,307342,23,2020-08-05_16h59.03.653,CDT_GNG_IUS12,2020.1.2,MacIntel,60,,,,,,,,,,,,,,,,0,1,,space,1,0.447,0,16,16,35,1,,,,,,,,,,,,,,,,,,,,,,,,,,,,,,
,,,,,,,,,,,,,,,,,,,,,,,,,,,,,,,,,,,,,,,,,,,,,,,,,,,,,space,307342,23,2020-08-05_16h59.03.653,CDT_GNG_IUS12,2020.1.2,MacIntel,60,,,,,,,,,,,,,,,,0,1,,space,1,0.331,0,17,17,27,1,,,,,,,,,,,,,,,,,,,,,,,,,,,,,,
,,,,,,,,,,,,,,,,,,,,,,,,,,,,,,,,,,,,,,,,,,,,,,,,,,,,,space,307342,23,2020-08-05_16h59.03.653,CDT_GNG_IUS12,2020.1.2,MacIntel,60,,,,,,,,,,,,,,,,0,1,,space,1,0.166,0,18,18,21,1,,,,,,,,,,,,,,,,,,,,,,,,,,,,,,
,,,,,,,,,,,,,,,,,,,,,,,,,,,,,,,,,,,,,,,,,,,,,,,,,,,,,space,307342,23,2020-08-05_16h59.03.653,CDT_GNG_IUS12,2020.1.2,MacIntel,60,,,,,,,,,,,,,,,,0,1,,space,1,0.265,0,19,19,48,1,,,,,,,,,,,,,,,,,,,,,,,,,,,,,,
,,,,,,,,,,,,,,,,,,,,,,,,,,,,,,,,,,,,,,,,,,,,,,,,,,,,,,307342,23,2020-08-05_16h59.03.653,CDT_GNG_IUS12,2020.1.2,MacIntel,60,,,,,,,,,,,,,,,,1,0,,space,0,0.23,0,20,20,8,1,,,,,,,,,,,,,,,,,,,,,,,,,,,,,,
,,,,,,,,,,,,,,,,,,,,,,,,,,,,,,,,,,,,,,,,,,,,,,,,,,,,,space,307342,23,2020-08-05_16h59.03.653,CDT_GNG_IUS12,2020.1.2,MacIntel,60,,,,,,,,,,,,,,,,0,1,,space,1,0.301,0,21,21,30,1,,,,,,,,,,,,,,,,,,,,,,,,,,,,,,
,,,,,,,,,,,,,,,,,,,,,,,,,,,,,,,,,,,,,,,,,,,,,,,,,,,,,space,307342,23,2020-08-05_16h59.03.653,CDT_GNG_IUS12,2020.1.2,MacIntel,60,,,,,,,,,,,,,,,,0,1,,space,1,0.347,0,22,22,16,1,,,,,,,,,,,,,,,,,,,,,,,,,,,,,,
,,,,,,,,,,,,,,,,,,,,,,,,,,,,,,,,,,,,,,,,,,,,,,,,,,,,,,307342,23,2020-08-05_16h59.03.653,CDT_GNG_IUS12,2020.1.2,MacIntel,60,,,,,,,,,,,,,,,,1,0,,,1,,0,23,23,9,1,,,,,,,,,,,,,,,,,,,,,,,,,,,,,,
,,,,,,,,,,,,,,,,,,,,,,,,,,,,,,,,,,,,,,,,,,,,,,,,,,,,,space,307342,23,2020-08-05_16h59.03.653,CDT_GNG_IUS12,2020.1.2,MacIntel,60,,,,,,,,,,,,,,,,0,1,,space,1,0.249,0,24,24,41,1,,,,,,,,,,,,,,,,,,,,,,,,,,,,,,
,,,,,,,,,,,,,,,,,,,,,,,,,,,,,,,,,,,,,,,,,,,,,,,,,,,,,space,307342,23,2020-08-05_16h59.03.653,CDT_GNG_IUS12,2020.1.2,MacIntel,60,,,,,,,,,,,,,,,,0,1,,space,1,0.27,0,25,25,18,1,,,,,,,,,,,,,,,,,,,,,,,,,,,,,,
,,,,,,,,,,,,,,,,,,,,,,,,,,,,,,,,,,,,,,,,,,,,,,,,,,,,,space,307342,23,2020-08-05_16h59.03.653,CDT_GNG_IUS12,2020.1.2,MacIntel,60,,,,,,,,,,,,,,,,0,1,,space,1,0.281,0,26,26,33,1,,,,,,,,,,,,,,,,,,,,,,,,,,,,,,
,,,,,,,,,,,,,,,,,,,,,,,,,,,,,,,,,,,,,,,,,,,,,,,,,,,,,space,307342,23,2020-08-05_16h59.03.653,CDT_GNG_IUS12,2020.1.2,MacIntel,60,,,,,,,,,,,,,,,,0,1,,space,1,0.314,0,27,27,49,1,,,,,,,,,,,,,,,,,,,,,,,,,,,,,,
,,,,,,,,,,,,,,,,,,,,,,,,,,,,,,,,,,,,,,,,,,,,,,,,,,,,,space,307342,23,2020-08-05_16h59.03.653,CDT_GNG_IUS12,2020.1.2,MacIntel,60,,,,,,,,,,,,,,,,0,1,,space,1,0.238,0,28,28,22,1,,,,,,,,,,,,,,,,,,,,,,,,,,,,,,
,,,,,,,,,,,,,,,,,,,,,,,,,,,,,,,,,,,,,,,,,,,,,,,,,,,,,space,307342,23,2020-08-05_16h59.03.653,CDT_GNG_IUS12,2020.1.2,MacIntel,60,,,,,,,,,,,,,,,,0,1,,space,1,0.282,0,29,29,26,1,,,,,,,,,,,,,,,,,,,,,,,,,,,,,,
,,,,,,,,,,,,,,,,,,,,,,,,,,,,,,,,,,,,,,,,,,,,,,,,,,,,,,307342,23,2020-08-05_16h59.03.653,CDT_GNG_IUS12,2020.1.2,MacIntel,60,,,,,,,,,,,,,,,,1,0,,,1,,0,30,30,0,1,,,,,,,,,,,,,,,,,,,,,,,,,,,,,,
,,,,,,,,,,,,,,,,,,,,,,,,,,,,,,,,,,,,,,,,,,,,,,,,,,,,,space,307342,23,2020-08-05_16h59.03.653,CDT_GNG_IUS12,2020.1.2,MacIntel,60,,,,,,,,,,,,,,,,0,1,,space,1,0.113,0,31,31,36,1,,,,,,,,,,,,,,,,,,,,,,,,,,,,,,
,,,,,,,,,,,,,,,,,,,,,,,,,,,,,,,,,,,,,,,,,,,,,,,,,,,,,space,307342,23,2020-08-05_16h59.03.653,CDT_GNG_IUS12,2020.1.2,MacIntel,60,,,,,,,,,,,,,,,,0,1,,space,1,0.264,0,32,32,45,1,,,,,,,,,,,,,,,,,,,,,,,,,,,,,,
,,,,,,,,,,,,,,,,,,,,,,,,,,,,,,,,,,,,,,,,,,,,,,,,,,,,,space,307342,23,2020-08-05_16h59.03.653,CDT_GNG_IUS12,2020.1.2,MacIntel,60,,,,,,,,,,,,,,,,0,1,,space,1,0.268,0,33,33,34,1,,,,,,,,,,,,,,,,,,,,,,,,,,,,,,
,,,,,,,,,,,,,,,,,,,,,,,,,,,,,,,,,,,,,,,,,,,,,,,,,,,,,space,307342,23,2020-08-05_16h59.03.653,CDT_GNG_IUS12,2020.1.2,MacIntel,60,,,,,,,,,,,,,,,,0,1,,space,1,0.268,0,34,34,11,1,,,,,,,,,,,,,,,,,,,,,,,,,,,,,,
,,,,,,,,,,,,,,,,,,,,,,,,,,,,,,,,,,,,,,,,,,,,,,,,,,,,,space,307342,23,2020-08-05_16h59.03.653,CDT_GNG_IUS12,2020.1.2,MacIntel,60,,,,,,,,,,,,,,,,0,1,,space,1,0.264,0,35,35,40,1,,,,,,,,,,,,,,,,,,,,,,,,,,,,,,
,,,,,,,,,,,,,,,,,,,,,,,,,,,,,,,,,,,,,,,,,,,,,,,,,,,,,space,307342,23,2020-08-05_16h59.03.653,CDT_GNG_IUS12,2020.1.2,MacIntel,60,,,,,,,,,,,,,,,,0,1,,space,1,0.236,0,36,36,44,1,,,,,,,,,,,,,,,,,,,,,,,,,,,,,,
,,,,,,,,,,,,,,,,,,,,,,,,,,,,,,,,,,,,,,,,,,,,,,,,,,,,,space,307342,23,2020-08-05_16h59.03.653,CDT_GNG_IUS12,2020.1.2,MacIntel,60,,,,,,,,,,,,,,,,0,1,,space,1,0.238,0,37,37,24,1,,,,,,,,,,,,,,,,,,,,,,,,,,,,,,
,,,,,,,,,,,,,,,,,,,,,,,,,,,,,,,,,,,,,,,,,,,,,,,,,,,,,space,307342,23,2020-08-05_16h59.03.653,CDT_GNG_IUS12,2020.1.2,MacIntel,60,,,,,,,,,,,,,,,,0,1,,space,1,0.219,0,38,38,39,1,,,,,,,,,,,,,,,,,,,,,,,,,,,,,,
,,,,,,,,,,,,,,,,,,,,,,,,,,,,,,,,,,,,,,,,,,,,,,,,,,,,,space,307342,23,2020-08-05_16h59.03.653,CDT_GNG_IUS12,2020.1.2,MacIntel,60,,,,,,,,,,,,,,,,0,1,,space,1,0.248,0,39,39,19,1,,,,,,,,,,,,,,,,,,,,,,,,,,,,,,
,,,,,,,,,,,,,,,,,,,,,,,,,,,,,,,,,,,,,,,,,,,,,,,,,,,,,space,307342,23,2020-08-05_16h59.03.653,CDT_GNG_IUS12,2020.1.2,MacIntel,60,,,,,,,,,,,,,,,,0,1,,space,1,0.22,0,40,40,29,1,,,,,,,,,,,,,,,,,,,,,,,,,,,,,,
,,,,,,,,,,,,,,,,,,,,,,,,,,,,,,,,,,,,,,,,,,,,,,,,,,,,,space,307342,23,2020-08-05_16h59.03.653,CDT_GNG_IUS12,2020.1.2,MacIntel,60,,,,,,,,,,,,,,,,0,1,,space,1,0.231,0,41,41,25,1,,,,,,,,,,,,,,,,,,,,,,,,,,,,,,
,,,,,,,,,,,,,,,,,,,,,,,,,,,,,,,,,,,,,,,,,,,,,,,,,,,,,space,307342,23,2020-08-05_16h59.03.653,CDT_GNG_IUS12,2020.1.2,MacIntel,60,,,,,,,,,,,,,,,,0,1,,space,1,0.198,0,42,42,15,1,,,,,,,,,,,,,,,,,,,,,,,,,,,,,,
,,,,,,,,,,,,,,,,,,,,,,,,,,,,,,,,,,,,,,,,,,,,,,,,,,,,,space,307342,23,2020-08-05_16h59.03.653,CDT_GNG_IUS12,2020.1.2,MacIntel,60,,,,,,,,,,,,,,,,0,1,,space,1,0.348,0,43,43,13,1,,,,,,,,,,,,,,,,,,,,,,,,,,,,,,
,,,,,,,,,,,,,,,,,,,,,,,,,,,,,,,,,,,,,,,,,,,,,,,,,,,,,space,307342,23,2020-08-05_16h59.03.653,CDT_GNG_IUS12,2020.1.2,MacIntel,60,,,,,,,,,,,,,,,,0,1,,space,1,0.316,0,44,44,31,1,,,,,,,,,,,,,,,,,,,,,,,,,,,,,,
,,,,,,,,,,,,,,,,,,,,,,,,,,,,,,,,,,,,,,,,,,,,,,,,,,,,,space,307342,23,2020-08-05_16h59.03.653,CDT_GNG_IUS12,2020.1.2,MacIntel,60,,,,,,,,,,,,,,,,0,1,,space,1,0.266,0,45,45,23,1,,,,,,,,,,,,,,,,,,,,,,,,,,,,,,
,,,,,,,,,,,,,,,,,,,,,,,,,,,,,,,,,,,,,,,,,,,,,,,,,,,,,space,307342,23,2020-08-05_16h59.03.653,CDT_GNG_IUS12,2020.1.2,MacIntel,60,,,,,,,,,,,,,,,,0,1,,space,1,0.206,0,46,46,38,1,,,,,,,,,,,,,,,,,,,,,,,,,,,,,,
,,,,,,,,,,,,,,,,,,,,,,,,,,,,,,,,,,,,,,,,,,,,,,,,,,,,,space,307342,23,2020-08-05_16h59.03.653,CDT_GNG_IUS12,2020.1.2,MacIntel,60,,,,,,,,,,,,,,,,0,1,,space,1,0.183,0,47,47,46,1,,,,,,,,,,,,,,,,,,,,,,,,,,,,,,
,,,,,,,,,,,,,,,,,,,,,,,,,,,,,,,,,,,,,,,,,,,,,,,,,,,,,,307342,23,2020-08-05_16h59.03.653,CDT_GNG_IUS12,2020.1.2,MacIntel,60,,,,,,,,,,,,,,,,1,0,,space,0,0.136,0,48,48,4,1,,,,,,,,,,,,,,,,,,,,,,,,,,,,,,
,,,,,,,,,,,,,,,,,,,,,,,,,,,,,,,,,,,,,,,,,,,,,,,,,,,,,space,307342,23,2020-08-05_16h59.03.653,CDT_GNG_IUS12,2020.1.2,MacIntel,60,,,,,,,,,,,,,,,,0,1,,space,1,0.182,0,49,49,47,1,,,,,,,,,,,,,,,,,,,,,,,,,,,,,,
,,,,,,,,,,,,,,,,,,,,,,,,,,,,,,,,,,,,,,,,,,,,,,,,,,,,,space,307342,23,2020-08-05_16h59.03.653,CDT_GNG_IUS12,2020.1.2,MacIntel,60,,,,,,,,,,,,,,,,0,1,,space,1,0.268,,,,,,0,0,0,27,1,,,,,,,,,,,,,,,,,,,,,,,,,
,,,,,,,,,,,,,,,,,,,,,,,,,,,,,,,,,,,,,,,,,,,,,,,,,,,,,space,307342,23,2020-08-05_16h59.03.653,CDT_GNG_IUS12,2020.1.2,MacIntel,60,,,,,,,,,,,,,,,,0,1,,space,1,0.281,,,,,,0,1,1,39,1,,,,,,,,,,,,,,,,,,,,,,,,,
,,,,,,,,,,,,,,,,,,,,,,,,,,,,,,,,,,,,,,,,,,,,,,,,,,,,,space,307342,23,2020-08-05_16h59.03.653,CDT_GNG_IUS12,2020.1.2,MacIntel,60,,,,,,,,,,,,,,,,0,1,,space,1,0.25,,,,,,0,2,2,33,1,,,,,,,,,,,,,,,,,,,,,,,,,
,,,,,,,,,,,,,,,,,,,,,,,,,,,,,,,,,,,,,,,,,,,,,,,,,,,,,space,307342,23,2020-08-05_16h59.03.653,CDT_GNG_IUS12,2020.1.2,MacIntel,60,,,,,,,,,,,,,,,,0,1,,space,1,0.22,,,,,,0,3,3,32,1,,,,,,,,,,,,,,,,,,,,,,,,,
,,,,,,,,,,,,,,,,,,,,,,,,,,,,,,,,,,,,,,,,,,,,,,,,,,,,,space,307342,23,2020-08-05_16h59.03.653,CDT_GNG_IUS12,2020.1.2,MacIntel,60,,,,,,,,,,,,,,,,0,1,,space,1,0.165,,,,,,0,4,4,16,1,,,,,,,,,,,,,,,,,,,,,,,,,
,,,,,,,,,,,,,,,,,,,,,,,,,,,,,,,,,,,,,,,,,,,,,,,,,,,,,space,307342,23,2020-08-05_16h59.03.653,CDT_GNG_IUS12,2020.1.2,MacIntel,60,,,,,,,,,,,,,,,,0,1,,space,1,0.256,,,,,,0,5,5,37,1,,,,,,,,,,,,,,,,,,,,,,,,,
,,,,,,,,,,,,,,,,,,,,,,,,,,,,,,,,,,,,,,,,,,,,,,,,,,,,,space,307342,23,2020-08-05_16h59.03.653,CDT_GNG_IUS12,2020.1.2,MacIntel,60,,,,,,,,,,,,,,,,0,1,,space,1,0.385,,,,,,0,6,6,40,1,,,,,,,,,,,,,,,,,,,,,,,,,
,,,,,,,,,,,,,,,,,,,,,,,,,,,,,,,,,,,,,,,,,,,,,,,,,,,,,space,307342,23,2020-08-05_16h59.03.653,CDT_GNG_IUS12,2020.1.2,MacIntel,60,,,,,,,,,,,,,,,,0,1,,space,1,0.414,,,,,,0,7,7,44,1,,,,,,,,,,,,,,,,,,,,,,,,,
,,,,,,,,,,,,,,,,,,,,,,,,,,,,,,,,,,,,,,,,,,,,,,,,,,,,,,307342,23,2020-08-05_16h59.03.653,CDT_GNG_IUS12,2020.1.2,MacIntel,60,,,,,,,,,,,,,,,,1,0,,,1,,,,,,,0,8,8,4,1,,,,,,,,,,,,,,,,,,,,,,,,,
,,,,,,,,,,,,,,,,,,,,,,,,,,,,,,,,,,,,,,,,,,,,,,,,,,,,,space,307342,23,2020-08-05_16h59.03.653,CDT_GNG_IUS12,2020.1.2,MacIntel,60,,,,,,,,,,,,,,,,0,1,,space,1,0.272,,,,,,0,9,9,29,1,,,,,,,,,,,,,,,,,,,,,,,,,
,,,,,,,,,,,,,,,,,,,,,,,,,,,,,,,,,,,,,,,,,,,,,,,,,,,,,space,307342,23,2020-08-05_16h59.03.653,CDT_GNG_IUS12,2020.1.2,MacIntel,60,,,,,,,,,,,,,,,,0,1,,space,1,0.351,,,,,,0,10,10,22,1,,,,,,,,,,,,,,,,,,,,,,,,,
,,,,,,,,,,,,,,,,,,,,,,,,,,,,,,,,,,,,,,,,,,,,,,,,,,,,,space,307342,23,2020-08-05_16h59.03.653,CDT_GNG_IUS12,2020.1.2,MacIntel,60,,,,,,,,,,,,,,,,0,1,,space,1,0.372,,,,,,0,11,11,12,1,,,,,,,,,,,,,,,,,,,,,,,,,
,,,,,,,,,,,,,,,,,,,,,,,,,,,,,,,,,,,,,,,,,,,,,,,,,,,,,space,307342,23,2020-08-05_16h59.03.653,CDT_GNG_IUS12,2020.1.2,MacIntel,60,,,,,,,,,,,,,,,,0,1,,space,1,0.405,,,,,,0,12,12,19,1,,,,,,,,,,,,,,,,,,,,,,,,,
,,,,,,,,,,,,,,,,,,,,,,,,,,,,,,,,,,,,,,,,,,,,,,,,,,,,,space,307342,23,2020-08-05_16h59.03.653,CDT_GNG_IUS12,2020.1.2,MacIntel,60,,,,,,,,,,,,,,,,0,1,,space,1,0.255,,,,,,0,13,13,43,1,,,,,,,,,,,,,,,,,,,,,,,,,
,,,,,,,,,,,,,,,,,,,,,,,,,,,,,,,,,,,,,,,,,,,,,,,,,,,,,space,307342,23,2020-08-05_16h59.03.653,CDT_GNG_IUS12,2020.1.2,MacIntel,60,,,,,,,,,,,,,,,,0,1,,space,1,0.249,,,,,,0,14,14,17,1,,,,,,,,,,,,,,,,,,,,,,,,,
,,,,,,,,,,,,,,,,,,,,,,,,,,,,,,,,,,,,,,,,,,,,,,,,,,,,,space,307342,23,2020-08-05_16h59.03.653,CDT_GNG_IUS12,2020.1.2,MacIntel,60,,,,,,,,,,,,,,,,0,1,,space,1,0.265,,,,,,0,15,15,25,1,,,,,,,,,,,,,,,,,,,,,,,,,
,,,,,,,,,,,,,,,,,,,,,,,,,,,,,,,,,,,,,,,,,,,,,,,,,,,,,space,307342,23,2020-08-05_16h59.03.653,CDT_GNG_IUS12,2020.1.2,MacIntel,60,,,,,,,,,,,,,,,,0,1,,space,1,0.256,,,,,,0,16,16,13,1,,,,,,,,,,,,,,,,,,,,,,,,,
,,,,,,,,,,,,,,,,,,,,,,,,,,,,,,,,,,,,,,,,,,,,,,,,,,,,,space,307342,23,2020-08-05_16h59.03.653,CDT_GNG_IUS12,2020.1.2,MacIntel,60,,,,,,,,,,,,,,,,0,1,,space,1,0.266,,,,,,0,17,17,42,1,,,,,,,,,,,,,,,,,,,,,,,,,
,,,,,,,,,,,,,,,,,,,,,,,,,,,,,,,,,,,,,,,,,,,,,,,,,,,,,space,307342,23,2020-08-05_16h59.03.653,CDT_GNG_IUS12,2020.1.2,MacIntel,60,,,,,,,,,,,,,,,,0,1,,space,1,0.299,,,,,,0,18,18,26,1,,,,,,,,,,,,,,,,,,,,,,,,,
,,,,,,,,,,,,,,,,,,,,,,,,,,,,,,,,,,,,,,,,,,,,,,,,,,,,,space,307342,23,2020-08-05_16h59.03.653,CDT_GNG_IUS12,2020.1.2,MacIntel,60,,,,,,,,,,,,,,,,0,1,,space,1,0.268,,,,,,0,19,19,38,1,,,,,,,,,,,,,,,,,,,,,,,,,
,,,,,,,,,,,,,,,,,,,,,,,,,,,,,,,,,,,,,,,,,,,,,,,,,,,,,,307342,23,2020-08-05_16h59.03.653,CDT_GNG_IUS12,2020.1.2,MacIntel,60,,,,,,,,,,,,,,,,1,0,,,1,,,,,,,0,20,20,2,1,,,,,,,,,,,,,,,,,,,,,,,,,
,,,,,,,,,,,,,,,,,,,,,,,,,,,,,,,,,,,,,,,,,,,,,,,,,,,,,,307342,23,2020-08-05_16h59.03.653,CDT_GNG_IUS12,2020.1.2,MacIntel,60,,,,,,,,,,,,,,,,1,0,,space,0,0.24,,,,,,0,21,21,6,1,,,,,,,,,,,,,,,,,,,,,,,,,
,,,,,,,,,,,,,,,,,,,,,,,,,,,,,,,,,,,,,,,,,,,,,,,,,,,,,space,307342,23,2020-08-05_16h59.03.653,CDT_GNG_IUS12,2020.1.2,MacIntel,60,,,,,,,,,,,,,,,,0,1,,space,1,0.27,,,,,,0,22,22,10,1,,,,,,,,,,,,,,,,,,,,,,,,,
,,,,,,,,,,,,,,,,,,,,,,,,,,,,,,,,,,,,,,,,,,,,,,,,,,,,,,307342,23,2020-08-05_16h59.03.653,CDT_GNG_IUS12,2020.1.2,MacIntel,60,,,,,,,,,,,,,,,,1,0,,,1,,,,,,,0,23,23,0,1,,,,,,,,,,,,,,,,,,,,,,,,,
,,,,,,,,,,,,,,,,,,,,,,,,,,,,,,,,,,,,,,,,,,,,,,,,,,,,,space,307342,23,2020-08-05_16h59.03.653,CDT_GNG_IUS12,2020.1.2,MacIntel,60,,,,,,,,,,,,,,,,0,1,,space,1,0.19,,,,,,0,24,24,21,1,,,,,,,,,,,,,,,,,,,,,,,,,
,,,,,,,,,,,,,,,,,,,,,,,,,,,,,,,,,,,,,,,,,,,,,,,,,,,,,space,307342,23,2020-08-05_16h59.03.653,CDT_GNG_IUS12,2020.1.2,MacIntel,60,,,,,,,,,,,,,,,,0,1,,space,1,0.267,,,,,,0,25,25,31,1,,,,,,,,,,,,,,,,,,,,,,,,,
,,,,,,,,,,,,,,,,,,,,,,,,,,,,,,,,,,,,,,,,,,,,,,,,,,,,,,307342,23,2020-08-05_16h59.03.653,CDT_GNG_IUS12,2020.1.2,MacIntel,60,,,,,,,,,,,,,,,,1,0,,,1,,,,,,,0,26,26,9,1,,,,,,,,,,,,,,,,,,,,,,,,,
,,,,,,,,,,,,,,,,,,,,,,,,,,,,,,,,,,,,,,,,,,,,,,,,,,,,,space,307342,23,2020-08-05_16h59.03.653,CDT_GNG_IUS12,2020.1.2,MacIntel,60,,,,,,,,,,,,,,,,0,1,,space,1,0.255,,,,,,0,27,27,34,1,,,,,,,,,,,,,,,,,,,,,,,,,
,,,,,,,,,,,,,,,,,,,,,,,,,,,,,,,,,,,,,,,,,,,,,,,,,,,,,,307342,23,2020-08-05_16h59.03.653,CDT_GNG_IUS12,2020.1.2,MacIntel,60,,,,,,,,,,,,,,,,1,0,,space,0,0.281,,,,,,0,28,28,1,1,,,,,,,,,,,,,,,,,,,,,,,,,
,,,,,,,,,,,,,,,,,,,,,,,,,,,,,,,,,,,,,,,,,,,,,,,,,,,,,,307342,23,2020-08-05_16h59.03.653,CDT_GNG_IUS12,2020.1.2,MacIntel,60,,,,,,,,,,,,,,,,1,0,,,1,,,,,,,0,29,29,8,1,,,,,,,,,,,,,,,,,,,,,,,,,
,,,,,,,,,,,,,,,,,,,,,,,,,,,,,,,,,,,,,,,,,,,,,,,,,,,,,space,307342,23,2020-08-05_16h59.03.653,CDT_GNG_IUS12,2020.1.2,MacIntel,60,,,,,,,,,,,,,,,,0,1,,space,1,0.499,,,,,,0,30,30,41,1,,,,,,,,,,,,,,,,,,,,,,,,,
,,,,,,,,,,,,,,,,,,,,,,,,,,,,,,,,,,,,,,,,,,,,,,,,,,,,,space,307342,23,2020-08-05_16h59.03.653,CDT_GNG_IUS12,2020.1.2,MacIntel,60,,,,,,,,,,,,,,,,0,1,,space,1,0.439,,,,,,0,31,31,36,1,,,,,,,,,,,,,,,,,,,,,,,,,
,,,,,,,,,,,,,,,,,,,,,,,,,,,,,,,,,,,,,,,,,,,,,,,,,,,,,space,307342,23,2020-08-05_16h59.03.653,CDT_GNG_IUS12,2020.1.2,MacIntel,60,,,,,,,,,,,,,,,,0,1,,space,1,0.249,,,,,,0,32,32,18,1,,,,,,,,,,,,,,,,,,,,,,,,,
,,,,,,,,,,,,,,,,,,,,,,,,,,,,,,,,,,,,,,,,,,,,,,,,,,,,,space,307342,23,2020-08-05_16h59.03.653,CDT_GNG_IUS12,2020.1.2,MacIntel,60,,,,,,,,,,,,,,,,0,1,,space,1,0.27,,,,,,0,33,33,24,1,,,,,,,,,,,,,,,,,,,,,,,,,
,,,,,,,,,,,,,,,,,,,,,,,,,,,,,,,,,,,,,,,,,,,,,,,,,,,,,space,307342,23,2020-08-05_16h59.03.653,CDT_GNG_IUS12,2020.1.2,MacIntel,60,,,,,,,,,,,,,,,,0,1,,space,1,0.284,,,,,,0,34,34,30,1,,,,,,,,,,,,,,,,,,,,,,,,,
,,,,,,,,,,,,,,,,,,,,,,,,,,,,,,,,,,,,,,,,,,,,,,,,,,,,,space,307342,23,2020-08-05_16h59.03.653,CDT_GNG_IUS12,2020.1.2,MacIntel,60,,,,,,,,,,,,,,,,0,1,,space,1,0.282,,,,,,0,35,35,35,1,,,,,,,,,,,,,,,,,,,,,,,,,
,,,,,,,,,,,,,,,,,,,,,,,,,,,,,,,,,,,,,,,,,,,,,,,,,,,,,,307342,23,2020-08-05_16h59.03.653,CDT_GNG_IUS12,2020.1.2,MacIntel,60,,,,,,,,,,,,,,,,1,0,,,1,,,,,,,0,36,36,5,1,,,,,,,,,,,,,,,,,,,,,,,,,
,,,,,,,,,,,,,,,,,,,,,,,,,,,,,,,,,,,,,,,,,,,,,,,,,,,,,space,307342,23,2020-08-05_16h59.03.653,CDT_GNG_IUS12,2020.1.2,MacIntel,60,,,,,,,,,,,,,,,,0,1,,space,1,0.256,,,,,,0,37,37,11,1,,,,,,,,,,,,,,,,,,,,,,,,,
,,,,,,,,,,,,,,,,,,,,,,,,,,,,,,,,,,,,,,,,,,,,,,,,,,,,,space,307342,23,2020-08-05_16h59.03.653,CDT_GNG_IUS12,2020.1.2,MacIntel,60,,,,,,,,,,,,,,,,0,1,,space,1,0.255,,,,,,0,38,38,45,1,,,,,,,,,,,,,,,,,,,,,,,,,
,,,,,,,,,,,,,,,,,,,,,,,,,,,,,,,,,,,,,,,,,,,,,,,,,,,,,space,307342,23,2020-08-05_16h59.03.653,CDT_GNG_IUS12,2020.1.2,MacIntel,60,,,,,,,,,,,,,,,,0,1,,space,1,0.267,,,,,,0,39,39,47,1,,,,,,,,,,,,,,,,,,,,,,,,,
,,,,,,,,,,,,,,,,,,,,,,,,,,,,,,,,,,,,,,,,,,,,,,,,,,,,,,307342,23,2020-08-05_16h59.03.653,CDT_GNG_IUS12,2020.1.2,MacIntel,60,,,,,,,,,,,,,,,,1,0,,space,0,0.265,,,,,,0,40,40,3,1,,,,,,,,,,,,,,,,,,,,,,,,,
,,,,,,,,,,,,,,,,,,,,,,,,,,,,,,,,,,,,,,,,,,,,,,,,,,,,,space,307342,23,2020-08-05_16h59.03.653,CDT_GNG_IUS12,2020.1.2,MacIntel,60,,,,,,,,,,,,,,,,0,1,,space,1,0.305,,,,,,0,41,41,48,1,,,,,,,,,,,,,,,,,,,,,,,,,
,,,,,,,,,,,,,,,,,,,,,,,,,,,,,,,,,,,,,,,,,,,,,,,,,,,,,,307342,23,2020-08-05_16h59.03.653,CDT_GNG_IUS12,2020.1.2,MacIntel,60,,,,,,,,,,,,,,,,1,0,,space,0,0.248,,,,,,0,42,42,7,1,,,,,,,,,,,,,,,,,,,,,,,,,
,,,,,,,,,,,,,,,,,,,,,,,,,,,,,,,,,,,,,,,,,,,,,,,,,,,,,space,307342,23,2020-08-05_16h59.03.653,CDT_GNG_IUS12,2020.1.2,MacIntel,60,,,,,,,,,,,,,,,,0,1,,space,1,0.316,,,,,,0,43,43,14,1,,,,,,,,,,,,,,,,,,,,,,,,,
,,,,,,,,,,,,,,,,,,,,,,,,,,,,,,,,,,,,,,,,,,,,,,,,,,,,,space,307342,23,2020-08-05_16h59.03.653,CDT_GNG_IUS12,2020.1.2,MacIntel,60,,,,,,,,,,,,,,,,0,1,,space,1,0.306,,,,,,0,44,44,20,1,,,,,,,,,,,,,,,,,,,,,,,,,
,,,,,,,,,,,,,,,,,,,,,,,,,,,,,,,,,,,,,,,,,,,,,,,,,,,,,space,307342,23,2020-08-05_16h59.03.653,CDT_GNG_IUS12,2020.1.2,MacIntel,60,,,,,,,,,,,,,,,,0,1,,space,1,0.352,,,,,,0,45,45,46,1,,,,,,,,,,,,,,,,,,,,,,,,,
,,,,,,,,,,,,,,,,,,,,,,,,,,,,,,,,,,,,,,,,,,,,,,,,,,,,,space,307342,23,2020-08-05_16h59.03.653,CDT_GNG_IUS12,2020.1.2,MacIntel,60,,,,,,,,,,,,,,,,0,1,,space,1,0.286,,,,,,0,46,46,28,1,,,,,,,,,,,,,,,,,,,,,,,,,
,,,,,,,,,,,,,,,,,,,,,,,,,,,,,,,,,,,,,,,,,,,,,,,,,,,,,space,307342,23,2020-08-05_16h59.03.653,CDT_GNG_IUS12,2020.1.2,MacIntel,60,,,,,,,,,,,,,,,,0,1,,space,1,0.285,,,,,,0,47,47,23,1,,,,,,,,,,,,,,,,,,,,,,,,,
,,,,,,,,,,,,,,,,,,,,,,,,,,,,,,,,,,,,,,,,,,,,,,,,,,,,,space,307342,23,2020-08-05_16h59.03.653,CDT_GNG_IUS12,2020.1.2,MacIntel,60,,,,,,,,,,,,,,,,0,1,,space,1,0.199,,,,,,0,48,48,49,1,,,,,,,,,,,,,,,,,,,,,,,,,
,,,,,,,,,,,,,,,,,,,,,,,,,,,,,,,,,,,,,,,,,,,,,,,,,,,,,space,307342,23,2020-08-05_16h59.03.653,CDT_GNG_IUS12,2020.1.2,MacIntel,60,,,,,,,,,,,,,,,,0,1,,space,1,0.333,,,,,,0,49,49,15,1,,,,,,,,,,,,,,,,,,,,,,,,,
,,,,,,,,,,,,,,,,,,,,,,,,,,,,,,,,,,,,,,,,,,,,,,,,,,,,,space,307342,23,2020-08-05_16h59.03.653,CDT_GNG_IUS12,2020.1.2,MacIntel,60,,,,,,,,,,,,,,,,0,1,,space,1,0.306,,,,,,,,,,,0,0,0,29,1,,,,,,,,,,,,,,,,,,,,
,,,,,,,,,,,,,,,,,,,,,,,,,,,,,,,,,,,,,,,,,,,,,,,,,,,,,space,307342,23,2020-08-05_16h59.03.653,CDT_GNG_IUS12,2020.1.2,MacIntel,60,,,,,,,,,,,,,,,,0,1,,space,1,0.316,,,,,,,,,,,0,1,1,20,1,,,,,,,,,,,,,,,,,,,,
,,,,,,,,,,,,,,,,,,,,,,,,,,,,,,,,,,,,,,,,,,,,,,,,,,,,,space,307342,23,2020-08-05_16h59.03.653,CDT_GNG_IUS12,2020.1.2,MacIntel,60,,,,,,,,,,,,,,,,0,1,,space,1,0.348,,,,,,,,,,,0,2,2,41,1,,,,,,,,,,,,,,,,,,,,
,,,,,,,,,,,,,,,,,,,,,,,,,,,,,,,,,,,,,,,,,,,,,,,,,,,,,space,307342,23,2020-08-05_16h59.03.653,CDT_GNG_IUS12,2020.1.2,MacIntel,60,,,,,,,,,,,,,,,,0,1,,space,1,0.359,,,,,,,,,,,0,3,3,22,1,,,,,,,,,,,,,,,,,,,,
,,,,,,,,,,,,,,,,,,,,,,,,,,,,,,,,,,,,,,,,,,,,,,,,,,,,,,307342,23,2020-08-05_16h59.03.653,CDT_GNG_IUS12,2020.1.2,MacIntel,60,,,,,,,,,,,,,,,,1,0,,,1,,,,,,,,,,,,0,4,4,6,1,,,,,,,,,,,,,,,,,,,,
,,,,,,,,,,,,,,,,,,,,,,,,,,,,,,,,,,,,,,,,,,,,,,,,,,,,,space,307342,23,2020-08-05_16h59.03.653,CDT_GNG_IUS12,2020.1.2,MacIntel,60,,,,,,,,,,,,,,,,0,1,,space,1,0.314,,,,,,,,,,,0,5,5,46,1,,,,,,,,,,,,,,,,,,,,
,,,,,,,,,,,,,,,,,,,,,,,,,,,,,,,,,,,,,,,,,,,,,,,,,,,,,space,307342,23,2020-08-05_16h59.03.653,CDT_GNG_IUS12,2020.1.2,MacIntel,60,,,,,,,,,,,,,,,,0,1,,space,1,0.3,,,,,,,,,,,0,6,6,21,1,,,,,,,,,,,,,,,,,,,,
,,,,,,,,,,,,,,,,,,,,,,,,,,,,,,,,,,,,,,,,,,,,,,,,,,,,,space,307342,23,2020-08-05_16h59.03.653,CDT_GNG_IUS12,2020.1.2,MacIntel,60,,,,,,,,,,,,,,,,0,1,,space,1,0.284,,,,,,,,,,,0,7,7,42,1,,,,,,,,,,,,,,,,,,,,
,,,,,,,,,,,,,,,,,,,,,,,,,,,,,,,,,,,,,,,,,,,,,,,,,,,,,,307342,23,2020-08-05_16h59.03.653,CDT_GNG_IUS12,2020.1.2,MacIntel,60,,,,,,,,,,,,,,,,1,0,,,1,,,,,,,,,,,,0,8,8,3,1,,,,,,,,,,,,,,,,,,,,
,,,,,,,,,,,,,,,,,,,,,,,,,,,,,,,,,,,,,,,,,,,,,,,,,,,,,space,307342,23,2020-08-05_16h59.03.653,CDT_GNG_IUS12,2020.1.2,MacIntel,60,,,,,,,,,,,,,,,,0,1,,space,1,0.215,,,,,,,,,,,0,9,9,32,1,,,,,,,,,,,,,,,,,,,,
,,,,,,,,,,,,,,,,,,,,,,,,,,,,,,,,,,,,,,,,,,,,,,,,,,,,,space,307342,23,2020-08-05_16h59.03.653,CDT_GNG_IUS12,2020.1.2,MacIntel,60,,,,,,,,,,,,,,,,0,1,,space,1,0.134,,,,,,,,,,,0,10,10,33,1,,,,,,,,,,,,,,,,,,,,
,,,,,,,,,,,,,,,,,,,,,,,,,,,,,,,,,,,,,,,,,,,,,,,,,,,,,space,307342,23,2020-08-05_16h59.03.653,CDT_GNG_IUS12,2020.1.2,MacIntel,60,,,,,,,,,,,,,,,,0,1,,space,1,0.082,,,,,,,,,,,0,11,11,39,1,,,,,,,,,,,,,,,,,,,,
,,,,,,,,,,,,,,,,,,,,,,,,,,,,,,,,,,,,,,,,,,,,,,,,,,,,,space,307342,23,2020-08-05_16h59.03.653,CDT_GNG_IUS12,2020.1.2,MacIntel,60,,,,,,,,,,,,,,,,0,1,,space,1,0.224,,,,,,,,,,,0,12,12,11,1,,,,,,,,,,,,,,,,,,,,
,,,,,,,,,,,,,,,,,,,,,,,,,,,,,,,,,,,,,,,,,,,,,,,,,,,,,space,307342,23,2020-08-05_16h59.03.653,CDT_GNG_IUS12,2020.1.2,MacIntel,60,,,,,,,,,,,,,,,,0,1,,space,1,0.256,,,,,,,,,,,0,13,13,23,1,,,,,,,,,,,,,,,,,,,,
,,,,,,,,,,,,,,,,,,,,,,,,,,,,,,,,,,,,,,,,,,,,,,,,,,,,,space,307342,23,2020-08-05_16h59.03.653,CDT_GNG_IUS12,2020.1.2,MacIntel,60,,,,,,,,,,,,,,,,0,1,,space,1,0.267,,,,,,,,,,,0,14,14,15,1,,,,,,,,,,,,,,,,,,,,
,,,,,,,,,,,,,,,,,,,,,,,,,,,,,,,,,,,,,,,,,,,,,,,,,,,,,,307342,23,2020-08-05_16h59.03.653,CDT_GNG_IUS12,2020.1.2,MacIntel,60,,,,,,,,,,,,,,,,1,0,,,1,,,,,,,,,,,,0,15,15,1,1,,,,,,,,,,,,,,,,,,,,
,,,,,,,,,,,,,,,,,,,,,,,,,,,,,,,,,,,,,,,,,,,,,,,,,,,,,space,307342,23,2020-08-05_16h59.03.653,CDT_GNG_IUS12,2020.1.2,MacIntel,60,,,,,,,,,,,,,,,,0,1,,space,1,0.249,,,,,,,,,,,0,16,16,10,1,,,,,,,,,,,,,,,,,,,,
,,,,,,,,,,,,,,,,,,,,,,,,,,,,,,,,,,,,,,,,,,,,,,,,,,,,,space,307342,23,2020-08-05_16h59.03.653,CDT_GNG_IUS12,2020.1.2,MacIntel,60,,,,,,,,,,,,,,,,0,1,,space,1,0.206,,,,,,,,,,,0,17,17,13,1,,,,,,,,,,,,,,,,,,,,
,,,,,,,,,,,,,,,,,,,,,,,,,,,,,,,,,,,,,,,,,,,,,,,,,,,,,,307342,23,2020-08-05_16h59.03.653,CDT_GNG_IUS12,2020.1.2,MacIntel,60,,,,,,,,,,,,,,,,1,0,,space,0,0.231,,,,,,,,,,,0,18,18,2,1,,,,,,,,,,,,,,,,,,,,
,,,,,,,,,,,,,,,,,,,,,,,,,,,,,,,,,,,,,,,,,,,,,,,,,,,,,space,307342,23,2020-08-05_16h59.03.653,CDT_GNG_IUS12,2020.1.2,MacIntel,60,,,,,,,,,,,,,,,,0,1,,space,1,0.219,,,,,,,,,,,0,19,19,17,1,,,,,,,,,,,,,,,,,,,,
,,,,,,,,,,,,,,,,,,,,,,,,,,,,,,,,,,,,,,,,,,,,,,,,,,,,,space,307342,23,2020-08-05_16h59.03.653,CDT_GNG_IUS12,2020.1.2,MacIntel,60,,,,,,,,,,,,,,,,0,1,,space,1,0.284,,,,,,,,,,,0,20,20,49,1,,,,,,,,,,,,,,,,,,,,
,,,,,,,,,,,,,,,,,,,,,,,,,,,,,,,,,,,,,,,,,,,,,,,,,,,,,space,307342,23,2020-08-05_16h59.03.653,CDT_GNG_IUS12,2020.1.2,MacIntel,60,,,,,,,,,,,,,,,,0,1,,space,1,0.25,,,,,,,,,,,0,21,21,19,1,,,,,,,,,,,,,,,,,,,,
,,,,,,,,,,,,,,,,,,,,,,,,,,,,,,,,,,,,,,,,,,,,,,,,,,,,,space,307342,23,2020-08-05_16h59.03.653,CDT_GNG_IUS12,2020.1.2,MacIntel,60,,,,,,,,,,,,,,,,0,1,,space,1,0.238,,,,,,,,,,,0,22,22,14,1,,,,,,,,,,,,,,,,,,,,
,,,,,,,,,,,,,,,,,,,,,,,,,,,,,,,,,,,,,,,,,,,,,,,,,,,,,space,307342,23,2020-08-05_16h59.03.653,CDT_GNG_IUS12,2020.1.2,MacIntel,60,,,,,,,,,,,,,,,,0,1,,space,1,0.238,,,,,,,,,,,0,23,23,31,1,,,,,,,,,,,,,,,,,,,,
,,,,,,,,,,,,,,,,,,,,,,,,,,,,,,,,,,,,,,,,,,,,,,,,,,,,,,307342,23,2020-08-05_16h59.03.653,CDT_GNG_IUS12,2020.1.2,MacIntel,60,,,,,,,,,,,,,,,,1,0,,space,0,0.201,,,,,,,,,,,0,24,24,9,1,,,,,,,,,,,,,,,,,,,,
,,,,,,,,,,,,,,,,,,,,,,,,,,,,,,,,,,,,,,,,,,,,,,,,,,,,,,307342,23,2020-08-05_16h59.03.653,CDT_GNG_IUS12,2020.1.2,MacIntel,60,,,,,,,,,,,,,,,,1,0,,space,0,0.15,,,,,,,,,,,0,25,25,0,1,,,,,,,,,,,,,,,,,,,,
,,,,,,,,,,,,,,,,,,,,,,,,,,,,,,,,,,,,,,,,,,,,,,,,,,,,,space,307342,23,2020-08-05_16h59.03.653,CDT_GNG_IUS12,2020.1.2,MacIntel,60,,,,,,,,,,,,,,,,0,1,,space,1,0.321,,,,,,,,,,,0,26,26,25,1,,,,,,,,,,,,,,,,,,,,
,,,,,,,,,,,,,,,,,,,,,,,,,,,,,,,,,,,,,,,,,,,,,,,,,,,,,space,307342,23,2020-08-05_16h59.03.653,CDT_GNG_IUS12,2020.1.2,MacIntel,60,,,,,,,,,,,,,,,,0,1,,space,1,0.205,,,,,,,,,,,0,27,27,26,1,,,,,,,,,,,,,,,,,,,,
,,,,,,,,,,,,,,,,,,,,,,,,,,,,,,,,,,,,,,,,,,,,,,,,,,,,,space,307342,23,2020-08-05_16h59.03.653,CDT_GNG_IUS12,2020.1.2,MacIntel,60,,,,,,,,,,,,,,,,0,1,,space,1,0.215,,,,,,,,,,,0,28,28,45,1,,,,,,,,,,,,,,,,,,,,
,,,,,,,,,,,,,,,,,,,,,,,,,,,,,,,,,,,,,,,,,,,,,,,,,,,,,space,307342,23,2020-08-05_16h59.03.653,CDT_GNG_IUS12,2020.1.2,MacIntel,60,,,,,,,,,,,,,,,,0,1,,space,1,0.255,,,,,,,,,,,0,29,29,27,1,,,,,,,,,,,,,,,,,,,,
,,,,,,,,,,,,,,,,,,,,,,,,,,,,,,,,,,,,,,,,,,,,,,,,,,,,,space,307342,23,2020-08-05_16h59.03.653,CDT_GNG_IUS12,2020.1.2,MacIntel,60,,,,,,,,,,,,,,,,0,1,,space,1,0.3,,,,,,,,,,,0,30,30,38,1,,,,,,,,,,,,,,,,,,,,
,,,,,,,,,,,,,,,,,,,,,,,,,,,,,,,,,,,,,,,,,,,,,,,,,,,,,space,307342,23,2020-08-05_16h59.03.653,CDT_GNG_IUS12,2020.1.2,MacIntel,60,,,,,,,,,,,,,,,,0,1,,space,1,0.255,,,,,,,,,,,0,31,31,12,1,,,,,,,,,,,,,,,,,,,,
,,,,,,,,,,,,,,,,,,,,,,,,,,,,,,,,,,,,,,,,,,,,,,,,,,,,,,307342,23,2020-08-05_16h59.03.653,CDT_GNG_IUS12,2020.1.2,MacIntel,60,,,,,,,,,,,,,,,,1,0,,,1,,,,,,,,,,,,0,32,32,7,1,,,,,,,,,,,,,,,,,,,,
,,,,,,,,,,,,,,,,,,,,,,,,,,,,,,,,,,,,,,,,,,,,,,,,,,,,,space,307342,23,2020-08-05_16h59.03.653,CDT_GNG_IUS12,2020.1.2,MacIntel,60,,,,,,,,,,,,,,,,0,1,,space,1,0.185,,,,,,,,,,,0,33,33,30,1,,,,,,,,,,,,,,,,,,,,
,,,,,,,,,,,,,,,,,,,,,,,,,,,,,,,,,,,,,,,,,,,,,,,,,,,,,space,307342,23,2020-08-05_16h59.03.653,CDT_GNG_IUS12,2020.1.2,MacIntel,60,,,,,,,,,,,,,,,,0,1,,space,1,0.237,,,,,,,,,,,0,34,34,35,1,,,,,,,,,,,,,,,,,,,,
,,,,,,,,,,,,,,,,,,,,,,,,,,,,,,,,,,,,,,,,,,,,,,,,,,,,,space,307342,23,2020-08-05_16h59.03.653,CDT_GNG_IUS12,2020.1.2,MacIntel,60,,,,,,,,,,,,,,,,0,1,,space,1,0.24,,,,,,,,,,,0,35,35,47,1,,,,,,,,,,,,,,,,,,,,
,,,,,,,,,,,,,,,,,,,,,,,,,,,,,,,,,,,,,,,,,,,,,,,,,,,,,space,307342,23,2020-08-05_16h59.03.653,CDT_GNG_IUS12,2020.1.2,MacIntel,60,,,,,,,,,,,,,,,,0,1,,space,1,0.213,,,,,,,,,,,0,36,36,48,1,,,,,,,,,,,,,,,,,,,,
,,,,,,,,,,,,,,,,,,,,,,,,,,,,,,,,,,,,,,,,,,,,,,,,,,,,,,307342,23,2020-08-05_16h59.03.653,CDT_GNG_IUS12,2020.1.2,MacIntel,60,,,,,,,,,,,,,,,,1,0,,space,0,0.149,,,,,,,,,,,0,37,37,8,1,,,,,,,,,,,,,,,,,,,,
,,,,,,,,,,,,,,,,,,,,,,,,,,,,,,,,,,,,,,,,,,,,,,,,,,,,,,307342,23,2020-08-05_16h59.03.653,CDT_GNG_IUS12,2020.1.2,MacIntel,60,,,,,,,,,,,,,,,,1,0,,space,0,0.171,,,,,,,,,,,0,38,38,5,1,,,,,,,,,,,,,,,,,,,,
,,,,,,,,,,,,,,,,,,,,,,,,,,,,,,,,,,,,,,,,,,,,,,,,,,,,,space,307342,23,2020-08-05_16h59.03.653,CDT_GNG_IUS12,2020.1.2,MacIntel,60,,,,,,,,,,,,,,,,0,1,,space,1,0.315,,,,,,,,,,,0,39,39,43,1,,,,,,,,,,,,,,,,,,,,
,,,,,,,,,,,,,,,,,,,,,,,,,,,,,,,,,,,,,,,,,,,,,,,,,,,,,space,307342,23,2020-08-05_16h59.03.653,CDT_GNG_IUS12,2020.1.2,MacIntel,60,,,,,,,,,,,,,,,,0,1,,space,1,0.271,,,,,,,,,,,0,40,40,44,1,,,,,,,,,,,,,,,,,,,,
,,,,,,,,,,,,,,,,,,,,,,,,,,,,,,,,,,,,,,,,,,,,,,,,,,,,,space,307342,23,2020-08-05_16h59.03.653,CDT_GNG_IUS12,2020.1.2,MacIntel,60,,,,,,,,,,,,,,,,0,1,,space,1,0.22,,,,,,,,,,,0,41,41,18,1,,,,,,,,,,,,,,,,,,,,
,,,,,,,,,,,,,,,,,,,,,,,,,,,,,,,,,,,,,,,,,,,,,,,,,,,,,space,307342,23,2020-08-05_16h59.03.653,CDT_GNG_IUS12,2020.1.2,MacIntel,60,,,,,,,,,,,,,,,,0,1,,space,1,0.248,,,,,,,,,,,0,42,42,40,1,,,,,,,,,,,,,,,,,,,,
,,,,,,,,,,,,,,,,,,,,,,,,,,,,,,,,,,,,,,,,,,,,,,,,,,,,,,307342,23,2020-08-05_16h59.03.653,CDT_GNG_IUS12,2020.1.2,MacIntel,60,,,,,,,,,,,,,,,,1,0,,space,0,0.25,,,,,,,,,,,0,43,43,4,1,,,,,,,,,,,,,,,,,,,,
,,,,,,,,,,,,,,,,,,,,,,,,,,,,,,,,,,,,,,,,,,,,,,,,,,,,,space,307342,23,2020-08-05_16h59.03.653,CDT_GNG_IUS12,2020.1.2,MacIntel,60,,,,,,,,,,,,,,,,0,1,,space,1,0.25,,,,,,,,,,,0,44,44,36,1,,,,,,,,,,,,,,,,,,,,
,,,,,,,,,,,,,,,,,,,,,,,,,,,,,,,,,,,,,,,,,,,,,,,,,,,,,space,307342,23,2020-08-05_16h59.03.653,CDT_GNG_IUS12,2020.1.2,MacIntel,60,,,,,,,,,,,,,,,,0,1,,space,1,0.271,,,,,,,,,,,0,45,45,24,1,,,,,,,,,,,,,,,,,,,,
,,,,,,,,,,,,,,,,,,,,,,,,,,,,,,,,,,,,,,,,,,,,,,,,,,,,,space,307342,23,2020-08-05_16h59.03.653,CDT_GNG_IUS12,2020.1.2,MacIntel,60,,,,,,,,,,,,,,,,0,1,,space,1,0.237,,,,,,,,,,,0,46,46,34,1,,,,,,,,,,,,,,,,,,,,
,,,,,,,,,,,,,,,,,,,,,,,,,,,,,,,,,,,,,,,,,,,,,,,,,,,,,space,307342,23,2020-08-05_16h59.03.653,CDT_GNG_IUS12,2020.1.2,MacIntel,60,,,,,,,,,,,,,,,,0,1,,space,1,0.321,,,,,,,,,,,0,47,47,37,1,,,,,,,,,,,,,,,,,,,,
,,,,,,,,,,,,,,,,,,,,,,,,,,,,,,,,,,,,,,,,,,,,,,,,,,,,,space,307342,23,2020-08-05_16h59.03.653,CDT_GNG_IUS12,2020.1.2,MacIntel,60,,,,,,,,,,,,,,,,0,1,,space,1,0.3,,,,,,,,,,,0,48,48,28,1,,,,,,,,,,,,,,,,,,,,
,,,,,,,,,,,,,,,,,,,,,,,,,,,,,,,,,,,,,,,,,,,,,,,,,,,,,space,307342,23,2020-08-05_16h59.03.653,CDT_GNG_IUS12,2020.1.2,MacIntel,60,,,,,,,,,,,,,,,,0,1,,space,1,0.281,,,,,,,,,,,0,49,49,16,1,,,,,,,,,,,,,,,,,,,,
,,,,,,,,,,,,,,,,,,,,,,,,,,,,,,,,,,,,,,,,,,,,,,,,,,,,,,307342,23,2020-08-05_16h59.03.653,CDT_GNG_IUS12,2020.1.2,MacIntel,60,,,,,,,,,,,,,,,,,,,,,,,,,,,,,,,,,,,,,9.111111111,12.363,0,0,0,0,1,1,"On a scale from 0 to 10, indicate your personal perception of your proficiency level for English (10 being the highest score)",,,,,,,,,,,
,,,,,,,,,,,,,,,,,,,,,,,,,,,,,,,,,,,,,,,,,,,,,,,,,,,,,,307342,23,2020-08-05_16h59.03.653,CDT_GNG_IUS12,2020.1.2,MacIntel,60,,,,,,,,,,,,,,,,,,,,,,,,,,,,,,,,,,,,,9.922222222,2.497,0,1,1,1,1,2,"On a scale from 0 to 10, indicate how frequently you are exposed to English (10 being 'always', 0 being 'never')",,,,,,,,,,,
,,,,,,,,,,,,,,,,,,,,,,,,,,,,,,,,,,,,,,,,,,,,,,,,,,,,,,307342,23,2020-08-05_16h59.03.653,CDT_GNG_IUS12,2020.1.2,MacIntel,60,,,,,,,,,,,,,,,,,,,,,,,,,,,,,,,,,,,,,,,,,,,,,"On a scale from 0 to 10, indicate your personal perception of your proficiency level for English (10 being the highest score)",2.031111111,20.476,0,0,0,0,1,1,Unforeseen events upset me greatly.,,
,,,,,,,,,,,,,,,,,,,,,,,,,,,,,,,,,,,,,,,,,,,,,,,,,,,,,,307342,23,2020-08-05_16h59.03.653,CDT_GNG_IUS12,2020.1.2,MacIntel,60,,,,,,,,,,,,,,,,,,,,,,,,,,,,,,,,,,,,,,,,,,,,,"On a scale from 0 to 10, indicate how frequently you are exposed to English (10 being 'always', 0 being 'never')",2.048888889,5.399,0,1,1,1,1,2,It frustrates me not having all the information I need.,,
,,,,,,,,,,,,,,,,,,,,,,,,,,,,,,,,,,,,,,,,,,,,,,,,,,,,,,307342,23,2020-08-05_16h59.03.653,CDT_GNG_IUS12,2020.1.2,MacIntel,60,,,,,,,,,,,,,,,,,,,,,,,,,,,,,,,,,,,,,,,,,,,,,,2.013333333,2.546,0,2,2,2,1,3,One should always look ahead so as to avoid surprises.,,
,,,,,,,,,,,,,,,,,,,,,,,,,,,,,,,,,,,,,,,,,,,,,,,,,,,,,,307342,23,2020-08-05_16h59.03.653,CDT_GNG_IUS12,2020.1.2,MacIntel,60,,,,,,,,,,,,,,,,,,,,,,,,,,,,,,,,,,,,,,,,,,,,,,1.968888889,2.091,0,3,3,3,1,4,"A small, unforeseen event can spoil everything, even with the best of planning. ",,
,,,,,,,,,,,,,,,,,,,,,,,,,,,,,,,,,,,,,,,,,,,,,,,,,,,,,,307342,23,2020-08-05_16h59.03.653,CDT_GNG_IUS12,2020.1.2,MacIntel,60,,,,,,,,,,,,,,,,,,,,,,,,,,,,,,,,,,,,,,,,,,,,,,1.977777778,3.216,0,4,4,4,1,5,I always want to know what the future has in store for me.,,
,,,,,,,,,,,,,,,,,,,,,,,,,,,,,,,,,,,,,,,,,,,,,,,,,,,,,,307342,23,2020-08-05_16h59.03.653,CDT_GNG_IUS12,2020.1.2,MacIntel,60,,,,,,,,,,,,,,,,,,,,,,,,,,,,,,,,,,,,,,,,,,,,,,1.008888889,4.475,0,5,5,5,1,6,I can't stand being taken by surprise.,,
,,,,,,,,,,,,,,,,,,,,,,,,,,,,,,,,,,,,,,,,,,,,,,,,,,,,,,307342,23,2020-08-05_16h59.03.653,CDT_GNG_IUS12,2020.1.2,MacIntel,60,,,,,,,,,,,,,,,,,,,,,,,,,,,,,,,,,,,,,,,,,,,,,,1.057777778,2.058,0,6,6,6,1,7,I should be able to organize everything in advance,,
,,,,,,,,,,,,,,,,,,,,,,,,,,,,,,,,,,,,,,,,,,,,,,,,,,,,,,307342,23,2020-08-05_16h59.03.653,CDT_GNG_IUS12,2020.1.2,MacIntel,60,,,,,,,,,,,,,,,,,,,,,,,,,,,,,,,,,,,,,,,,,,,,,,1,2.525,0,7,7,7,1,8,Uncertainty keeps me from living a full life.,,
,,,,,,,,,,,,,,,,,,,,,,,,,,,,,,,,,,,,,,,,,,,,,,,,,,,,,,307342,23,2020-08-05_16h59.03.653,CDT_GNG_IUS12,2020.1.2,MacIntel,60,,,,,,,,,,,,,,,,,,,,,,,,,,,,,,,,,,,,,,,,,,,,,,1.106666667,1.759,0,8,8,8,1,9,"When it's time to act, uncertainty paralyses me. ",,
,,,,,,,,,,,,,,,,,,,,,,,,,,,,,,,,,,,,,,,,,,,,,,,,,,,,,,307342,23,2020-08-05_16h59.03.653,CDT_GNG_IUS12,2020.1.2,MacIntel,60,,,,,,,,,,,,,,,,,,,,,,,,,,,,,,,,,,,,,,,,,,,,,,2,5.246,0,9,9,9,1,10,"When I am uncertain, I can't function very well. ",,
,,,,,,,,,,,,,,,,,,,,,,,,,,,,,,,,,,,,,,,,,,,,,,,,,,,,,,307342,23,2020-08-05_16h59.03.653,CDT_GNG_IUS12,2020.1.2,MacIntel,60,,,,,,,,,,,,,,,,,,,,,,,,,,,,,,,,,,,,,,,,,,,,,,1,1.593,0,10,10,10,1,11,The smallest doubt can stop me from acting. ,,
,,,,,,,,,,,,,,,,,,,,,,,,,,,,,,,,,,,,,,,,,,,,,,,,,,,,,,307342,23,2020-08-05_16h59.03.653,CDT_GNG_IUS12,2020.1.2,MacIntel,60,,,,,,,,,,,,,,,,,,,,,,,,,,,,,,,,,,,,,,,,,,,,,,1.982222222,3.948,0,11,11,11,1,12,I must get away from all uncertain situations. ,,
,,,,,,,,,,,,,,,,,,,,,,,,,,,,,,,,,,,,,,,,,,,,,,,,,,,,,,307342,23,2020-08-05_16h59.03.653,CDT_GNG_IUS12,2020.1.2,MacIntel,60,,,,,,,,,,,,,,,,,,,,,,,,,,,,,,,,,,,,,,,,,,,,,,,,,,,,,,,x,3.851
