key_resp_6.keys,key_resp_6.rt,key_resp_2.keys,key_resp_2.corr,key_resp_2.rt,CDT_trials_train.thisRepN,CDT_trials_train.thisTrialN,CDT_trials_train.thisN,CDT_trials_train.thisIndex,CDT_trials_train.ran,trialnum,condit,stimamt,stim1posx,stim1posy,stim1col,stim1opa,stim2posx,stim2posy,stim2col,stim2opa,stim3posx,stim3posy,stim3col,stim3opa,stim4posx,stim4posy,stim4col,stim4opa,stim5posx,stim5posy,stim5col,stim5opa,stim6posx,stim6posy,stim6col,stim6opa,stimsizex,stimsizey,stimdur,targetposx,targetposy,targetcol,corrAns,participant,age,date,expName,psychopyVersion,OS,frameRate,key_resp_5.keys,key_resp.keys,key_resp.corr,key_resp.rt,CDT_trials.thisRepN,CDT_trials.thisTrialN,CDT_trials.thisN,CDT_trials.thisIndex,CDT_trials.ran,key_resp_5.rt,trialResp_Train.keys,trialResp_Train.corr,GNGtrials_train.thisRepN,GNGtrials_train.thisTrialN,GNGtrials_train.thisN,GNGtrials_train.thisIndex,GNGtrials_train.ran,orangeOpacity,blueOpacity,trialResp_Train.rt,trialResp.keys,trialResp.corr,trialResp.rt,GNG_trials_1.thisRepN,GNG_trials_1.thisTrialN,GNG_trials_1.thisN,GNG_trials_1.thisIndex,GNG_trials_1.ran,GNG_trials_2.thisRepN,GNG_trials_2.thisTrialN,GNG_trials_2.thisN,GNG_trials_2.thisIndex,GNG_trials_2.ran,GNG_trials_3.thisRepN,GNG_trials_3.thisTrialN,GNG_trials_3.thisN,GNG_trials_3.thisIndex,GNG_trials_3.ran,slider_2.response,slider_2.rt,engprof_trials.thisRepN,engprof_trials.thisTrialN,engprof_trials.thisN,engprof_trials.thisIndex,engprof_trials.ran,qpnumber,qproficiency,slider.response,slider.rt,IUS12_trials.thisRepN,IUS12_trials.thisTrialN,IUS12_trials.thisN,IUS12_trials.thisIndex,IUS12_trials.ran,qnumber,qenglish,key_resp_end.keys,key_resp_end.rt
y,14.276,k,1,3.607,0,0,0,0,1,1,same,4,0.273779233,-0.054755847,black,1,-0.16426754,-0.273779233,magenta,1,-0.16426754,0.16426754,orange,1,0.16426754,0.054755847,yellow,1,0.16426754,-0.054755847,cyan,0,-0.054755847,-0.16426754,blue,0,0.05,0.05,0.15,-0.16426754,0.16426754,orange,k,34669,32,2020-08-21_15h37.37.047,CDT_GNG_IUS12,2020.1.2,Win32,60,,,,,,,,,,,,,,,,,,,,,,,,,,,,,,,,,,,,,,,,,,,,,,,,,,,,,,,,,,
,,l,1,1.122,0,1,1,1,1,2,different,4,0.054755847,-0.054755847,orange,1,-0.273779233,0.273779233,magenta,1,0.273779233,0.16426754,yellow,1,-0.273779233,-0.16426754,blue,1,0.273779233,-0.054755847,red,0,-0.273779233,0.054755847,cyan,0,0.05,0.05,0.15,-0.273779233,-0.16426754,black,l,34669,32,2020-08-21_15h37.37.047,CDT_GNG_IUS12,2020.1.2,Win32,60,,,,,,,,,,,,,,,,,,,,,,,,,,,,,,,,,,,,,,,,,,,,,,,,,,,,,,,,,,
,,k,1,0.912,0,2,2,2,1,3,same,6,-0.054755847,0.273779233,green,1,0.273779233,-0.273779233,magenta,1,0.273779233,0.16426754,cyan,1,-0.054755847,-0.054755847,black,1,-0.273779233,0.16426754,orange,1,0.16426754,-0.054755847,blue,1,0.05,0.05,0.15,-0.054755847,0.273779233,green,k,34669,32,2020-08-21_15h37.37.047,CDT_GNG_IUS12,2020.1.2,Win32,60,,,,,,,,,,,,,,,,,,,,,,,,,,,,,,,,,,,,,,,,,,,,,,,,,,,,,,,,,,
,,k,0,1.093,0,3,3,3,1,4,different,6,0.16426754,-0.054755847,orange,1,-0.054755847,0.273779233,red,1,0.273779233,0.273779233,green,1,-0.054755847,-0.273779233,yellow,1,0.273779233,-0.054755847,blue,1,-0.16426754,0.16426754,black,1,0.05,0.05,0.15,0.273779233,0.273779233,cyan,l,34669,32,2020-08-21_15h37.37.047,CDT_GNG_IUS12,2020.1.2,Win32,60,,,,,,,,,,,,,,,,,,,,,,,,,,,,,,,,,,,,,,,,,,,,,,,,,,,,,,,,,,
,,,,,,,,,,50,different,4,-0.16426754,0.054755847,black,1,-0.273779233,-0.16426754,magenta,1,0.054755847,0.054755847,cyan,1,0.273779233,-0.16426754,green,1,-0.273779233,0.273779233,yellow,0,-0.16426754,-0.054755847,orange,0,0.05,0.05,0.15,-0.273779233,-0.16426754,yellow,l,34669,32,2020-08-21_15h37.37.047,CDT_GNG_IUS12,2020.1.2,Win32,60,,k,0,0.943,0,0,0,49,1,,,,,,,,,,,,,,,,,,,,,,,,,,,,,,,,,,,,,,,,,,,,,,,,,
,,,,,,,,,,64,same,6,0.16426754,0.273779233,black,1,-0.16426754,-0.16426754,orange,1,0.16426754,-0.16426754,red,1,-0.273779233,0.054755847,magenta,1,0.054755847,0.16426754,cyan,1,-0.054755847,-0.16426754,yellow,1,0.05,0.05,0.15,0.16426754,0.273779233,black,k,34669,32,2020-08-21_15h37.37.047,CDT_GNG_IUS12,2020.1.2,Win32,60,,k,1,1.06,0,1,1,63,1,,,,,,,,,,,,,,,,,,,,,,,,,,,,,,,,,,,,,,,,,,,,,,,,,
,,,,,,,,,,101,different,6,0.273779233,0.273779233,yellow,1,0.054755847,-0.16426754,black,1,-0.054755847,0.054755847,cyan,1,-0.054755847,-0.16426754,magenta,1,0.273779233,0.054755847,green,1,0.16426754,-0.16426754,blue,1,0.05,0.05,0.15,0.273779233,0.273779233,green,l,34669,32,2020-08-21_15h37.37.047,CDT_GNG_IUS12,2020.1.2,Win32,60,,l,1,1.417,0,2,2,100,1,,,,,,,,,,,,,,,,,,,,,,,,,,,,,,,,,,,,,,,,,,,,,,,,,
,,,,,,,,,,19,same,4,-0.054755847,-0.16426754,orange,1,-0.273779233,0.273779233,red,1,0.273779233,0.054755847,yellow,1,0.273779233,-0.16426754,magenta,1,-0.273779233,-0.054755847,black,0,-0.054755847,0.273779233,blue,0,0.05,0.05,0.15,0.273779233,-0.16426754,magenta,k,34669,32,2020-08-21_15h37.37.047,CDT_GNG_IUS12,2020.1.2,Win32,60,,l,0,0.911,0,3,3,18,1,,,,,,,,,,,,,,,,,,,,,,,,,,,,,,,,,,,,,,,,,,,,,,,,,
,,,,,,,,,,93,different,6,-0.16426754,0.16426754,red,1,0.054755847,-0.054755847,black,1,-0.054755847,-0.16426754,blue,1,0.054755847,0.273779233,magenta,1,-0.054755847,0.054755847,orange,1,0.16426754,-0.054755847,cyan,1,0.05,0.05,0.15,-0.054755847,-0.16426754,black,l,34669,32,2020-08-21_15h37.37.047,CDT_GNG_IUS12,2020.1.2,Win32,60,,l,1,1.238,0,4,4,92,1,,,,,,,,,,,,,,,,,,,,,,,,,,,,,,,,,,,,,,,,,,,,,,,,,
,,,,,,,,,,1,same,4,-0.16426754,-0.273779233,orange,1,0.054755847,0.16426754,yellow,1,-0.16426754,0.16426754,green,1,0.054755847,-0.054755847,red,1,-0.273779233,-0.16426754,cyan,0,0.16426754,0.16426754,blue,0,0.05,0.05,0.15,0.054755847,0.16426754,yellow,k,34669,32,2020-08-21_15h37.37.047,CDT_GNG_IUS12,2020.1.2,Win32,60,,k,1,0.861,0,5,5,0,1,,,,,,,,,,,,,,,,,,,,,,,,,,,,,,,,,,,,,,,,,,,,,,,,,
,,,,,,,,,,41,different,4,0.054755847,-0.273779233,orange,1,-0.273779233,0.054755847,blue,1,-0.054755847,-0.16426754,yellow,1,0.273779233,0.16426754,red,1,0.273779233,-0.273779233,black,0,-0.273779233,0.273779233,magenta,0,0.05,0.05,0.15,-0.054755847,-0.16426754,black,l,34669,32,2020-08-21_15h37.37.047,CDT_GNG_IUS12,2020.1.2,Win32,60,,l,1,0.936,0,6,6,40,1,,,,,,,,,,,,,,,,,,,,,,,,,,,,,,,,,,,,,,,,,,,,,,,,,
,,,,,,,,,,72,same,6,0.273779233,-0.16426754,blue,1,0.16426754,0.273779233,yellow,1,-0.16426754,0.273779233,magenta,1,-0.273779233,-0.054755847,orange,1,0.054755847,-0.16426754,cyan,1,0.273779233,0.054755847,black,1,0.05,0.05,0.15,-0.16426754,0.273779233,magenta,k,34669,32,2020-08-21_15h37.37.047,CDT_GNG_IUS12,2020.1.2,Win32,60,,k,1,1.514,0,7,7,71,1,,,,,,,,,,,,,,,,,,,,,,,,,,,,,,,,,,,,,,,,,,,,,,,,,
,,,,,,,,,,83,same,6,0.054755847,-0.16426754,cyan,1,-0.16426754,-0.16426754,blue,1,0.273779233,0.054755847,magenta,1,-0.273779233,0.273779233,green,1,0.273779233,-0.16426754,orange,1,-0.054755847,-0.054755847,yellow,1,0.05,0.05,0.15,-0.054755847,-0.054755847,yellow,k,34669,32,2020-08-21_15h37.37.047,CDT_GNG_IUS12,2020.1.2,Win32,60,,k,1,0.991,0,8,8,82,1,,,,,,,,,,,,,,,,,,,,,,,,,,,,,,,,,,,,,,,,,,,,,,,,,
,,,,,,,,,,30,same,4,0.16426754,0.16426754,blue,1,0.054755847,-0.054755847,green,1,-0.273779233,-0.16426754,black,1,-0.054755847,0.273779233,yellow,1,0.16426754,0.273779233,red,0,0.16426754,-0.16426754,magenta,0,0.05,0.05,0.15,0.054755847,-0.054755847,green,k,34669,32,2020-08-21_15h37.37.047,CDT_GNG_IUS12,2020.1.2,Win32,60,,k,1,1.075,0,9,9,29,1,,,,,,,,,,,,,,,,,,,,,,,,,,,,,,,,,,,,,,,,,,,,,,,,,
,,,,,,,,,,4,same,4,0.16426754,-0.16426754,black,1,-0.054755847,0.16426754,yellow,1,0.16426754,0.16426754,blue,1,-0.16426754,-0.16426754,green,1,0.054755847,-0.16426754,magenta,0,-0.054755847,0.273779233,orange,0,0.05,0.05,0.15,0.16426754,-0.16426754,black,k,34669,32,2020-08-21_15h37.37.047,CDT_GNG_IUS12,2020.1.2,Win32,60,,k,1,1.139,0,10,10,3,1,,,,,,,,,,,,,,,,,,,,,,,,,,,,,,,,,,,,,,,,,,,,,,,,,
,,,,,,,,,,66,same,6,0.273779233,-0.273779233,cyan,1,-0.273779233,-0.054755847,black,1,-0.273779233,0.054755847,yellow,1,0.273779233,0.16426754,green,1,0.054755847,-0.16426754,orange,1,-0.273779233,-0.16426754,magenta,1,0.05,0.05,0.15,0.273779233,0.16426754,green,k,34669,32,2020-08-21_15h37.37.047,CDT_GNG_IUS12,2020.1.2,Win32,60,,k,1,1.771,0,11,11,65,1,,,,,,,,,,,,,,,,,,,,,,,,,,,,,,,,,,,,,,,,,,,,,,,,,
,,,,,,,,,,43,different,4,-0.16426754,-0.054755847,red,1,0.273779233,0.054755847,cyan,1,-0.16426754,0.054755847,orange,1,0.054755847,-0.054755847,blue,1,-0.054755847,-0.273779233,magenta,0,0.273779233,0.273779233,yellow,0,0.05,0.05,0.15,-0.16426754,-0.054755847,yellow,l,34669,32,2020-08-21_15h37.37.047,CDT_GNG_IUS12,2020.1.2,Win32,60,,l,1,1.51,0,12,12,42,1,,,,,,,,,,,,,,,,,,,,,,,,,,,,,,,,,,,,,,,,,,,,,,,,,
,,,,,,,,,,112,different,6,-0.273779233,-0.16426754,magenta,1,-0.054755847,0.054755847,orange,1,0.054755847,0.273779233,cyan,1,0.16426754,-0.273779233,yellow,1,-0.273779233,-0.273779233,black,1,-0.16426754,0.054755847,red,1,0.05,0.05,0.15,-0.16426754,0.054755847,orange,l,34669,32,2020-08-21_15h37.37.047,CDT_GNG_IUS12,2020.1.2,Win32,60,,l,1,0.84,0,13,13,111,1,,,,,,,,,,,,,,,,,,,,,,,,,,,,,,,,,,,,,,,,,,,,,,,,,
,,,,,,,,,,74,same,6,-0.273779233,-0.273779233,magenta,1,0.16426754,0.054755847,cyan,1,-0.16426754,0.273779233,black,1,0.273779233,-0.054755847,yellow,1,-0.16426754,-0.16426754,red,1,0.054755847,0.273779233,green,1,0.05,0.05,0.15,-0.16426754,-0.16426754,red,k,34669,32,2020-08-21_15h37.37.047,CDT_GNG_IUS12,2020.1.2,Win32,60,,k,1,0.835,0,14,14,73,1,,,,,,,,,,,,,,,,,,,,,,,,,,,,,,,,,,,,,,,,,,,,,,,,,
,,,,,,,,,,45,different,4,0.054755847,0.16426754,blue,1,-0.054755847,-0.273779233,magenta,1,-0.16426754,0.16426754,black,1,0.054755847,-0.16426754,orange,1,0.273779233,0.273779233,green,0,-0.273779233,-0.16426754,cyan,0,0.05,0.05,0.15,-0.16426754,0.16426754,magenta,l,34669,32,2020-08-21_15h37.37.047,CDT_GNG_IUS12,2020.1.2,Win32,60,,l,1,1.429,0,15,15,44,1,,,,,,,,,,,,,,,,,,,,,,,,,,,,,,,,,,,,,,,,,,,,,,,,,
,,,,,,,,,,77,same,6,0.273779233,0.273779233,black,1,-0.273779233,-0.16426754,red,1,0.16426754,-0.054755847,magenta,1,-0.054755847,0.16426754,cyan,1,0.16426754,0.273779233,orange,1,-0.16426754,-0.273779233,blue,1,0.05,0.05,0.15,-0.273779233,-0.16426754,red,k,34669,32,2020-08-21_15h37.37.047,CDT_GNG_IUS12,2020.1.2,Win32,60,,k,1,0.904,0,16,16,76,1,,,,,,,,,,,,,,,,,,,,,,,,,,,,,,,,,,,,,,,,,,,,,,,,,
,,,,,,,,,,53,different,4,-0.16426754,0.054755847,green,1,0.273779233,0.054755847,cyan,1,-0.273779233,-0.273779233,magenta,1,0.054755847,-0.16426754,black,1,-0.054755847,0.16426754,red,0,0.273779233,0.273779233,blue,0,0.05,0.05,0.15,-0.273779233,-0.273779233,black,l,34669,32,2020-08-21_15h37.37.047,CDT_GNG_IUS12,2020.1.2,Win32,60,,l,1,0.836,0,17,17,52,1,,,,,,,,,,,,,,,,,,,,,,,,,,,,,,,,,,,,,,,,,,,,,,,,,
,,,,,,,,,,46,different,4,-0.16426754,0.273779233,yellow,1,-0.16426754,-0.16426754,green,1,0.16426754,0.054755847,black,1,0.273779233,-0.054755847,red,1,-0.16426754,0.16426754,blue,0,-0.273779233,-0.054755847,cyan,0,0.05,0.05,0.15,0.16426754,0.054755847,cyan,l,34669,32,2020-08-21_15h37.37.047,CDT_GNG_IUS12,2020.1.2,Win32,60,,l,1,1.917,0,18,18,45,1,,,,,,,,,,,,,,,,,,,,,,,,,,,,,,,,,,,,,,,,,,,,,,,,,
,,,,,,,,,,59,different,4,0.16426754,-0.16426754,red,1,-0.054755847,-0.16426754,cyan,1,0.054755847,0.16426754,yellow,1,-0.16426754,0.273779233,green,1,0.16426754,-0.054755847,orange,0,-0.16426754,-0.054755847,black,0,0.05,0.05,0.15,-0.16426754,0.273779233,black,l,34669,32,2020-08-21_15h37.37.047,CDT_GNG_IUS12,2020.1.2,Win32,60,,l,1,0.963,0,19,19,58,1,,,,,,,,,,,,,,,,,,,,,,,,,,,,,,,,,,,,,,,,,,,,,,,,,
,,,,,,,,,,103,different,6,-0.273779233,-0.16426754,black,1,0.273779233,-0.054755847,cyan,1,0.054755847,0.273779233,magenta,1,-0.054755847,0.16426754,orange,1,-0.16426754,-0.16426754,green,1,0.273779233,-0.16426754,red,1,0.05,0.05,0.15,-0.273779233,-0.16426754,blue,l,34669,32,2020-08-21_15h37.37.047,CDT_GNG_IUS12,2020.1.2,Win32,60,,l,1,1.16,0,20,20,102,1,,,,,,,,,,,,,,,,,,,,,,,,,,,,,,,,,,,,,,,,,,,,,,,,,
,,,,,,,,,,63,same,6,-0.273779233,0.273779233,red,1,-0.273779233,-0.16426754,orange,1,0.054755847,-0.273779233,black,1,0.16426754,0.16426754,cyan,1,-0.054755847,0.054755847,blue,1,-0.273779233,-0.054755847,magenta,1,0.05,0.05,0.15,-0.273779233,-0.054755847,magenta,k,34669,32,2020-08-21_15h37.37.047,CDT_GNG_IUS12,2020.1.2,Win32,60,,k,1,1.985,0,21,21,62,1,,,,,,,,,,,,,,,,,,,,,,,,,,,,,,,,,,,,,,,,,,,,,,,,,
,,,,,,,,,,102,different,6,-0.273779233,-0.273779233,magenta,1,0.054755847,0.16426754,green,1,0.16426754,-0.273779233,yellow,1,-0.16426754,0.054755847,orange,1,-0.16426754,-0.273779233,red,1,0.273779233,0.054755847,cyan,1,0.05,0.05,0.15,-0.273779233,-0.273779233,yellow,l,34669,32,2020-08-21_15h37.37.047,CDT_GNG_IUS12,2020.1.2,Win32,60,,l,1,1.274,0,22,22,101,1,,,,,,,,,,,,,,,,,,,,,,,,,,,,,,,,,,,,,,,,,,,,,,,,,
,,,,,,,,,,80,same,6,-0.273779233,0.16426754,orange,1,0.054755847,-0.273779233,yellow,1,0.054755847,0.273779233,green,1,-0.16426754,-0.273779233,red,1,-0.16426754,0.273779233,blue,1,0.273779233,-0.16426754,black,1,0.05,0.05,0.15,0.054755847,-0.273779233,yellow,k,34669,32,2020-08-21_15h37.37.047,CDT_GNG_IUS12,2020.1.2,Win32,60,,k,1,0.894,0,23,23,79,1,,,,,,,,,,,,,,,,,,,,,,,,,,,,,,,,,,,,,,,,,,,,,,,,,
,,,,,,,,,,69,same,6,-0.054755847,-0.054755847,black,1,0.273779233,-0.054755847,orange,1,-0.273779233,0.16426754,blue,1,0.054755847,0.054755847,yellow,1,-0.16426754,-0.16426754,green,1,0.054755847,-0.16426754,magenta,1,0.05,0.05,0.15,-0.16426754,-0.16426754,green,k,34669,32,2020-08-21_15h37.37.047,CDT_GNG_IUS12,2020.1.2,Win32,60,,l,0,1.266,0,24,24,68,1,,,,,,,,,,,,,,,,,,,,,,,,,,,,,,,,,,,,,,,,,,,,,,,,,
,,,,,,,,,,89,same,6,-0.054755847,-0.273779233,cyan,1,-0.16426754,0.16426754,green,1,0.273779233,0.273779233,black,1,0.273779233,-0.273779233,orange,1,-0.273779233,-0.16426754,magenta,1,-0.16426754,0.273779233,yellow,1,0.05,0.05,0.15,-0.16426754,0.273779233,yellow,k,34669,32,2020-08-21_15h37.37.047,CDT_GNG_IUS12,2020.1.2,Win32,60,,l,0,1.049,0,25,25,88,1,,,,,,,,,,,,,,,,,,,,,,,,,,,,,,,,,,,,,,,,,,,,,,,,,
,,,,,,,,,,18,same,4,-0.054755847,0.273779233,black,1,-0.16426754,-0.16426754,cyan,1,0.054755847,0.16426754,red,1,0.273779233,-0.273779233,magenta,1,-0.16426754,0.273779233,orange,0,-0.054755847,-0.273779233,green,0,0.05,0.05,0.15,0.273779233,-0.273779233,magenta,k,34669,32,2020-08-21_15h37.37.047,CDT_GNG_IUS12,2020.1.2,Win32,60,,k,1,1.203,0,26,26,17,1,,,,,,,,,,,,,,,,,,,,,,,,,,,,,,,,,,,,,,,,,,,,,,,,,
,,,,,,,,,,48,different,4,0.16426754,0.273779233,cyan,1,-0.054755847,-0.273779233,magenta,1,0.16426754,-0.054755847,orange,1,-0.273779233,0.273779233,blue,1,0.273779233,0.16426754,red,0,-0.054755847,-0.16426754,green,0,0.05,0.05,0.15,0.16426754,-0.054755847,red,l,34669,32,2020-08-21_15h37.37.047,CDT_GNG_IUS12,2020.1.2,Win32,60,,l,1,0.878,0,27,27,47,1,,,,,,,,,,,,,,,,,,,,,,,,,,,,,,,,,,,,,,,,,,,,,,,,,
,,,,,,,,,,55,different,4,0.273779233,0.054755847,yellow,1,0.054755847,-0.16426754,green,1,-0.273779233,-0.16426754,orange,1,-0.273779233,0.273779233,blue,1,0.273779233,0.273779233,red,0,0.273779233,-0.16426754,cyan,0,0.05,0.05,0.15,0.054755847,-0.16426754,red,l,34669,32,2020-08-21_15h37.37.047,CDT_GNG_IUS12,2020.1.2,Win32,60,,l,1,1.187,0,28,28,54,1,,,,,,,,,,,,,,,,,,,,,,,,,,,,,,,,,,,,,,,,,,,,,,,,,
,,,,,,,,,,10,same,4,0.273779233,0.273779233,green,1,-0.16426754,-0.054755847,yellow,1,-0.16426754,0.16426754,cyan,1,0.273779233,-0.16426754,blue,1,0.273779233,0.054755847,orange,0,-0.273779233,-0.16426754,red,0,0.05,0.05,0.15,0.273779233,0.273779233,green,k,34669,32,2020-08-21_15h37.37.047,CDT_GNG_IUS12,2020.1.2,Win32,60,,l,0,1.4,0,29,29,9,1,,,,,,,,,,,,,,,,,,,,,,,,,,,,,,,,,,,,,,,,,,,,,,,,,
,,,,,,,,,,61,same,6,0.273779233,0.16426754,cyan,1,0.273779233,-0.273779233,blue,1,-0.16426754,-0.16426754,green,1,-0.16426754,0.273779233,black,1,0.16426754,0.054755847,red,1,0.273779233,-0.16426754,yellow,1,0.05,0.05,0.15,0.273779233,-0.16426754,yellow,k,34669,32,2020-08-21_15h37.37.047,CDT_GNG_IUS12,2020.1.2,Win32,60,,l,0,2.569,0,30,30,60,1,,,,,,,,,,,,,,,,,,,,,,,,,,,,,,,,,,,,,,,,,,,,,,,,,
,,,,,,,,,,100,different,6,0.273779233,0.16426754,blue,1,-0.054755847,0.054755847,magenta,1,-0.273779233,-0.054755847,orange,1,0.273779233,-0.273779233,red,1,0.16426754,0.054755847,green,1,-0.273779233,0.054755847,yellow,1,0.05,0.05,0.15,0.273779233,0.16426754,orange,l,34669,32,2020-08-21_15h37.37.047,CDT_GNG_IUS12,2020.1.2,Win32,60,,l,1,1.053,0,31,31,99,1,,,,,,,,,,,,,,,,,,,,,,,,,,,,,,,,,,,,,,,,,,,,,,,,,
,,,,,,,,,,109,different,6,-0.273779233,-0.16426754,blue,1,0.054755847,-0.16426754,black,1,-0.054755847,0.054755847,cyan,1,0.054755847,0.16426754,green,1,-0.054755847,-0.054755847,yellow,1,0.16426754,-0.273779233,orange,1,0.05,0.05,0.15,-0.273779233,-0.16426754,green,l,34669,32,2020-08-21_15h37.37.047,CDT_GNG_IUS12,2020.1.2,Win32,60,,l,1,1.237,0,32,32,108,1,,,,,,,,,,,,,,,,,,,,,,,,,,,,,,,,,,,,,,,,,,,,,,,,,
,,,,,,,,,,8,same,4,0.16426754,-0.16426754,blue,1,-0.16426754,-0.054755847,red,1,-0.273779233,0.16426754,green,1,0.054755847,0.054755847,cyan,1,0.16426754,-0.273779233,magenta,0,-0.054755847,-0.054755847,orange,0,0.05,0.05,0.15,-0.273779233,0.16426754,green,k,34669,32,2020-08-21_15h37.37.047,CDT_GNG_IUS12,2020.1.2,Win32,60,,l,0,1.959,0,33,33,7,1,,,,,,,,,,,,,,,,,,,,,,,,,,,,,,,,,,,,,,,,,,,,,,,,,
,,,,,,,,,,52,different,4,-0.273779233,-0.16426754,magenta,1,-0.273779233,0.054755847,green,1,0.273779233,-0.054755847,cyan,1,0.273779233,0.054755847,black,1,-0.16426754,-0.16426754,orange,0,-0.054755847,0.054755847,red,0,0.05,0.05,0.15,-0.273779233,-0.16426754,black,l,34669,32,2020-08-21_15h37.37.047,CDT_GNG_IUS12,2020.1.2,Win32,60,,l,1,1.086,0,34,34,51,1,,,,,,,,,,,,,,,,,,,,,,,,,,,,,,,,,,,,,,,,,,,,,,,,,
,,,,,,,,,,65,same,6,-0.273779233,-0.16426754,cyan,1,-0.054755847,0.054755847,blue,1,0.054755847,-0.054755847,red,1,0.273779233,0.054755847,green,1,-0.16426754,-0.054755847,orange,1,-0.273779233,0.273779233,yellow,1,0.05,0.05,0.15,-0.273779233,-0.16426754,cyan,k,34669,32,2020-08-21_15h37.37.047,CDT_GNG_IUS12,2020.1.2,Win32,60,,k,1,0.822,0,35,35,64,1,,,,,,,,,,,,,,,,,,,,,,,,,,,,,,,,,,,,,,,,,,,,,,,,,
,,,,,,,,,,115,different,6,-0.16426754,0.273779233,magenta,1,-0.273779233,-0.054755847,blue,1,0.273779233,0.273779233,red,1,0.054755847,-0.273779233,cyan,1,-0.054755847,0.16426754,green,1,-0.273779233,-0.273779233,yellow,1,0.05,0.05,0.15,-0.273779233,-0.054755847,yellow,l,34669,32,2020-08-21_15h37.37.047,CDT_GNG_IUS12,2020.1.2,Win32,60,,l,1,0.909,0,36,36,114,1,,,,,,,,,,,,,,,,,,,,,,,,,,,,,,,,,,,,,,,,,,,,,,,,,
,,,,,,,,,,47,different,4,-0.16426754,-0.054755847,orange,1,0.273779233,0.054755847,black,1,-0.16426754,0.16426754,red,1,0.273779233,-0.16426754,blue,1,-0.054755847,-0.273779233,green,0,0.16426754,0.16426754,yellow,0,0.05,0.05,0.15,0.273779233,0.054755847,red,l,34669,32,2020-08-21_15h37.37.047,CDT_GNG_IUS12,2020.1.2,Win32,60,,l,1,1.237,0,37,37,46,1,,,,,,,,,,,,,,,,,,,,,,,,,,,,,,,,,,,,,,,,,,,,,,,,,
,,,,,,,,,,32,different,4,-0.054755847,-0.273779233,green,1,-0.273779233,0.16426754,black,1,0.16426754,0.16426754,cyan,1,0.273779233,-0.16426754,yellow,1,-0.054755847,-0.054755847,blue,0,-0.054755847,0.273779233,orange,0,0.05,0.05,0.15,-0.054755847,-0.273779233,red,l,34669,32,2020-08-21_15h37.37.047,CDT_GNG_IUS12,2020.1.2,Win32,60,,l,1,1.006,0,38,38,31,1,,,,,,,,,,,,,,,,,,,,,,,,,,,,,,,,,,,,,,,,,,,,,,,,,
,,,,,,,,,,81,same,6,-0.273779233,-0.273779233,green,1,-0.273779233,0.16426754,blue,1,0.054755847,-0.16426754,black,1,0.273779233,0.054755847,cyan,1,-0.16426754,-0.273779233,orange,1,-0.054755847,0.054755847,red,1,0.05,0.05,0.15,0.054755847,-0.16426754,black,k,34669,32,2020-08-21_15h37.37.047,CDT_GNG_IUS12,2020.1.2,Win32,60,,k,1,0.92,0,39,39,80,1,,,,,,,,,,,,,,,,,,,,,,,,,,,,,,,,,,,,,,,,,,,,,,,,,
,,,,,,,,,,27,same,4,-0.273779233,0.054755847,blue,1,-0.16426754,-0.16426754,black,1,0.16426754,-0.273779233,cyan,1,0.273779233,0.054755847,red,1,-0.054755847,0.273779233,magenta,0,-0.054755847,-0.273779233,yellow,0,0.05,0.05,0.15,0.273779233,0.054755847,red,k,34669,32,2020-08-21_15h37.37.047,CDT_GNG_IUS12,2020.1.2,Win32,60,,k,1,0.923,0,40,40,26,1,,,,,,,,,,,,,,,,,,,,,,,,,,,,,,,,,,,,,,,,,,,,,,,,,
,,,,,,,,,,119,different,6,-0.273779233,0.054755847,cyan,1,-0.273779233,-0.273779233,blue,1,0.16426754,0.054755847,orange,1,0.054755847,-0.16426754,yellow,1,-0.273779233,0.273779233,black,1,-0.054755847,-0.054755847,green,1,0.05,0.05,0.15,-0.273779233,-0.273779233,cyan,l,34669,32,2020-08-21_15h37.37.047,CDT_GNG_IUS12,2020.1.2,Win32,60,,l,1,0.917,0,41,41,118,1,,,,,,,,,,,,,,,,,,,,,,,,,,,,,,,,,,,,,,,,,,,,,,,,,
,,,,,,,,,,79,same,6,0.054755847,-0.16426754,black,1,-0.054755847,-0.273779233,yellow,1,-0.273779233,0.273779233,red,1,0.054755847,0.054755847,magenta,1,0.16426754,-0.054755847,cyan,1,-0.16426754,-0.054755847,orange,1,0.05,0.05,0.15,0.054755847,0.054755847,magenta,k,34669,32,2020-08-21_15h37.37.047,CDT_GNG_IUS12,2020.1.2,Win32,60,,k,1,1.218,0,42,42,78,1,,,,,,,,,,,,,,,,,,,,,,,,,,,,,,,,,,,,,,,,,,,,,,,,,
,,,,,,,,,,68,same,6,0.16426754,-0.054755847,blue,1,-0.054755847,-0.16426754,orange,1,-0.16426754,0.054755847,red,1,0.16426754,0.273779233,magenta,1,0.054755847,-0.054755847,black,1,-0.273779233,-0.273779233,yellow,1,0.05,0.05,0.15,-0.054755847,-0.16426754,orange,k,34669,32,2020-08-21_15h37.37.047,CDT_GNG_IUS12,2020.1.2,Win32,60,,k,1,2.555,0,43,43,67,1,,,,,,,,,,,,,,,,,,,,,,,,,,,,,,,,,,,,,,,,,,,,,,,,,
,,,,,,,,,,73,same,6,0.054755847,0.16426754,blue,1,-0.273779233,0.273779233,red,1,-0.273779233,-0.16426754,green,1,0.054755847,-0.054755847,orange,1,0.16426754,0.16426754,black,1,-0.054755847,0.16426754,magenta,1,0.05,0.05,0.15,-0.273779233,0.273779233,red,k,34669,32,2020-08-21_15h37.37.047,CDT_GNG_IUS12,2020.1.2,Win32,60,,k,1,0.919,0,44,44,72,1,,,,,,,,,,,,,,,,,,,,,,,,,,,,,,,,,,,,,,,,,,,,,,,,,
,,,,,,,,,,42,different,4,0.273779233,0.16426754,cyan,1,-0.054755847,0.16426754,magenta,1,0.16426754,-0.054755847,green,1,-0.16426754,-0.16426754,red,1,0.16426754,0.273779233,black,0,-0.054755847,0.273779233,yellow,0,0.05,0.05,0.15,0.273779233,0.16426754,blue,l,34669,32,2020-08-21_15h37.37.047,CDT_GNG_IUS12,2020.1.2,Win32,60,,l,1,0.781,0,45,45,41,1,,,,,,,,,,,,,,,,,,,,,,,,,,,,,,,,,,,,,,,,,,,,,,,,,
,,,,,,,,,,11,same,4,0.273779233,0.16426754,black,1,-0.054755847,0.273779233,cyan,1,0.16426754,-0.054755847,blue,1,-0.273779233,-0.16426754,orange,1,0.054755847,0.273779233,magenta,0,-0.273779233,0.054755847,green,0,0.05,0.05,0.15,0.273779233,0.16426754,black,k,34669,32,2020-08-21_15h37.37.047,CDT_GNG_IUS12,2020.1.2,Win32,60,,k,1,0.795,0,46,46,10,1,,,,,,,,,,,,,,,,,,,,,,,,,,,,,,,,,,,,,,,,,,,,,,,,,
,,,,,,,,,,91,different,6,-0.054755847,0.054755847,green,1,0.054755847,-0.16426754,cyan,1,-0.054755847,-0.054755847,black,1,0.16426754,0.273779233,yellow,1,-0.273779233,0.273779233,magenta,1,0.16426754,-0.054755847,red,1,0.05,0.05,0.15,0.16426754,-0.054755847,green,l,34669,32,2020-08-21_15h37.37.047,CDT_GNG_IUS12,2020.1.2,Win32,60,,l,1,1.141,0,47,47,90,1,,,,,,,,,,,,,,,,,,,,,,,,,,,,,,,,,,,,,,,,,,,,,,,,,
,,,,,,,,,,39,different,4,0.054755847,0.054755847,green,1,0.273779233,-0.16426754,yellow,1,-0.16426754,0.054755847,orange,1,-0.273779233,-0.054755847,red,1,0.273779233,0.054755847,blue,0,0.054755847,-0.16426754,cyan,0,0.05,0.05,0.15,-0.273779233,-0.054755847,cyan,l,34669,32,2020-08-21_15h37.37.047,CDT_GNG_IUS12,2020.1.2,Win32,60,,l,1,0.864,0,48,48,38,1,,,,,,,,,,,,,,,,,,,,,,,,,,,,,,,,,,,,,,,,,,,,,,,,,
,,,,,,,,,,78,same,6,0.054755847,0.054755847,black,1,-0.054755847,0.16426754,red,1,0.273779233,-0.273779233,blue,1,-0.054755847,-0.054755847,magenta,1,0.16426754,0.054755847,yellow,1,-0.273779233,0.16426754,cyan,1,0.05,0.05,0.15,-0.054755847,0.16426754,red,k,34669,32,2020-08-21_15h37.37.047,CDT_GNG_IUS12,2020.1.2,Win32,60,,l,0,1.747,0,49,49,77,1,,,,,,,,,,,,,,,,,,,,,,,,,,,,,,,,,,,,,,,,,,,,,,,,,
,,,,,,,,,,117,different,6,-0.054755847,0.054755847,black,1,0.054755847,0.273779233,magenta,1,-0.273779233,-0.273779233,yellow,1,0.054755847,-0.16426754,blue,1,-0.16426754,0.054755847,cyan,1,0.054755847,0.054755847,red,1,0.05,0.05,0.15,-0.16426754,0.054755847,black,l,34669,32,2020-08-21_15h37.37.047,CDT_GNG_IUS12,2020.1.2,Win32,60,,l,1,1.608,0,50,50,116,1,,,,,,,,,,,,,,,,,,,,,,,,,,,,,,,,,,,,,,,,,,,,,,,,,
,,,,,,,,,,24,same,4,0.054755847,-0.16426754,red,1,0.054755847,0.054755847,yellow,1,-0.273779233,0.16426754,orange,1,-0.273779233,-0.16426754,magenta,1,0.273779233,-0.16426754,black,0,0.273779233,0.273779233,green,0,0.05,0.05,0.15,0.054755847,-0.16426754,red,k,34669,32,2020-08-21_15h37.37.047,CDT_GNG_IUS12,2020.1.2,Win32,60,,k,1,0.835,0,51,51,23,1,,,,,,,,,,,,,,,,,,,,,,,,,,,,,,,,,,,,,,,,,,,,,,,,,
,,,,,,,,,,12,same,4,0.054755847,0.054755847,blue,1,-0.273779233,-0.054755847,magenta,1,-0.054755847,0.273779233,black,1,0.16426754,-0.16426754,green,1,0.16426754,0.16426754,yellow,0,-0.16426754,-0.054755847,orange,0,0.05,0.05,0.15,0.054755847,0.054755847,blue,k,34669,32,2020-08-21_15h37.37.047,CDT_GNG_IUS12,2020.1.2,Win32,60,,k,1,1.553,0,52,52,11,1,,,,,,,,,,,,,,,,,,,,,,,,,,,,,,,,,,,,,,,,,,,,,,,,,
,,,,,,,,,,23,same,4,0.273779233,-0.16426754,yellow,1,0.054755847,0.273779233,red,1,-0.054755847,0.054755847,black,1,-0.273779233,-0.054755847,orange,1,0.273779233,-0.054755847,green,0,0.273779233,0.054755847,magenta,0,0.05,0.05,0.15,-0.054755847,0.054755847,black,k,34669,32,2020-08-21_15h37.37.047,CDT_GNG_IUS12,2020.1.2,Win32,60,,k,1,0.819,0,53,53,22,1,,,,,,,,,,,,,,,,,,,,,,,,,,,,,,,,,,,,,,,,,,,,,,,,,
,,,,,,,,,,70,same,6,0.16426754,0.16426754,cyan,1,0.273779233,-0.273779233,red,1,-0.16426754,0.16426754,yellow,1,-0.273779233,-0.273779233,green,1,0.16426754,0.054755847,magenta,1,0.16426754,-0.054755847,blue,1,0.05,0.05,0.15,0.273779233,-0.273779233,red,k,34669,32,2020-08-21_15h37.37.047,CDT_GNG_IUS12,2020.1.2,Win32,60,,k,1,0.87,0,54,54,69,1,,,,,,,,,,,,,,,,,,,,,,,,,,,,,,,,,,,,,,,,,,,,,,,,,
,,,,,,,,,,56,different,4,0.16426754,0.054755847,red,1,-0.054755847,0.16426754,orange,1,0.16426754,-0.16426754,black,1,-0.273779233,-0.054755847,yellow,1,0.16426754,0.273779233,blue,0,-0.054755847,0.273779233,magenta,0,0.05,0.05,0.15,-0.273779233,-0.054755847,green,l,34669,32,2020-08-21_15h37.37.047,CDT_GNG_IUS12,2020.1.2,Win32,60,,l,1,0.772,0,55,55,55,1,,,,,,,,,,,,,,,,,,,,,,,,,,,,,,,,,,,,,,,,,,,,,,,,,
,,,,,,,,,,16,same,4,0.16426754,0.16426754,cyan,1,-0.16426754,-0.273779233,red,1,-0.16426754,0.16426754,black,1,0.273779233,-0.054755847,yellow,1,0.273779233,0.273779233,orange,0,-0.054755847,-0.273779233,blue,0,0.05,0.05,0.15,-0.16426754,-0.273779233,red,k,34669,32,2020-08-21_15h37.37.047,CDT_GNG_IUS12,2020.1.2,Win32,60,,k,1,0.678,0,56,56,15,1,,,,,,,,,,,,,,,,,,,,,,,,,,,,,,,,,,,,,,,,,,,,,,,,,
,,,,,,,,,,51,different,4,-0.16426754,-0.273779233,yellow,1,0.16426754,-0.273779233,cyan,1,0.273779233,0.054755847,blue,1,-0.054755847,0.273779233,green,1,-0.16426754,-0.054755847,black,0,0.273779233,-0.273779233,red,0,0.05,0.05,0.15,0.16426754,-0.273779233,red,l,34669,32,2020-08-21_15h37.37.047,CDT_GNG_IUS12,2020.1.2,Win32,60,,l,1,0.954,0,57,57,50,1,,,,,,,,,,,,,,,,,,,,,,,,,,,,,,,,,,,,,,,,,,,,,,,,,
,,,,,,,,,,75,same,6,0.16426754,0.273779233,magenta,1,-0.273779233,-0.16426754,green,1,-0.273779233,0.16426754,yellow,1,0.054755847,-0.054755847,red,1,0.273779233,0.054755847,blue,1,-0.16426754,-0.054755847,cyan,1,0.05,0.05,0.15,0.054755847,-0.054755847,red,k,34669,32,2020-08-21_15h37.37.047,CDT_GNG_IUS12,2020.1.2,Win32,60,,k,1,0.82,0,58,58,74,1,,,,,,,,,,,,,,,,,,,,,,,,,,,,,,,,,,,,,,,,,,,,,,,,,
,,,,,,,,,,104,different,6,0.054755847,-0.16426754,magenta,1,0.273779233,0.273779233,yellow,1,-0.273779233,0.273779233,blue,1,-0.16426754,-0.054755847,cyan,1,0.16426754,-0.054755847,orange,1,0.273779233,0.16426754,green,1,0.05,0.05,0.15,0.054755847,-0.16426754,cyan,l,34669,32,2020-08-21_15h37.37.047,CDT_GNG_IUS12,2020.1.2,Win32,60,s,l,1,1.108,0,59,59,103,1,3.036,,,,,,,,,,,,,,,,,,,,,,,,,,,,,,,,,,,,,,,,,,,,,,,,
,,,,,,,,,,105,different,6,0.054755847,0.273779233,cyan,1,0.273779233,-0.16426754,magenta,1,-0.16426754,-0.054755847,yellow,1,-0.16426754,0.16426754,blue,1,0.273779233,0.16426754,orange,1,0.16426754,-0.273779233,green,1,0.05,0.05,0.15,0.16426754,-0.273779233,blue,l,34669,32,2020-08-21_15h37.37.047,CDT_GNG_IUS12,2020.1.2,Win32,60,,l,1,0.811,0,60,60,104,1,,,,,,,,,,,,,,,,,,,,,,,,,,,,,,,,,,,,,,,,,,,,,,,,,
,,,,,,,,,,86,same,6,0.054755847,0.273779233,green,1,-0.054755847,0.273779233,red,1,0.16426754,-0.16426754,yellow,1,-0.054755847,-0.273779233,black,1,0.273779233,0.273779233,cyan,1,-0.273779233,0.054755847,orange,1,0.05,0.05,0.15,-0.273779233,0.054755847,orange,k,34669,32,2020-08-21_15h37.37.047,CDT_GNG_IUS12,2020.1.2,Win32,60,,k,1,0.704,0,61,61,85,1,,,,,,,,,,,,,,,,,,,,,,,,,,,,,,,,,,,,,,,,,,,,,,,,,
,,,,,,,,,,67,same,6,0.273779233,-0.054755847,magenta,1,0.16426754,0.273779233,orange,1,-0.273779233,0.273779233,cyan,1,-0.16426754,-0.054755847,yellow,1,0.16426754,-0.16426754,blue,1,0.16426754,0.16426754,red,1,0.05,0.05,0.15,-0.273779233,0.273779233,cyan,k,34669,32,2020-08-21_15h37.37.047,CDT_GNG_IUS12,2020.1.2,Win32,60,,k,1,0.817,0,62,62,66,1,,,,,,,,,,,,,,,,,,,,,,,,,,,,,,,,,,,,,,,,,,,,,,,,,
,,,,,,,,,,13,same,4,0.16426754,0.273779233,orange,1,0.054755847,-0.273779233,blue,1,-0.054755847,0.054755847,magenta,1,-0.054755847,-0.16426754,black,1,0.054755847,0.16426754,yellow,0,0.16426754,-0.054755847,cyan,0,0.05,0.05,0.15,0.054755847,-0.273779233,blue,k,34669,32,2020-08-21_15h37.37.047,CDT_GNG_IUS12,2020.1.2,Win32,60,,k,1,1.008,0,63,63,12,1,,,,,,,,,,,,,,,,,,,,,,,,,,,,,,,,,,,,,,,,,,,,,,,,,
,,,,,,,,,,88,same,6,0.054755847,0.054755847,orange,1,0.054755847,-0.273779233,red,1,-0.16426754,-0.16426754,magenta,1,-0.16426754,0.273779233,yellow,1,0.16426754,0.16426754,blue,1,0.273779233,-0.16426754,cyan,1,0.05,0.05,0.15,-0.16426754,0.273779233,yellow,k,34669,32,2020-08-21_15h37.37.047,CDT_GNG_IUS12,2020.1.2,Win32,60,,k,1,1.086,0,64,64,87,1,,,,,,,,,,,,,,,,,,,,,,,,,,,,,,,,,,,,,,,,,,,,,,,,,
,,,,,,,,,,58,different,4,-0.16426754,0.273779233,blue,1,0.16426754,0.273779233,yellow,1,0.273779233,-0.16426754,black,1,-0.16426754,-0.054755847,cyan,1,-0.16426754,0.16426754,green,0,0.16426754,0.054755847,orange,0,0.05,0.05,0.15,0.273779233,-0.16426754,magenta,l,34669,32,2020-08-21_15h37.37.047,CDT_GNG_IUS12,2020.1.2,Win32,60,,l,1,0.787,0,65,65,57,1,,,,,,,,,,,,,,,,,,,,,,,,,,,,,,,,,,,,,,,,,,,,,,,,,
,,,,,,,,,,57,different,4,-0.273779233,-0.054755847,yellow,1,0.16426754,-0.054755847,green,1,-0.273779233,0.16426754,red,1,0.273779233,0.054755847,black,1,-0.16426754,-0.054755847,orange,0,0.054755847,-0.16426754,magenta,0,0.05,0.05,0.15,0.16426754,-0.054755847,orange,l,34669,32,2020-08-21_15h37.37.047,CDT_GNG_IUS12,2020.1.2,Win32,60,,l,1,1.071,0,66,66,56,1,,,,,,,,,,,,,,,,,,,,,,,,,,,,,,,,,,,,,,,,,,,,,,,,,
,,,,,,,,,,3,same,4,-0.054755847,-0.054755847,yellow,1,-0.054755847,0.054755847,cyan,1,0.16426754,-0.273779233,black,1,0.273779233,0.273779233,magenta,1,-0.054755847,-0.273779233,orange,0,-0.273779233,0.054755847,green,0,0.05,0.05,0.15,0.273779233,0.273779233,magenta,k,34669,32,2020-08-21_15h37.37.047,CDT_GNG_IUS12,2020.1.2,Win32,60,,l,0,1.17,0,67,67,2,1,,,,,,,,,,,,,,,,,,,,,,,,,,,,,,,,,,,,,,,,,,,,,,,,,
,,,,,,,,,,14,same,4,0.16426754,0.16426754,magenta,1,-0.16426754,0.16426754,blue,1,0.16426754,-0.16426754,green,1,-0.16426754,-0.16426754,red,1,0.16426754,0.273779233,cyan,0,-0.16426754,0.273779233,orange,0,0.05,0.05,0.15,-0.16426754,0.16426754,blue,k,34669,32,2020-08-21_15h37.37.047,CDT_GNG_IUS12,2020.1.2,Win32,60,,k,1,0.676,0,68,68,13,1,,,,,,,,,,,,,,,,,,,,,,,,,,,,,,,,,,,,,,,,,,,,,,,,,
,,,,,,,,,,118,different,6,-0.16426754,-0.16426754,red,1,0.273779233,0.16426754,orange,1,-0.16426754,0.273779233,cyan,1,0.16426754,-0.273779233,black,1,-0.054755847,-0.054755847,yellow,1,0.054755847,0.054755847,green,1,0.05,0.05,0.15,-0.054755847,-0.054755847,magenta,l,34669,32,2020-08-21_15h37.37.047,CDT_GNG_IUS12,2020.1.2,Win32,60,,l,1,0.885,0,69,69,117,1,,,,,,,,,,,,,,,,,,,,,,,,,,,,,,,,,,,,,,,,,,,,,,,,,
,,,,,,,,,,36,different,4,-0.16426754,-0.054755847,cyan,1,0.16426754,0.054755847,red,1,0.16426754,-0.054755847,black,1,-0.273779233,0.273779233,orange,1,-0.054755847,-0.054755847,yellow,0,0.273779233,0.273779233,green,0,0.05,0.05,0.15,0.16426754,-0.054755847,orange,l,34669,32,2020-08-21_15h37.37.047,CDT_GNG_IUS12,2020.1.2,Win32,60,,l,1,0.99,0,70,70,35,1,,,,,,,,,,,,,,,,,,,,,,,,,,,,,,,,,,,,,,,,,,,,,,,,,
,,,,,,,,,,110,different,6,-0.273779233,0.273779233,black,1,0.273779233,-0.16426754,red,1,0.054755847,0.273779233,cyan,1,-0.273779233,-0.16426754,orange,1,-0.054755847,0.054755847,magenta,1,0.16426754,-0.054755847,yellow,1,0.05,0.05,0.15,0.273779233,-0.16426754,yellow,l,34669,32,2020-08-21_15h37.37.047,CDT_GNG_IUS12,2020.1.2,Win32,60,,l,1,1.284,0,71,71,109,1,,,,,,,,,,,,,,,,,,,,,,,,,,,,,,,,,,,,,,,,,,,,,,,,,
,,,,,,,,,,106,different,6,0.054755847,-0.16426754,blue,1,-0.273779233,-0.273779233,magenta,1,0.273779233,0.273779233,yellow,1,-0.273779233,0.054755847,orange,1,0.054755847,-0.054755847,green,1,-0.054755847,-0.16426754,black,1,0.05,0.05,0.15,0.054755847,-0.054755847,cyan,l,34669,32,2020-08-21_15h37.37.047,CDT_GNG_IUS12,2020.1.2,Win32,60,,l,1,0.989,0,72,72,105,1,,,,,,,,,,,,,,,,,,,,,,,,,,,,,,,,,,,,,,,,,,,,,,,,,
,,,,,,,,,,38,different,4,0.273779233,-0.16426754,red,1,-0.054755847,0.16426754,blue,1,-0.273779233,-0.054755847,green,1,0.273779233,0.054755847,cyan,1,0.16426754,-0.054755847,orange,0,-0.054755847,0.054755847,yellow,0,0.05,0.05,0.15,0.273779233,0.054755847,black,l,34669,32,2020-08-21_15h37.37.047,CDT_GNG_IUS12,2020.1.2,Win32,60,,l,1,0.918,0,73,73,37,1,,,,,,,,,,,,,,,,,,,,,,,,,,,,,,,,,,,,,,,,,,,,,,,,,
,,,,,,,,,,94,different,6,0.273779233,-0.273779233,green,1,-0.16426754,-0.054755847,black,1,-0.273779233,0.16426754,blue,1,0.273779233,0.054755847,cyan,1,0.16426754,-0.16426754,magenta,1,-0.054755847,-0.054755847,orange,1,0.05,0.05,0.15,0.273779233,-0.273779233,magenta,l,34669,32,2020-08-21_15h37.37.047,CDT_GNG_IUS12,2020.1.2,Win32,60,,l,1,0.831,0,74,74,93,1,,,,,,,,,,,,,,,,,,,,,,,,,,,,,,,,,,,,,,,,,,,,,,,,,
,,,,,,,,,,2,same,4,0.273779233,0.054755847,magenta,1,-0.273779233,0.273779233,red,1,-0.054755847,-0.054755847,yellow,1,0.273779233,-0.273779233,blue,1,0.054755847,0.16426754,green,0,-0.16426754,0.054755847,cyan,0,0.05,0.05,0.15,0.273779233,-0.273779233,blue,k,34669,32,2020-08-21_15h37.37.047,CDT_GNG_IUS12,2020.1.2,Win32,60,,l,0,0.816,0,75,75,1,1,,,,,,,,,,,,,,,,,,,,,,,,,,,,,,,,,,,,,,,,,,,,,,,,,
,,,,,,,,,,82,same,6,-0.054755847,-0.16426754,red,1,0.273779233,-0.054755847,cyan,1,0.16426754,0.273779233,blue,1,-0.054755847,0.054755847,black,1,-0.16426754,-0.16426754,yellow,1,0.273779233,-0.16426754,green,1,0.05,0.05,0.15,-0.16426754,-0.16426754,yellow,k,34669,32,2020-08-21_15h37.37.047,CDT_GNG_IUS12,2020.1.2,Win32,60,,k,1,2.008,0,76,76,81,1,,,,,,,,,,,,,,,,,,,,,,,,,,,,,,,,,,,,,,,,,,,,,,,,,
,,,,,,,,,,40,different,4,-0.273779233,-0.273779233,magenta,1,0.054755847,-0.16426754,yellow,1,-0.16426754,0.054755847,red,1,0.273779233,0.273779233,orange,1,-0.054755847,-0.054755847,cyan,0,0.16426754,-0.16426754,green,0,0.05,0.05,0.15,0.273779233,0.273779233,black,l,34669,32,2020-08-21_15h37.37.047,CDT_GNG_IUS12,2020.1.2,Win32,60,,l,1,0.72,0,77,77,39,1,,,,,,,,,,,,,,,,,,,,,,,,,,,,,,,,,,,,,,,,,,,,,,,,,
,,,,,,,,,,95,different,6,-0.273779233,-0.16426754,magenta,1,0.16426754,0.273779233,green,1,-0.273779233,0.273779233,black,1,0.16426754,-0.273779233,orange,1,-0.054755847,-0.16426754,blue,1,0.16426754,0.054755847,cyan,1,0.05,0.05,0.15,0.16426754,0.273779233,black,l,34669,32,2020-08-21_15h37.37.047,CDT_GNG_IUS12,2020.1.2,Win32,60,,l,1,1.019,0,78,78,94,1,,,,,,,,,,,,,,,,,,,,,,,,,,,,,,,,,,,,,,,,,,,,,,,,,
,,,,,,,,,,22,same,4,-0.054755847,-0.16426754,green,1,-0.16426754,0.054755847,blue,1,0.16426754,0.16426754,yellow,1,0.273779233,-0.054755847,black,1,-0.273779233,-0.054755847,red,0,-0.054755847,0.16426754,cyan,0,0.05,0.05,0.15,0.273779233,-0.054755847,black,k,34669,32,2020-08-21_15h37.37.047,CDT_GNG_IUS12,2020.1.2,Win32,60,,k,1,1.393,0,79,79,21,1,,,,,,,,,,,,,,,,,,,,,,,,,,,,,,,,,,,,,,,,,,,,,,,,,
,,,,,,,,,,54,different,4,-0.054755847,-0.054755847,black,1,0.054755847,0.054755847,cyan,1,0.273779233,-0.16426754,green,1,-0.273779233,0.16426754,magenta,1,-0.054755847,-0.16426754,orange,0,0.054755847,0.16426754,blue,0,0.05,0.05,0.15,-0.273779233,0.16426754,orange,l,34669,32,2020-08-21_15h37.37.047,CDT_GNG_IUS12,2020.1.2,Win32,60,,l,1,0.701,0,80,80,53,1,,,,,,,,,,,,,,,,,,,,,,,,,,,,,,,,,,,,,,,,,,,,,,,,,
,,,,,,,,,,62,same,6,0.054755847,-0.054755847,yellow,1,-0.273779233,-0.16426754,green,1,0.273779233,0.054755847,orange,1,-0.16426754,0.054755847,cyan,1,0.054755847,-0.273779233,red,1,-0.054755847,-0.054755847,blue,1,0.05,0.05,0.15,0.054755847,-0.054755847,yellow,k,34669,32,2020-08-21_15h37.37.047,CDT_GNG_IUS12,2020.1.2,Win32,60,,k,1,0.715,0,81,81,61,1,,,,,,,,,,,,,,,,,,,,,,,,,,,,,,,,,,,,,,,,,,,,,,,,,
,,,,,,,,,,26,same,4,0.16426754,-0.16426754,green,1,-0.054755847,0.16426754,yellow,1,-0.273779233,-0.16426754,black,1,0.054755847,0.054755847,red,1,0.16426754,-0.054755847,cyan,0,-0.273779233,0.273779233,magenta,0,0.05,0.05,0.15,-0.054755847,0.16426754,yellow,k,34669,32,2020-08-21_15h37.37.047,CDT_GNG_IUS12,2020.1.2,Win32,60,,k,1,0.493,0,82,82,25,1,,,,,,,,,,,,,,,,,,,,,,,,,,,,,,,,,,,,,,,,,,,,,,,,,
,,,,,,,,,,99,different,6,0.054755847,0.16426754,orange,1,0.16426754,-0.16426754,yellow,1,-0.16426754,0.273779233,red,1,-0.273779233,-0.054755847,magenta,1,0.16426754,0.054755847,black,1,0.054755847,-0.054755847,green,1,0.05,0.05,0.15,-0.16426754,0.273779233,blue,l,34669,32,2020-08-21_15h37.37.047,CDT_GNG_IUS12,2020.1.2,Win32,60,,l,1,0.754,0,83,83,98,1,,,,,,,,,,,,,,,,,,,,,,,,,,,,,,,,,,,,,,,,,,,,,,,,,
,,,,,,,,,,97,different,6,-0.273779233,-0.273779233,orange,1,0.054755847,-0.273779233,blue,1,0.16426754,0.16426754,green,1,-0.16426754,0.054755847,cyan,1,-0.16426754,-0.16426754,black,1,0.273779233,-0.16426754,yellow,1,0.05,0.05,0.15,-0.16426754,0.054755847,yellow,l,34669,32,2020-08-21_15h37.37.047,CDT_GNG_IUS12,2020.1.2,Win32,60,,l,1,1.55,0,84,84,96,1,,,,,,,,,,,,,,,,,,,,,,,,,,,,,,,,,,,,,,,,,,,,,,,,,
,,,,,,,,,,21,same,4,0.273779233,0.273779233,black,1,-0.273779233,-0.273779233,blue,1,0.054755847,-0.16426754,yellow,1,-0.273779233,0.054755847,cyan,1,0.16426754,0.273779233,magenta,0,-0.054755847,-0.054755847,green,0,0.05,0.05,0.15,0.273779233,0.273779233,black,k,34669,32,2020-08-21_15h37.37.047,CDT_GNG_IUS12,2020.1.2,Win32,60,,k,1,0.936,0,85,85,20,1,,,,,,,,,,,,,,,,,,,,,,,,,,,,,,,,,,,,,,,,,,,,,,,,,
,,,,,,,,,,7,same,4,-0.16426754,-0.054755847,yellow,1,0.273779233,0.16426754,magenta,1,-0.16426754,0.054755847,cyan,1,0.054755847,-0.054755847,black,1,-0.054755847,-0.054755847,orange,0,0.273779233,0.273779233,blue,0,0.05,0.05,0.15,0.054755847,-0.054755847,black,k,34669,32,2020-08-21_15h37.37.047,CDT_GNG_IUS12,2020.1.2,Win32,60,,k,1,0.692,0,86,86,6,1,,,,,,,,,,,,,,,,,,,,,,,,,,,,,,,,,,,,,,,,,,,,,,,,,
,,,,,,,,,,96,different,6,-0.16426754,-0.16426754,green,1,-0.16426754,0.054755847,black,1,0.054755847,0.16426754,cyan,1,0.16426754,-0.273779233,yellow,1,-0.273779233,-0.273779233,blue,1,-0.054755847,0.054755847,red,1,0.05,0.05,0.15,-0.16426754,0.054755847,magenta,l,34669,32,2020-08-21_15h37.37.047,CDT_GNG_IUS12,2020.1.2,Win32,60,,l,1,0.665,0,87,87,95,1,,,,,,,,,,,,,,,,,,,,,,,,,,,,,,,,,,,,,,,,,,,,,,,,,
,,,,,,,,,,20,same,4,0.273779233,0.054755847,magenta,1,0.054755847,-0.273779233,black,1,-0.054755847,0.16426754,blue,1,-0.273779233,-0.054755847,orange,1,0.054755847,0.054755847,red,0,0.054755847,-0.054755847,cyan,0,0.05,0.05,0.15,-0.054755847,0.16426754,blue,k,34669,32,2020-08-21_15h37.37.047,CDT_GNG_IUS12,2020.1.2,Win32,60,,k,1,0.733,0,88,88,19,1,,,,,,,,,,,,,,,,,,,,,,,,,,,,,,,,,,,,,,,,,,,,,,,,,
,,,,,,,,,,92,different,6,0.16426754,0.16426754,green,1,-0.054755847,-0.054755847,cyan,1,-0.054755847,0.054755847,red,1,0.16426754,-0.054755847,magenta,1,0.054755847,0.16426754,orange,1,-0.273779233,-0.16426754,yellow,1,0.05,0.05,0.15,0.16426754,0.16426754,cyan,l,34669,32,2020-08-21_15h37.37.047,CDT_GNG_IUS12,2020.1.2,Win32,60,,l,1,0.841,0,89,89,91,1,,,,,,,,,,,,,,,,,,,,,,,,,,,,,,,,,,,,,,,,,,,,,,,,,
,,,,,,,,,,6,same,4,0.273779233,0.273779233,blue,1,-0.273779233,-0.16426754,magenta,1,-0.054755847,0.054755847,green,1,0.054755847,-0.054755847,black,1,0.054755847,0.054755847,orange,0,-0.054755847,-0.054755847,red,0,0.05,0.05,0.15,-0.054755847,0.054755847,green,k,34669,32,2020-08-21_15h37.37.047,CDT_GNG_IUS12,2020.1.2,Win32,60,,k,1,0.484,0,90,90,5,1,,,,,,,,,,,,,,,,,,,,,,,,,,,,,,,,,,,,,,,,,,,,,,,,,
,,,,,,,,,,116,different,6,-0.273779233,0.16426754,green,1,-0.054755847,-0.054755847,orange,1,0.273779233,-0.273779233,cyan,1,0.054755847,0.273779233,red,1,-0.054755847,0.16426754,blue,1,-0.16426754,-0.054755847,yellow,1,0.05,0.05,0.15,-0.054755847,-0.054755847,magenta,l,34669,32,2020-08-21_15h37.37.047,CDT_GNG_IUS12,2020.1.2,Win32,60,,l,1,0.63,0,91,91,115,1,,,,,,,,,,,,,,,,,,,,,,,,,,,,,,,,,,,,,,,,,,,,,,,,,
,,,,,,,,,,114,different,6,-0.16426754,0.16426754,black,1,-0.054755847,-0.273779233,orange,1,0.054755847,0.16426754,magenta,1,0.273779233,-0.16426754,green,1,-0.054755847,0.16426754,cyan,1,-0.273779233,-0.273779233,yellow,1,0.05,0.05,0.15,0.054755847,0.16426754,blue,l,34669,32,2020-08-21_15h37.37.047,CDT_GNG_IUS12,2020.1.2,Win32,60,,l,1,0.865,0,92,92,113,1,,,,,,,,,,,,,,,,,,,,,,,,,,,,,,,,,,,,,,,,,,,,,,,,,
,,,,,,,,,,5,same,4,0.273779233,-0.054755847,green,1,0.273779233,0.054755847,orange,1,-0.054755847,0.054755847,black,1,-0.054755847,-0.16426754,blue,1,0.054755847,-0.054755847,cyan,0,0.054755847,0.273779233,red,0,0.05,0.05,0.15,-0.054755847,-0.16426754,blue,k,34669,32,2020-08-21_15h37.37.047,CDT_GNG_IUS12,2020.1.2,Win32,60,,k,1,0.601,0,93,93,4,1,,,,,,,,,,,,,,,,,,,,,,,,,,,,,,,,,,,,,,,,,,,,,,,,,
,,,,,,,,,,35,different,4,-0.054755847,-0.054755847,black,1,0.054755847,0.273779233,magenta,1,-0.273779233,0.054755847,blue,1,0.273779233,-0.054755847,red,1,-0.054755847,-0.16426754,cyan,0,0.054755847,0.054755847,yellow,0,0.05,0.05,0.15,0.054755847,0.273779233,cyan,l,34669,32,2020-08-21_15h37.37.047,CDT_GNG_IUS12,2020.1.2,Win32,60,,l,1,0.82,0,94,94,34,1,,,,,,,,,,,,,,,,,,,,,,,,,,,,,,,,,,,,,,,,,,,,,,,,,
,,,,,,,,,,37,different,4,0.273779233,-0.273779233,cyan,1,-0.054755847,0.054755847,orange,1,-0.054755847,-0.16426754,yellow,1,0.16426754,0.054755847,blue,1,0.054755847,-0.273779233,red,0,-0.273779233,0.16426754,green,0,0.05,0.05,0.15,-0.054755847,0.054755847,green,l,34669,32,2020-08-21_15h37.37.047,CDT_GNG_IUS12,2020.1.2,Win32,60,,l,1,0.655,0,95,95,36,1,,,,,,,,,,,,,,,,,,,,,,,,,,,,,,,,,,,,,,,,,,,,,,,,,
,,,,,,,,,,120,different,6,0.16426754,-0.054755847,blue,1,-0.16426754,-0.273779233,cyan,1,0.16426754,0.16426754,magenta,1,-0.273779233,0.273779233,black,1,0.273779233,-0.16426754,green,1,-0.273779233,-0.16426754,orange,1,0.05,0.05,0.15,0.16426754,0.16426754,yellow,l,34669,32,2020-08-21_15h37.37.047,CDT_GNG_IUS12,2020.1.2,Win32,60,,l,1,0.838,0,96,96,119,1,,,,,,,,,,,,,,,,,,,,,,,,,,,,,,,,,,,,,,,,,,,,,,,,,
,,,,,,,,,,9,same,4,-0.16426754,0.054755847,cyan,1,0.16426754,-0.16426754,magenta,1,-0.273779233,-0.054755847,black,1,0.054755847,0.054755847,green,1,-0.273779233,0.16426754,orange,0,0.273779233,-0.273779233,red,0,0.05,0.05,0.15,-0.273779233,-0.054755847,black,k,34669,32,2020-08-21_15h37.37.047,CDT_GNG_IUS12,2020.1.2,Win32,60,,k,1,0.891,0,97,97,8,1,,,,,,,,,,,,,,,,,,,,,,,,,,,,,,,,,,,,,,,,,,,,,,,,,
,,,,,,,,,,44,different,4,0.16426754,0.16426754,green,1,0.16426754,-0.16426754,black,1,-0.16426754,-0.054755847,cyan,1,-0.16426754,0.054755847,magenta,1,0.16426754,0.054755847,blue,0,0.054755847,-0.273779233,yellow,0,0.05,0.05,0.15,0.16426754,0.16426754,red,l,34669,32,2020-08-21_15h37.37.047,CDT_GNG_IUS12,2020.1.2,Win32,60,,l,1,0.669,0,98,98,43,1,,,,,,,,,,,,,,,,,,,,,,,,,,,,,,,,,,,,,,,,,,,,,,,,,
,,,,,,,,,,90,same,6,0.16426754,-0.054755847,black,1,-0.273779233,-0.054755847,orange,1,-0.16426754,0.16426754,cyan,1,0.273779233,0.273779233,blue,1,0.054755847,-0.054755847,magenta,1,-0.273779233,-0.273779233,yellow,1,0.05,0.05,0.15,-0.273779233,-0.054755847,orange,k,34669,32,2020-08-21_15h37.37.047,CDT_GNG_IUS12,2020.1.2,Win32,60,,k,1,0.632,0,99,99,89,1,,,,,,,,,,,,,,,,,,,,,,,,,,,,,,,,,,,,,,,,,,,,,,,,,
,,,,,,,,,,28,same,4,0.16426754,-0.273779233,yellow,1,-0.054755847,0.16426754,black,1,0.16426754,0.054755847,cyan,1,-0.273779233,-0.16426754,blue,1,0.273779233,-0.273779233,orange,0,-0.054755847,0.054755847,magenta,0,0.05,0.05,0.15,-0.054755847,0.16426754,black,k,34669,32,2020-08-21_15h37.37.047,CDT_GNG_IUS12,2020.1.2,Win32,60,,k,1,0.658,0,100,100,27,1,,,,,,,,,,,,,,,,,,,,,,,,,,,,,,,,,,,,,,,,,,,,,,,,,
,,,,,,,,,,33,different,4,-0.273779233,0.273779233,yellow,1,0.16426754,-0.16426754,cyan,1,-0.273779233,-0.273779233,black,1,0.054755847,0.273779233,blue,1,-0.16426754,0.273779233,green,0,0.054755847,-0.273779233,orange,0,0.05,0.05,0.15,-0.273779233,-0.273779233,cyan,l,34669,32,2020-08-21_15h37.37.047,CDT_GNG_IUS12,2020.1.2,Win32,60,,l,1,0.941,0,101,101,32,1,,,,,,,,,,,,,,,,,,,,,,,,,,,,,,,,,,,,,,,,,,,,,,,,,
,,,,,,,,,,85,same,6,-0.16426754,-0.273779233,black,1,-0.16426754,0.16426754,green,1,0.16426754,-0.054755847,blue,1,0.054755847,0.054755847,magenta,1,-0.16426754,-0.054755847,red,1,-0.054755847,0.054755847,yellow,1,0.05,0.05,0.15,-0.16426754,-0.273779233,black,k,34669,32,2020-08-21_15h37.37.047,CDT_GNG_IUS12,2020.1.2,Win32,60,,k,1,0.698,0,102,102,84,1,,,,,,,,,,,,,,,,,,,,,,,,,,,,,,,,,,,,,,,,,,,,,,,,,
,,,,,,,,,,60,different,4,0.273779233,0.273779233,red,1,-0.273779233,-0.054755847,blue,1,-0.273779233,0.054755847,magenta,1,0.054755847,-0.273779233,black,1,0.273779233,0.054755847,orange,0,-0.054755847,-0.16426754,yellow,0,0.05,0.05,0.15,-0.273779233,0.054755847,yellow,l,34669,32,2020-08-21_15h37.37.047,CDT_GNG_IUS12,2020.1.2,Win32,60,,l,1,0.561,0,103,103,59,1,,,,,,,,,,,,,,,,,,,,,,,,,,,,,,,,,,,,,,,,,,,,,,,,,
,,,,,,,,,,15,same,4,0.054755847,-0.273779233,yellow,1,-0.273779233,-0.054755847,cyan,1,0.273779233,0.16426754,green,1,-0.16426754,0.16426754,blue,1,0.273779233,-0.054755847,magenta,0,-0.16426754,-0.054755847,orange,0,0.05,0.05,0.15,-0.273779233,-0.054755847,cyan,k,34669,32,2020-08-21_15h37.37.047,CDT_GNG_IUS12,2020.1.2,Win32,60,,k,1,0.656,0,104,104,14,1,,,,,,,,,,,,,,,,,,,,,,,,,,,,,,,,,,,,,,,,,,,,,,,,,
,,,,,,,,,,87,same,6,0.273779233,0.16426754,green,1,-0.16426754,-0.054755847,black,1,-0.054755847,0.054755847,cyan,1,0.273779233,-0.054755847,blue,1,0.054755847,0.054755847,yellow,1,-0.273779233,-0.273779233,red,1,0.05,0.05,0.15,-0.273779233,-0.273779233,red,k,34669,32,2020-08-21_15h37.37.047,CDT_GNG_IUS12,2020.1.2,Win32,60,,k,1,0.606,0,105,105,86,1,,,,,,,,,,,,,,,,,,,,,,,,,,,,,,,,,,,,,,,,,,,,,,,,,
,,,,,,,,,,29,same,4,0.273779233,0.054755847,magenta,1,-0.054755847,0.273779233,cyan,1,0.16426754,-0.054755847,green,1,-0.16426754,-0.054755847,black,1,0.273779233,0.16426754,orange,0,-0.16426754,0.054755847,blue,0,0.05,0.05,0.15,0.16426754,-0.054755847,green,k,34669,32,2020-08-21_15h37.37.047,CDT_GNG_IUS12,2020.1.2,Win32,60,,l,0,0.726,0,106,106,28,1,,,,,,,,,,,,,,,,,,,,,,,,,,,,,,,,,,,,,,,,,,,,,,,,,
,,,,,,,,,,98,different,6,-0.054755847,-0.16426754,magenta,1,0.273779233,0.273779233,green,1,0.273779233,-0.273779233,red,1,-0.16426754,0.273779233,blue,1,-0.273779233,-0.16426754,cyan,1,0.273779233,0.054755847,black,1,0.05,0.05,0.15,-0.16426754,0.273779233,cyan,l,34669,32,2020-08-21_15h37.37.047,CDT_GNG_IUS12,2020.1.2,Win32,60,,k,0,0.834,0,107,107,97,1,,,,,,,,,,,,,,,,,,,,,,,,,,,,,,,,,,,,,,,,,,,,,,,,,
,,,,,,,,,,113,different,6,-0.273779233,0.054755847,black,1,-0.16426754,-0.16426754,blue,1,0.054755847,-0.16426754,orange,1,0.16426754,0.16426754,red,1,-0.273779233,0.273779233,green,1,-0.273779233,-0.16426754,magenta,1,0.05,0.05,0.15,-0.273779233,-0.16426754,black,l,34669,32,2020-08-21_15h37.37.047,CDT_GNG_IUS12,2020.1.2,Win32,60,,l,1,0.734,0,108,108,112,1,,,,,,,,,,,,,,,,,,,,,,,,,,,,,,,,,,,,,,,,,,,,,,,,,
,,,,,,,,,,25,same,4,0.16426754,-0.273779233,green,1,-0.16426754,-0.273779233,black,1,0.16426754,0.054755847,cyan,1,-0.273779233,0.273779233,blue,1,0.054755847,-0.273779233,yellow,0,-0.273779233,-0.273779233,red,0,0.05,0.05,0.15,-0.273779233,0.273779233,blue,k,34669,32,2020-08-21_15h37.37.047,CDT_GNG_IUS12,2020.1.2,Win32,60,,k,1,0.735,0,109,109,24,1,,,,,,,,,,,,,,,,,,,,,,,,,,,,,,,,,,,,,,,,,,,,,,,,,
,,,,,,,,,,84,same,6,-0.273779233,-0.16426754,black,1,0.273779233,0.273779233,blue,1,-0.054755847,0.054755847,red,1,0.16426754,-0.054755847,orange,1,-0.16426754,-0.16426754,cyan,1,0.16426754,0.16426754,magenta,1,0.05,0.05,0.15,-0.16426754,-0.16426754,cyan,k,34669,32,2020-08-21_15h37.37.047,CDT_GNG_IUS12,2020.1.2,Win32,60,,k,1,1.235,0,110,110,83,1,,,,,,,,,,,,,,,,,,,,,,,,,,,,,,,,,,,,,,,,,,,,,,,,,
,,,,,,,,,,107,different,6,0.273779233,0.16426754,cyan,1,-0.16426754,-0.273779233,magenta,1,-0.054755847,0.054755847,black,1,0.16426754,-0.054755847,blue,1,0.16426754,0.054755847,green,1,-0.273779233,-0.16426754,yellow,1,0.05,0.05,0.15,0.16426754,0.054755847,blue,l,34669,32,2020-08-21_15h37.37.047,CDT_GNG_IUS12,2020.1.2,Win32,60,,l,1,0.556,0,111,111,106,1,,,,,,,,,,,,,,,,,,,,,,,,,,,,,,,,,,,,,,,,,,,,,,,,,
,,,,,,,,,,71,same,6,-0.054755847,-0.16426754,orange,1,0.273779233,0.054755847,green,1,0.16426754,-0.16426754,yellow,1,-0.054755847,0.054755847,blue,1,-0.054755847,-0.273779233,black,1,0.054755847,0.16426754,cyan,1,0.05,0.05,0.15,-0.054755847,0.054755847,blue,k,34669,32,2020-08-21_15h37.37.047,CDT_GNG_IUS12,2020.1.2,Win32,60,,l,0,0.873,0,112,112,70,1,,,,,,,,,,,,,,,,,,,,,,,,,,,,,,,,,,,,,,,,,,,,,,,,,
,,,,,,,,,,108,different,6,-0.273779233,-0.054755847,magenta,1,0.054755847,0.16426754,red,1,-0.16426754,0.054755847,cyan,1,0.054755847,-0.273779233,green,1,-0.273779233,-0.16426754,orange,1,0.273779233,0.273779233,black,1,0.05,0.05,0.15,-0.273779233,-0.054755847,blue,l,34669,32,2020-08-21_15h37.37.047,CDT_GNG_IUS12,2020.1.2,Win32,60,,l,1,0.738,0,113,113,107,1,,,,,,,,,,,,,,,,,,,,,,,,,,,,,,,,,,,,,,,,,,,,,,,,,
,,,,,,,,,,111,different,6,0.273779233,0.273779233,green,1,0.054755847,-0.16426754,red,1,-0.16426754,-0.16426754,black,1,-0.16426754,0.16426754,magenta,1,0.054755847,0.054755847,blue,1,0.273779233,-0.16426754,yellow,1,0.05,0.05,0.15,0.273779233,-0.16426754,green,l,34669,32,2020-08-21_15h37.37.047,CDT_GNG_IUS12,2020.1.2,Win32,60,,l,1,0.744,0,114,114,110,1,,,,,,,,,,,,,,,,,,,,,,,,,,,,,,,,,,,,,,,,,,,,,,,,,
,,,,,,,,,,17,same,4,0.16426754,0.273779233,yellow,1,-0.054755847,0.16426754,orange,1,0.273779233,-0.054755847,cyan,1,-0.273779233,-0.054755847,green,1,0.16426754,0.16426754,blue,0,-0.054755847,0.273779233,magenta,0,0.05,0.05,0.15,0.16426754,0.273779233,yellow,k,34669,32,2020-08-21_15h37.37.047,CDT_GNG_IUS12,2020.1.2,Win32,60,,k,1,0.933,0,115,115,16,1,,,,,,,,,,,,,,,,,,,,,,,,,,,,,,,,,,,,,,,,,,,,,,,,,
,,,,,,,,,,49,different,4,-0.16426754,-0.273779233,black,1,0.16426754,0.16426754,red,1,-0.273779233,0.16426754,yellow,1,0.054755847,-0.273779233,green,1,-0.273779233,-0.273779233,magenta,0,0.054755847,0.273779233,blue,0,0.05,0.05,0.15,0.054755847,-0.273779233,orange,l,34669,32,2020-08-21_15h37.37.047,CDT_GNG_IUS12,2020.1.2,Win32,60,,l,1,0.692,0,116,116,48,1,,,,,,,,,,,,,,,,,,,,,,,,,,,,,,,,,,,,,,,,,,,,,,,,,
,,,,,,,,,,76,same,6,0.16426754,0.054755847,cyan,1,0.273779233,-0.273779233,red,1,-0.054755847,-0.273779233,magenta,1,-0.054755847,0.16426754,yellow,1,0.054755847,0.273779233,blue,1,0.054755847,-0.273779233,green,1,0.05,0.05,0.15,0.16426754,0.054755847,cyan,k,34669,32,2020-08-21_15h37.37.047,CDT_GNG_IUS12,2020.1.2,Win32,60,,k,1,0.68,0,117,117,75,1,,,,,,,,,,,,,,,,,,,,,,,,,,,,,,,,,,,,,,,,,,,,,,,,,
,,,,,,,,,,34,different,4,0.16426754,0.16426754,yellow,1,0.273779233,-0.16426754,cyan,1,-0.273779233,-0.273779233,magenta,1,-0.273779233,0.16426754,green,1,0.054755847,0.054755847,black,0,0.273779233,-0.273779233,orange,0,0.05,0.05,0.15,0.16426754,0.16426754,cyan,l,34669,32,2020-08-21_15h37.37.047,CDT_GNG_IUS12,2020.1.2,Win32,60,,l,1,1.386,0,118,118,33,1,,,,,,,,,,,,,,,,,,,,,,,,,,,,,,,,,,,,,,,,,,,,,,,,,
,,,,,,,,,,31,different,4,-0.16426754,0.16426754,blue,1,0.16426754,-0.054755847,magenta,1,-0.16426754,-0.054755847,yellow,1,0.054755847,0.273779233,black,1,-0.273779233,0.054755847,red,0,0.273779233,-0.273779233,cyan,0,0.05,0.05,0.15,-0.16426754,-0.054755847,black,l,34669,32,2020-08-21_15h37.37.047,CDT_GNG_IUS12,2020.1.2,Win32,60,,l,1,0.961,0,119,119,30,1,,,,,,,,,,,,,,,,,,,,,,,,,,,,,,,,,,,,,,,,,,,,,,,,,
,,,,,,,,,,,,,,,,,,,,,,,,,,,,,,,,,,,,,,,,,,,,34669,32,2020-08-21_15h37.37.047,CDT_GNG_IUS12,2020.1.2,Win32,60,,,,,,,,,,,,1,0,0,0,0,1,1,0,,,,,,,,,,,,,,,,,,,,,,,,,,,,,,,,,,,,,,,
,,,,,,,,,,,,,,,,,,,,,,,,,,,,,,,,,,,,,,,,,,,,34669,32,2020-08-21_15h37.37.047,CDT_GNG_IUS12,2020.1.2,Win32,60,,,,,,,,,,,space,0,0,1,1,1,1,1,0,0.492,,,,,,,,,,,,,,,,,,,,,,,,,,,,,,,,,,,,,,
,,,,,,,,,,,,,,,,,,,,,,,,,,,,,,,,,,,,,,,,,,,,34669,32,2020-08-21_15h37.37.047,CDT_GNG_IUS12,2020.1.2,Win32,60,,,,,,,,,,,,1,0,2,2,2,1,1,0,,,,,,,,,,,,,,,,,,,,,,,,,,,,,,,,,,,,,,,
,,,,,,,,,,,,,,,,,,,,,,,,,,,,,,,,,,,,,,,,,,,space,34669,32,2020-08-21_15h37.37.047,CDT_GNG_IUS12,2020.1.2,Win32,60,,,,,,,,,,,space,1,0,3,3,5,1,0,1,0.406,,,,,,,,,,,,,,,,,,,,,,,,,,,,,,,,,,,,,,
,,,,,,,,,,,,,,,,,,,,,,,,,,,,,,,,,,,,,,,,,,,space,34669,32,2020-08-21_15h37.37.047,CDT_GNG_IUS12,2020.1.2,Win32,60,,,,,,,,,,,space,1,0,4,4,4,1,0,1,0.489,,,,,,,,,,,,,,,,,,,,,,,,,,,,,,,,,,,,,,
,,,,,,,,,,,,,,,,,,,,,,,,,,,,,,,,,,,,,,,,,,,space,34669,32,2020-08-21_15h37.37.047,CDT_GNG_IUS12,2020.1.2,Win32,60,,,,,,,,,,,space,1,0,5,5,7,1,0,1,0.394,,,,,,,,,,,,,,,,,,,,,,,,,,,,,,,,,,,,,,
,,,,,,,,,,,,,,,,,,,,,,,,,,,,,,,,,,,,,,,,,,,,34669,32,2020-08-21_15h37.37.047,CDT_GNG_IUS12,2020.1.2,Win32,60,,,,,,,,,,,,1,0,6,6,3,1,1,0,,,,,,,,,,,,,,,,,,,,,,,,,,,,,,,,,,,,,,,
,,,,,,,,,,,,,,,,,,,,,,,,,,,,,,,,,,,,,,,,,,,space,34669,32,2020-08-21_15h37.37.047,CDT_GNG_IUS12,2020.1.2,Win32,60,,,,,,,,,,,space,1,0,7,7,6,1,0,1,0.565,,,,,,,,,,,,,,,,,,,,,,,,,,,,,,,,,,,,,,
,,,,,,,,,,,,,,,,,,,,,,,,,,,,,,,,,,,,,,,,,,,space,34669,32,2020-08-21_15h37.37.047,CDT_GNG_IUS12,2020.1.2,Win32,60,,,,,,,,,,,,,,,,,,0,1,,space,1,0.417,0,0,0,14,1,,,,,,,,,,,,,,,,,,,,,,,,,,,,,,
,,,,,,,,,,,,,,,,,,,,,,,,,,,,,,,,,,,,,,,,,,,,34669,32,2020-08-21_15h37.37.047,CDT_GNG_IUS12,2020.1.2,Win32,60,,,,,,,,,,,,,,,,,,1,0,,,1,,0,1,1,0,1,,,,,,,,,,,,,,,,,,,,,,,,,,,,,,
,,,,,,,,,,,,,,,,,,,,,,,,,,,,,,,,,,,,,,,,,,,space,34669,32,2020-08-21_15h37.37.047,CDT_GNG_IUS12,2020.1.2,Win32,60,,,,,,,,,,,,,,,,,,0,1,,space,1,0.439,0,2,2,31,1,,,,,,,,,,,,,,,,,,,,,,,,,,,,,,
,,,,,,,,,,,,,,,,,,,,,,,,,,,,,,,,,,,,,,,,,,,,34669,32,2020-08-21_15h37.37.047,CDT_GNG_IUS12,2020.1.2,Win32,60,,,,,,,,,,,,,,,,,,1,0,,,1,,0,3,3,9,1,,,,,,,,,,,,,,,,,,,,,,,,,,,,,,
,,,,,,,,,,,,,,,,,,,,,,,,,,,,,,,,,,,,,,,,,,,,34669,32,2020-08-21_15h37.37.047,CDT_GNG_IUS12,2020.1.2,Win32,60,,,,,,,,,,,,,,,,,,1,0,,,1,,0,4,4,2,1,,,,,,,,,,,,,,,,,,,,,,,,,,,,,,
,,,,,,,,,,,,,,,,,,,,,,,,,,,,,,,,,,,,,,,,,,,space,34669,32,2020-08-21_15h37.37.047,CDT_GNG_IUS12,2020.1.2,Win32,60,,,,,,,,,,,,,,,,,,0,1,,space,1,0.284,0,5,5,42,1,,,,,,,,,,,,,,,,,,,,,,,,,,,,,,
,,,,,,,,,,,,,,,,,,,,,,,,,,,,,,,,,,,,,,,,,,,space,34669,32,2020-08-21_15h37.37.047,CDT_GNG_IUS12,2020.1.2,Win32,60,,,,,,,,,,,,,,,,,,0,1,,space,1,0.502,0,6,6,47,1,,,,,,,,,,,,,,,,,,,,,,,,,,,,,,
,,,,,,,,,,,,,,,,,,,,,,,,,,,,,,,,,,,,,,,,,,,space,34669,32,2020-08-21_15h37.37.047,CDT_GNG_IUS12,2020.1.2,Win32,60,,,,,,,,,,,,,,,,,,0,1,,space,1,0.452,0,7,7,12,1,,,,,,,,,,,,,,,,,,,,,,,,,,,,,,
,,,,,,,,,,,,,,,,,,,,,,,,,,,,,,,,,,,,,,,,,,,space,34669,32,2020-08-21_15h37.37.047,CDT_GNG_IUS12,2020.1.2,Win32,60,,,,,,,,,,,,,,,,,,0,1,,space,1,0.368,0,8,8,17,1,,,,,,,,,,,,,,,,,,,,,,,,,,,,,,
,,,,,,,,,,,,,,,,,,,,,,,,,,,,,,,,,,,,,,,,,,,space,34669,32,2020-08-21_15h37.37.047,CDT_GNG_IUS12,2020.1.2,Win32,60,,,,,,,,,,,,,,,,,,0,1,,space,1,0.355,0,9,9,39,1,,,,,,,,,,,,,,,,,,,,,,,,,,,,,,
,,,,,,,,,,,,,,,,,,,,,,,,,,,,,,,,,,,,,,,,,,,space,34669,32,2020-08-21_15h37.37.047,CDT_GNG_IUS12,2020.1.2,Win32,60,,,,,,,,,,,,,,,,,,0,1,,space,1,0.352,0,10,10,29,1,,,,,,,,,,,,,,,,,,,,,,,,,,,,,,
,,,,,,,,,,,,,,,,,,,,,,,,,,,,,,,,,,,,,,,,,,,space,34669,32,2020-08-21_15h37.37.047,CDT_GNG_IUS12,2020.1.2,Win32,60,,,,,,,,,,,,,,,,,,0,1,,space,1,0.334,0,11,11,15,1,,,,,,,,,,,,,,,,,,,,,,,,,,,,,,
,,,,,,,,,,,,,,,,,,,,,,,,,,,,,,,,,,,,,,,,,,,space,34669,32,2020-08-21_15h37.37.047,CDT_GNG_IUS12,2020.1.2,Win32,60,,,,,,,,,,,,,,,,,,0,1,,space,1,0.353,0,12,12,24,1,,,,,,,,,,,,,,,,,,,,,,,,,,,,,,
,,,,,,,,,,,,,,,,,,,,,,,,,,,,,,,,,,,,,,,,,,,space,34669,32,2020-08-21_15h37.37.047,CDT_GNG_IUS12,2020.1.2,Win32,60,,,,,,,,,,,,,,,,,,0,1,,space,1,0.433,0,13,13,21,1,,,,,,,,,,,,,,,,,,,,,,,,,,,,,,
,,,,,,,,,,,,,,,,,,,,,,,,,,,,,,,,,,,,,,,,,,,,34669,32,2020-08-21_15h37.37.047,CDT_GNG_IUS12,2020.1.2,Win32,60,,,,,,,,,,,,,,,,,,1,0,,,1,,0,14,14,6,1,,,,,,,,,,,,,,,,,,,,,,,,,,,,,,
,,,,,,,,,,,,,,,,,,,,,,,,,,,,,,,,,,,,,,,,,,,space,34669,32,2020-08-21_15h37.37.047,CDT_GNG_IUS12,2020.1.2,Win32,60,,,,,,,,,,,,,,,,,,0,1,,space,1,0.444,0,15,15,30,1,,,,,,,,,,,,,,,,,,,,,,,,,,,,,,
,,,,,,,,,,,,,,,,,,,,,,,,,,,,,,,,,,,,,,,,,,,space,34669,32,2020-08-21_15h37.37.047,CDT_GNG_IUS12,2020.1.2,Win32,60,,,,,,,,,,,,,,,,,,0,1,,space,1,0.472,0,16,16,41,1,,,,,,,,,,,,,,,,,,,,,,,,,,,,,,
,,,,,,,,,,,,,,,,,,,,,,,,,,,,,,,,,,,,,,,,,,,space,34669,32,2020-08-21_15h37.37.047,CDT_GNG_IUS12,2020.1.2,Win32,60,,,,,,,,,,,,,,,,,,0,1,,space,1,0.356,0,17,17,32,1,,,,,,,,,,,,,,,,,,,,,,,,,,,,,,
,,,,,,,,,,,,,,,,,,,,,,,,,,,,,,,,,,,,,,,,,,,space,34669,32,2020-08-21_15h37.37.047,CDT_GNG_IUS12,2020.1.2,Win32,60,,,,,,,,,,,,,,,,,,0,1,,space,1,0.52,0,18,18,35,1,,,,,,,,,,,,,,,,,,,,,,,,,,,,,,
,,,,,,,,,,,,,,,,,,,,,,,,,,,,,,,,,,,,,,,,,,,space,34669,32,2020-08-21_15h37.37.047,CDT_GNG_IUS12,2020.1.2,Win32,60,,,,,,,,,,,,,,,,,,0,1,,,0,,0,19,19,46,1,,,,,,,,,,,,,,,,,,,,,,,,,,,,,,
,,,,,,,,,,,,,,,,,,,,,,,,,,,,,,,,,,,,,,,,,,,space,34669,32,2020-08-21_15h37.37.047,CDT_GNG_IUS12,2020.1.2,Win32,60,,,,,,,,,,,,,,,,,,0,1,,space,1,0.118,0,20,20,43,1,,,,,,,,,,,,,,,,,,,,,,,,,,,,,,
,,,,,,,,,,,,,,,,,,,,,,,,,,,,,,,,,,,,,,,,,,,space,34669,32,2020-08-21_15h37.37.047,CDT_GNG_IUS12,2020.1.2,Win32,60,,,,,,,,,,,,,,,,,,0,1,,space,1,0.283,0,21,21,44,1,,,,,,,,,,,,,,,,,,,,,,,,,,,,,,
,,,,,,,,,,,,,,,,,,,,,,,,,,,,,,,,,,,,,,,,,,,space,34669,32,2020-08-21_15h37.37.047,CDT_GNG_IUS12,2020.1.2,Win32,60,,,,,,,,,,,,,,,,,,0,1,,space,1,0.318,0,22,22,27,1,,,,,,,,,,,,,,,,,,,,,,,,,,,,,,
,,,,,,,,,,,,,,,,,,,,,,,,,,,,,,,,,,,,,,,,,,,space,34669,32,2020-08-21_15h37.37.047,CDT_GNG_IUS12,2020.1.2,Win32,60,,,,,,,,,,,,,,,,,,0,1,,space,1,0.235,0,23,23,25,1,,,,,,,,,,,,,,,,,,,,,,,,,,,,,,
,,,,,,,,,,,,,,,,,,,,,,,,,,,,,,,,,,,,,,,,,,,space,34669,32,2020-08-21_15h37.37.047,CDT_GNG_IUS12,2020.1.2,Win32,60,,,,,,,,,,,,,,,,,,0,1,,space,1,0.284,0,24,24,36,1,,,,,,,,,,,,,,,,,,,,,,,,,,,,,,
,,,,,,,,,,,,,,,,,,,,,,,,,,,,,,,,,,,,,,,,,,,space,34669,32,2020-08-21_15h37.37.047,CDT_GNG_IUS12,2020.1.2,Win32,60,,,,,,,,,,,,,,,,,,0,1,,space,1,0.268,0,25,25,48,1,,,,,,,,,,,,,,,,,,,,,,,,,,,,,,
,,,,,,,,,,,,,,,,,,,,,,,,,,,,,,,,,,,,,,,,,,,,34669,32,2020-08-21_15h37.37.047,CDT_GNG_IUS12,2020.1.2,Win32,60,,,,,,,,,,,,,,,,,,1,0,,,1,,0,26,26,7,1,,,,,,,,,,,,,,,,,,,,,,,,,,,,,,
,,,,,,,,,,,,,,,,,,,,,,,,,,,,,,,,,,,,,,,,,,,,34669,32,2020-08-21_15h37.37.047,CDT_GNG_IUS12,2020.1.2,Win32,60,,,,,,,,,,,,,,,,,,1,0,,,1,,0,27,27,3,1,,,,,,,,,,,,,,,,,,,,,,,,,,,,,,
,,,,,,,,,,,,,,,,,,,,,,,,,,,,,,,,,,,,,,,,,,,space,34669,32,2020-08-21_15h37.37.047,CDT_GNG_IUS12,2020.1.2,Win32,60,,,,,,,,,,,,,,,,,,0,1,,space,1,0.301,0,28,28,16,1,,,,,,,,,,,,,,,,,,,,,,,,,,,,,,
,,,,,,,,,,,,,,,,,,,,,,,,,,,,,,,,,,,,,,,,,,,,34669,32,2020-08-21_15h37.37.047,CDT_GNG_IUS12,2020.1.2,Win32,60,,,,,,,,,,,,,,,,,,1,0,,,1,,0,29,29,1,1,,,,,,,,,,,,,,,,,,,,,,,,,,,,,,
,,,,,,,,,,,,,,,,,,,,,,,,,,,,,,,,,,,,,,,,,,,space,34669,32,2020-08-21_15h37.37.047,CDT_GNG_IUS12,2020.1.2,Win32,60,,,,,,,,,,,,,,,,,,0,1,,space,1,0.35,0,30,30,10,1,,,,,,,,,,,,,,,,,,,,,,,,,,,,,,
,,,,,,,,,,,,,,,,,,,,,,,,,,,,,,,,,,,,,,,,,,,space,34669,32,2020-08-21_15h37.37.047,CDT_GNG_IUS12,2020.1.2,Win32,60,,,,,,,,,,,,,,,,,,0,1,,space,1,0.452,0,31,31,40,1,,,,,,,,,,,,,,,,,,,,,,,,,,,,,,
,,,,,,,,,,,,,,,,,,,,,,,,,,,,,,,,,,,,,,,,,,,,34669,32,2020-08-21_15h37.37.047,CDT_GNG_IUS12,2020.1.2,Win32,60,,,,,,,,,,,,,,,,,,1,0,,,1,,0,32,32,8,1,,,,,,,,,,,,,,,,,,,,,,,,,,,,,,
,,,,,,,,,,,,,,,,,,,,,,,,,,,,,,,,,,,,,,,,,,,space,34669,32,2020-08-21_15h37.37.047,CDT_GNG_IUS12,2020.1.2,Win32,60,,,,,,,,,,,,,,,,,,0,1,,space,1,0.343,0,33,33,22,1,,,,,,,,,,,,,,,,,,,,,,,,,,,,,,
,,,,,,,,,,,,,,,,,,,,,,,,,,,,,,,,,,,,,,,,,,,space,34669,32,2020-08-21_15h37.37.047,CDT_GNG_IUS12,2020.1.2,Win32,60,,,,,,,,,,,,,,,,,,0,1,,space,1,0.451,0,34,34,20,1,,,,,,,,,,,,,,,,,,,,,,,,,,,,,,
,,,,,,,,,,,,,,,,,,,,,,,,,,,,,,,,,,,,,,,,,,,space,34669,32,2020-08-21_15h37.37.047,CDT_GNG_IUS12,2020.1.2,Win32,60,,,,,,,,,,,,,,,,,,0,1,,space,1,0.331,0,35,35,13,1,,,,,,,,,,,,,,,,,,,,,,,,,,,,,,
,,,,,,,,,,,,,,,,,,,,,,,,,,,,,,,,,,,,,,,,,,,space,34669,32,2020-08-21_15h37.37.047,CDT_GNG_IUS12,2020.1.2,Win32,60,,,,,,,,,,,,,,,,,,0,1,,space,1,0.367,0,36,36,38,1,,,,,,,,,,,,,,,,,,,,,,,,,,,,,,
,,,,,,,,,,,,,,,,,,,,,,,,,,,,,,,,,,,,,,,,,,,space,34669,32,2020-08-21_15h37.37.047,CDT_GNG_IUS12,2020.1.2,Win32,60,,,,,,,,,,,,,,,,,,0,1,,space,1,0.387,0,37,37,33,1,,,,,,,,,,,,,,,,,,,,,,,,,,,,,,
,,,,,,,,,,,,,,,,,,,,,,,,,,,,,,,,,,,,,,,,,,,space,34669,32,2020-08-21_15h37.37.047,CDT_GNG_IUS12,2020.1.2,Win32,60,,,,,,,,,,,,,,,,,,0,1,,space,1,0.514,0,38,38,34,1,,,,,,,,,,,,,,,,,,,,,,,,,,,,,,
,,,,,,,,,,,,,,,,,,,,,,,,,,,,,,,,,,,,,,,,,,,space,34669,32,2020-08-21_15h37.37.047,CDT_GNG_IUS12,2020.1.2,Win32,60,,,,,,,,,,,,,,,,,,0,1,,,0,,0,39,39,11,1,,,,,,,,,,,,,,,,,,,,,,,,,,,,,,
,,,,,,,,,,,,,,,,,,,,,,,,,,,,,,,,,,,,,,,,,,,,34669,32,2020-08-21_15h37.37.047,CDT_GNG_IUS12,2020.1.2,Win32,60,,,,,,,,,,,,,,,,,,1,0,,,1,,0,40,40,5,1,,,,,,,,,,,,,,,,,,,,,,,,,,,,,,
,,,,,,,,,,,,,,,,,,,,,,,,,,,,,,,,,,,,,,,,,,,space,34669,32,2020-08-21_15h37.37.047,CDT_GNG_IUS12,2020.1.2,Win32,60,,,,,,,,,,,,,,,,,,0,1,,,0,,0,41,41,26,1,,,,,,,,,,,,,,,,,,,,,,,,,,,,,,
,,,,,,,,,,,,,,,,,,,,,,,,,,,,,,,,,,,,,,,,,,,space,34669,32,2020-08-21_15h37.37.047,CDT_GNG_IUS12,2020.1.2,Win32,60,,,,,,,,,,,,,,,,,,0,1,,space,1,0.22,0,42,42,23,1,,,,,,,,,,,,,,,,,,,,,,,,,,,,,,
,,,,,,,,,,,,,,,,,,,,,,,,,,,,,,,,,,,,,,,,,,,space,34669,32,2020-08-21_15h37.37.047,CDT_GNG_IUS12,2020.1.2,Win32,60,,,,,,,,,,,,,,,,,,0,1,,space,1,0.303,0,43,43,18,1,,,,,,,,,,,,,,,,,,,,,,,,,,,,,,
,,,,,,,,,,,,,,,,,,,,,,,,,,,,,,,,,,,,,,,,,,,space,34669,32,2020-08-21_15h37.37.047,CDT_GNG_IUS12,2020.1.2,Win32,60,,,,,,,,,,,,,,,,,,0,1,,space,1,0.265,0,44,44,28,1,,,,,,,,,,,,,,,,,,,,,,,,,,,,,,
,,,,,,,,,,,,,,,,,,,,,,,,,,,,,,,,,,,,,,,,,,,space,34669,32,2020-08-21_15h37.37.047,CDT_GNG_IUS12,2020.1.2,Win32,60,,,,,,,,,,,,,,,,,,0,1,,,0,,0,45,45,37,1,,,,,,,,,,,,,,,,,,,,,,,,,,,,,,
,,,,,,,,,,,,,,,,,,,,,,,,,,,,,,,,,,,,,,,,,,,space,34669,32,2020-08-21_15h37.37.047,CDT_GNG_IUS12,2020.1.2,Win32,60,,,,,,,,,,,,,,,,,,0,1,,space,1,0.037,0,46,46,49,1,,,,,,,,,,,,,,,,,,,,,,,,,,,,,,
,,,,,,,,,,,,,,,,,,,,,,,,,,,,,,,,,,,,,,,,,,,,34669,32,2020-08-21_15h37.37.047,CDT_GNG_IUS12,2020.1.2,Win32,60,,,,,,,,,,,,,,,,,,1,0,,,1,,0,47,47,4,1,,,,,,,,,,,,,,,,,,,,,,,,,,,,,,
,,,,,,,,,,,,,,,,,,,,,,,,,,,,,,,,,,,,,,,,,,,space,34669,32,2020-08-21_15h37.37.047,CDT_GNG_IUS12,2020.1.2,Win32,60,,,,,,,,,,,,,,,,,,0,1,,space,1,0.453,0,48,48,45,1,,,,,,,,,,,,,,,,,,,,,,,,,,,,,,
,,,,,,,,,,,,,,,,,,,,,,,,,,,,,,,,,,,,,,,,,,,space,34669,32,2020-08-21_15h37.37.047,CDT_GNG_IUS12,2020.1.2,Win32,60,,,,,,,,,,,,,,,,,,0,1,,,0,,0,49,49,19,1,,,,,,,,,,,,,,,,,,,,,,,,,,,,,,
,,,,,,,,,,,,,,,,,,,,,,,,,,,,,,,,,,,,,,,,,,,space,34669,32,2020-08-21_15h37.37.047,CDT_GNG_IUS12,2020.1.2,Win32,60,,,,,,,,,,,,,,,,,,0,1,,space,1,0.342,,,,,,0,0,0,27,1,,,,,,,,,,,,,,,,,,,,,,,,,
,,,,,,,,,,,,,,,,,,,,,,,,,,,,,,,,,,,,,,,,,,,space,34669,32,2020-08-21_15h37.37.047,CDT_GNG_IUS12,2020.1.2,Win32,60,,,,,,,,,,,,,,,,,,0,1,,space,1,0.394,,,,,,0,1,1,28,1,,,,,,,,,,,,,,,,,,,,,,,,,
,,,,,,,,,,,,,,,,,,,,,,,,,,,,,,,,,,,,,,,,,,,space,34669,32,2020-08-21_15h37.37.047,CDT_GNG_IUS12,2020.1.2,Win32,60,,,,,,,,,,,,,,,,,,0,1,,space,1,0.252,,,,,,0,2,2,13,1,,,,,,,,,,,,,,,,,,,,,,,,,
,,,,,,,,,,,,,,,,,,,,,,,,,,,,,,,,,,,,,,,,,,,space,34669,32,2020-08-21_15h37.37.047,CDT_GNG_IUS12,2020.1.2,Win32,60,,,,,,,,,,,,,,,,,,0,1,,space,1,0.19,,,,,,0,3,3,23,1,,,,,,,,,,,,,,,,,,,,,,,,,
,,,,,,,,,,,,,,,,,,,,,,,,,,,,,,,,,,,,,,,,,,,,34669,32,2020-08-21_15h37.37.047,CDT_GNG_IUS12,2020.1.2,Win32,60,,,,,,,,,,,,,,,,,,1,0,,space,0,0.292,,,,,,0,4,4,3,1,,,,,,,,,,,,,,,,,,,,,,,,,
,,,,,,,,,,,,,,,,,,,,,,,,,,,,,,,,,,,,,,,,,,,space,34669,32,2020-08-21_15h37.37.047,CDT_GNG_IUS12,2020.1.2,Win32,60,,,,,,,,,,,,,,,,,,0,1,,space,1,0.551,,,,,,0,5,5,43,1,,,,,,,,,,,,,,,,,,,,,,,,,
,,,,,,,,,,,,,,,,,,,,,,,,,,,,,,,,,,,,,,,,,,,space,34669,32,2020-08-21_15h37.37.047,CDT_GNG_IUS12,2020.1.2,Win32,60,,,,,,,,,,,,,,,,,,0,1,,space,1,0.502,,,,,,0,6,6,37,1,,,,,,,,,,,,,,,,,,,,,,,,,
,,,,,,,,,,,,,,,,,,,,,,,,,,,,,,,,,,,,,,,,,,,space,34669,32,2020-08-21_15h37.37.047,CDT_GNG_IUS12,2020.1.2,Win32,60,,,,,,,,,,,,,,,,,,0,1,,space,1,0.449,,,,,,0,7,7,19,1,,,,,,,,,,,,,,,,,,,,,,,,,
,,,,,,,,,,,,,,,,,,,,,,,,,,,,,,,,,,,,,,,,,,,space,34669,32,2020-08-21_15h37.37.047,CDT_GNG_IUS12,2020.1.2,Win32,60,,,,,,,,,,,,,,,,,,0,1,,space,1,0.401,,,,,,0,8,8,32,1,,,,,,,,,,,,,,,,,,,,,,,,,
,,,,,,,,,,,,,,,,,,,,,,,,,,,,,,,,,,,,,,,,,,,space,34669,32,2020-08-21_15h37.37.047,CDT_GNG_IUS12,2020.1.2,Win32,60,,,,,,,,,,,,,,,,,,0,1,,space,1,0.499,,,,,,0,9,9,21,1,,,,,,,,,,,,,,,,,,,,,,,,,
,,,,,,,,,,,,,,,,,,,,,,,,,,,,,,,,,,,,,,,,,,,space,34669,32,2020-08-21_15h37.37.047,CDT_GNG_IUS12,2020.1.2,Win32,60,,,,,,,,,,,,,,,,,,0,1,,,0,,,,,,,0,10,10,17,1,,,,,,,,,,,,,,,,,,,,,,,,,
,,,,,,,,,,,,,,,,,,,,,,,,,,,,,,,,,,,,,,,,,,,space,34669,32,2020-08-21_15h37.37.047,CDT_GNG_IUS12,2020.1.2,Win32,60,,,,,,,,,,,,,,,,,,0,1,,space,1,0.239,,,,,,0,11,11,10,1,,,,,,,,,,,,,,,,,,,,,,,,,
,,,,,,,,,,,,,,,,,,,,,,,,,,,,,,,,,,,,,,,,,,,space,34669,32,2020-08-21_15h37.37.047,CDT_GNG_IUS12,2020.1.2,Win32,60,,,,,,,,,,,,,,,,,,0,1,,space,1,0.52,,,,,,0,12,12,34,1,,,,,,,,,,,,,,,,,,,,,,,,,
,,,,,,,,,,,,,,,,,,,,,,,,,,,,,,,,,,,,,,,,,,,space,34669,32,2020-08-21_15h37.37.047,CDT_GNG_IUS12,2020.1.2,Win32,60,,,,,,,,,,,,,,,,,,0,1,,space,1,0.51,,,,,,0,13,13,18,1,,,,,,,,,,,,,,,,,,,,,,,,,
,,,,,,,,,,,,,,,,,,,,,,,,,,,,,,,,,,,,,,,,,,,space,34669,32,2020-08-21_15h37.37.047,CDT_GNG_IUS12,2020.1.2,Win32,60,,,,,,,,,,,,,,,,,,0,1,,,0,,,,,,,0,14,14,15,1,,,,,,,,,,,,,,,,,,,,,,,,,
,,,,,,,,,,,,,,,,,,,,,,,,,,,,,,,,,,,,,,,,,,,,34669,32,2020-08-21_15h37.37.047,CDT_GNG_IUS12,2020.1.2,Win32,60,,,,,,,,,,,,,,,,,,1,0,,space,0,0.113,,,,,,0,15,15,1,1,,,,,,,,,,,,,,,,,,,,,,,,,
,,,,,,,,,,,,,,,,,,,,,,,,,,,,,,,,,,,,,,,,,,,space,34669,32,2020-08-21_15h37.37.047,CDT_GNG_IUS12,2020.1.2,Win32,60,,,,,,,,,,,,,,,,,,0,1,,,0,,,,,,,0,16,16,44,1,,,,,,,,,,,,,,,,,,,,,,,,,
,,,,,,,,,,,,,,,,,,,,,,,,,,,,,,,,,,,,,,,,,,,space,34669,32,2020-08-21_15h37.37.047,CDT_GNG_IUS12,2020.1.2,Win32,60,,,,,,,,,,,,,,,,,,0,1,,space,1,0.385,,,,,,0,17,17,33,1,,,,,,,,,,,,,,,,,,,,,,,,,
,,,,,,,,,,,,,,,,,,,,,,,,,,,,,,,,,,,,,,,,,,,space,34669,32,2020-08-21_15h37.37.047,CDT_GNG_IUS12,2020.1.2,Win32,60,,,,,,,,,,,,,,,,,,0,1,,space,1,0.303,,,,,,0,18,18,35,1,,,,,,,,,,,,,,,,,,,,,,,,,
,,,,,,,,,,,,,,,,,,,,,,,,,,,,,,,,,,,,,,,,,,,space,34669,32,2020-08-21_15h37.37.047,CDT_GNG_IUS12,2020.1.2,Win32,60,,,,,,,,,,,,,,,,,,0,1,,,0,,,,,,,0,19,19,12,1,,,,,,,,,,,,,,,,,,,,,,,,,
,,,,,,,,,,,,,,,,,,,,,,,,,,,,,,,,,,,,,,,,,,,space,34669,32,2020-08-21_15h37.37.047,CDT_GNG_IUS12,2020.1.2,Win32,60,,,,,,,,,,,,,,,,,,0,1,,space,1,0.09,,,,,,0,20,20,29,1,,,,,,,,,,,,,,,,,,,,,,,,,
,,,,,,,,,,,,,,,,,,,,,,,,,,,,,,,,,,,,,,,,,,,space,34669,32,2020-08-21_15h37.37.047,CDT_GNG_IUS12,2020.1.2,Win32,60,,,,,,,,,,,,,,,,,,0,1,,space,1,0.042,,,,,,0,21,21,46,1,,,,,,,,,,,,,,,,,,,,,,,,,
,,,,,,,,,,,,,,,,,,,,,,,,,,,,,,,,,,,,,,,,,,,space,34669,32,2020-08-21_15h37.37.047,CDT_GNG_IUS12,2020.1.2,Win32,60,,,,,,,,,,,,,,,,,,0,1,,space,1,0.41,,,,,,0,22,22,40,1,,,,,,,,,,,,,,,,,,,,,,,,,
,,,,,,,,,,,,,,,,,,,,,,,,,,,,,,,,,,,,,,,,,,,space,34669,32,2020-08-21_15h37.37.047,CDT_GNG_IUS12,2020.1.2,Win32,60,,,,,,,,,,,,,,,,,,0,1,,,0,,,,,,,0,23,23,49,1,,,,,,,,,,,,,,,,,,,,,,,,,
,,,,,,,,,,,,,,,,,,,,,,,,,,,,,,,,,,,,,,,,,,,space,34669,32,2020-08-21_15h37.37.047,CDT_GNG_IUS12,2020.1.2,Win32,60,,,,,,,,,,,,,,,,,,0,1,,space,1,0.104,,,,,,0,24,24,39,1,,,,,,,,,,,,,,,,,,,,,,,,,
,,,,,,,,,,,,,,,,,,,,,,,,,,,,,,,,,,,,,,,,,,,space,34669,32,2020-08-21_15h37.37.047,CDT_GNG_IUS12,2020.1.2,Win32,60,,,,,,,,,,,,,,,,,,0,1,,space,1,0.268,,,,,,0,25,25,31,1,,,,,,,,,,,,,,,,,,,,,,,,,
,,,,,,,,,,,,,,,,,,,,,,,,,,,,,,,,,,,,,,,,,,,space,34669,32,2020-08-21_15h37.37.047,CDT_GNG_IUS12,2020.1.2,Win32,60,,,,,,,,,,,,,,,,,,0,1,,space,1,0.374,,,,,,0,26,26,11,1,,,,,,,,,,,,,,,,,,,,,,,,,
,,,,,,,,,,,,,,,,,,,,,,,,,,,,,,,,,,,,,,,,,,,space,34669,32,2020-08-21_15h37.37.047,CDT_GNG_IUS12,2020.1.2,Win32,60,,,,,,,,,,,,,,,,,,0,1,,space,1,0.39,,,,,,0,27,27,38,1,,,,,,,,,,,,,,,,,,,,,,,,,
,,,,,,,,,,,,,,,,,,,,,,,,,,,,,,,,,,,,,,,,,,,space,34669,32,2020-08-21_15h37.37.047,CDT_GNG_IUS12,2020.1.2,Win32,60,,,,,,,,,,,,,,,,,,0,1,,space,1,0.41,,,,,,0,28,28,45,1,,,,,,,,,,,,,,,,,,,,,,,,,
,,,,,,,,,,,,,,,,,,,,,,,,,,,,,,,,,,,,,,,,,,,space,34669,32,2020-08-21_15h37.37.047,CDT_GNG_IUS12,2020.1.2,Win32,60,,,,,,,,,,,,,,,,,,0,1,,,0,,,,,,,0,29,29,26,1,,,,,,,,,,,,,,,,,,,,,,,,,
,,,,,,,,,,,,,,,,,,,,,,,,,,,,,,,,,,,,,,,,,,,,34669,32,2020-08-21_15h37.37.047,CDT_GNG_IUS12,2020.1.2,Win32,60,,,,,,,,,,,,,,,,,,1,0,,,1,,,,,,,0,30,30,5,1,,,,,,,,,,,,,,,,,,,,,,,,,
,,,,,,,,,,,,,,,,,,,,,,,,,,,,,,,,,,,,,,,,,,,space,34669,32,2020-08-21_15h37.37.047,CDT_GNG_IUS12,2020.1.2,Win32,60,,,,,,,,,,,,,,,,,,0,1,,space,1,0.45,,,,,,0,31,31,41,1,,,,,,,,,,,,,,,,,,,,,,,,,
,,,,,,,,,,,,,,,,,,,,,,,,,,,,,,,,,,,,,,,,,,,space,34669,32,2020-08-21_15h37.37.047,CDT_GNG_IUS12,2020.1.2,Win32,60,,,,,,,,,,,,,,,,,,0,1,,,0,,,,,,,0,32,32,30,1,,,,,,,,,,,,,,,,,,,,,,,,,
,,,,,,,,,,,,,,,,,,,,,,,,,,,,,,,,,,,,,,,,,,,,34669,32,2020-08-21_15h37.37.047,CDT_GNG_IUS12,2020.1.2,Win32,60,,,,,,,,,,,,,,,,,,1,0,,,1,,,,,,,0,33,33,9,1,,,,,,,,,,,,,,,,,,,,,,,,,
,,,,,,,,,,,,,,,,,,,,,,,,,,,,,,,,,,,,,,,,,,,,34669,32,2020-08-21_15h37.37.047,CDT_GNG_IUS12,2020.1.2,Win32,60,,,,,,,,,,,,,,,,,,1,0,,,1,,,,,,,0,34,34,0,1,,,,,,,,,,,,,,,,,,,,,,,,,
,,,,,,,,,,,,,,,,,,,,,,,,,,,,,,,,,,,,,,,,,,,space,34669,32,2020-08-21_15h37.37.047,CDT_GNG_IUS12,2020.1.2,Win32,60,,,,,,,,,,,,,,,,,,0,1,,space,1,0.245,,,,,,0,35,35,47,1,,,,,,,,,,,,,,,,,,,,,,,,,
,,,,,,,,,,,,,,,,,,,,,,,,,,,,,,,,,,,,,,,,,,,space,34669,32,2020-08-21_15h37.37.047,CDT_GNG_IUS12,2020.1.2,Win32,60,,,,,,,,,,,,,,,,,,0,1,,,0,,,,,,,0,36,36,36,1,,,,,,,,,,,,,,,,,,,,,,,,,
,,,,,,,,,,,,,,,,,,,,,,,,,,,,,,,,,,,,,,,,,,,,34669,32,2020-08-21_15h37.37.047,CDT_GNG_IUS12,2020.1.2,Win32,60,,,,,,,,,,,,,,,,,,1,0,,space,0,0.054,,,,,,0,37,37,7,1,,,,,,,,,,,,,,,,,,,,,,,,,
,,,,,,,,,,,,,,,,,,,,,,,,,,,,,,,,,,,,,,,,,,,space,34669,32,2020-08-21_15h37.37.047,CDT_GNG_IUS12,2020.1.2,Win32,60,,,,,,,,,,,,,,,,,,0,1,,,0,,,,,,,0,38,38,48,1,,,,,,,,,,,,,,,,,,,,,,,,,
,,,,,,,,,,,,,,,,,,,,,,,,,,,,,,,,,,,,,,,,,,,,34669,32,2020-08-21_15h37.37.047,CDT_GNG_IUS12,2020.1.2,Win32,60,,,,,,,,,,,,,,,,,,1,0,,space,0,0.256,,,,,,0,39,39,8,1,,,,,,,,,,,,,,,,,,,,,,,,,
,,,,,,,,,,,,,,,,,,,,,,,,,,,,,,,,,,,,,,,,,,,space,34669,32,2020-08-21_15h37.37.047,CDT_GNG_IUS12,2020.1.2,Win32,60,,,,,,,,,,,,,,,,,,0,1,,,0,,,,,,,0,40,40,25,1,,,,,,,,,,,,,,,,,,,,,,,,,
,,,,,,,,,,,,,,,,,,,,,,,,,,,,,,,,,,,,,,,,,,,,34669,32,2020-08-21_15h37.37.047,CDT_GNG_IUS12,2020.1.2,Win32,60,,,,,,,,,,,,,,,,,,1,0,,,1,,,,,,,0,41,41,2,1,,,,,,,,,,,,,,,,,,,,,,,,,
,,,,,,,,,,,,,,,,,,,,,,,,,,,,,,,,,,,,,,,,,,,space,34669,32,2020-08-21_15h37.37.047,CDT_GNG_IUS12,2020.1.2,Win32,60,,,,,,,,,,,,,,,,,,0,1,,space,1,0.068,,,,,,0,42,42,20,1,,,,,,,,,,,,,,,,,,,,,,,,,
,,,,,,,,,,,,,,,,,,,,,,,,,,,,,,,,,,,,,,,,,,,,34669,32,2020-08-21_15h37.37.047,CDT_GNG_IUS12,2020.1.2,Win32,60,,,,,,,,,,,,,,,,,,1,0,,,1,,,,,,,0,43,43,6,1,,,,,,,,,,,,,,,,,,,,,,,,,
,,,,,,,,,,,,,,,,,,,,,,,,,,,,,,,,,,,,,,,,,,,space,34669,32,2020-08-21_15h37.37.047,CDT_GNG_IUS12,2020.1.2,Win32,60,,,,,,,,,,,,,,,,,,0,1,,space,1,0.291,,,,,,0,44,44,16,1,,,,,,,,,,,,,,,,,,,,,,,,,
,,,,,,,,,,,,,,,,,,,,,,,,,,,,,,,,,,,,,,,,,,,space,34669,32,2020-08-21_15h37.37.047,CDT_GNG_IUS12,2020.1.2,Win32,60,,,,,,,,,,,,,,,,,,0,1,,,0,,,,,,,0,45,45,42,1,,,,,,,,,,,,,,,,,,,,,,,,,
,,,,,,,,,,,,,,,,,,,,,,,,,,,,,,,,,,,,,,,,,,,space,34669,32,2020-08-21_15h37.37.047,CDT_GNG_IUS12,2020.1.2,Win32,60,,,,,,,,,,,,,,,,,,0,1,,space,1,0.549,,,,,,0,46,46,24,1,,,,,,,,,,,,,,,,,,,,,,,,,
,,,,,,,,,,,,,,,,,,,,,,,,,,,,,,,,,,,,,,,,,,,,34669,32,2020-08-21_15h37.37.047,CDT_GNG_IUS12,2020.1.2,Win32,60,,,,,,,,,,,,,,,,,,1,0,,,1,,,,,,,0,47,47,4,1,,,,,,,,,,,,,,,,,,,,,,,,,
,,,,,,,,,,,,,,,,,,,,,,,,,,,,,,,,,,,,,,,,,,,space,34669,32,2020-08-21_15h37.37.047,CDT_GNG_IUS12,2020.1.2,Win32,60,,,,,,,,,,,,,,,,,,0,1,,,0,,,,,,,0,48,48,22,1,,,,,,,,,,,,,,,,,,,,,,,,,
,,,,,,,,,,,,,,,,,,,,,,,,,,,,,,,,,,,,,,,,,,,space,34669,32,2020-08-21_15h37.37.047,CDT_GNG_IUS12,2020.1.2,Win32,60,,,,,,,,,,,,,,,,,,0,1,,space,1,0.172,,,,,,0,49,49,14,1,,,,,,,,,,,,,,,,,,,,,,,,,
,,,,,,,,,,,,,,,,,,,,,,,,,,,,,,,,,,,,,,,,,,,space,34669,32,2020-08-21_15h37.37.047,CDT_GNG_IUS12,2020.1.2,Win32,60,,,,,,,,,,,,,,,,,,0,1,,space,1,0.387,,,,,,,,,,,0,0,0,44,1,,,,,,,,,,,,,,,,,,,,
,,,,,,,,,,,,,,,,,,,,,,,,,,,,,,,,,,,,,,,,,,,space,34669,32,2020-08-21_15h37.37.047,CDT_GNG_IUS12,2020.1.2,Win32,60,,,,,,,,,,,,,,,,,,0,1,,space,1,0.316,,,,,,,,,,,0,1,1,21,1,,,,,,,,,,,,,,,,,,,,
,,,,,,,,,,,,,,,,,,,,,,,,,,,,,,,,,,,,,,,,,,,space,34669,32,2020-08-21_15h37.37.047,CDT_GNG_IUS12,2020.1.2,Win32,60,,,,,,,,,,,,,,,,,,0,1,,space,1,0.315,,,,,,,,,,,0,2,2,33,1,,,,,,,,,,,,,,,,,,,,
,,,,,,,,,,,,,,,,,,,,,,,,,,,,,,,,,,,,,,,,,,,,34669,32,2020-08-21_15h37.37.047,CDT_GNG_IUS12,2020.1.2,Win32,60,,,,,,,,,,,,,,,,,,1,0,,,1,,,,,,,,,,,,0,3,3,2,1,,,,,,,,,,,,,,,,,,,,
,,,,,,,,,,,,,,,,,,,,,,,,,,,,,,,,,,,,,,,,,,,space,34669,32,2020-08-21_15h37.37.047,CDT_GNG_IUS12,2020.1.2,Win32,60,,,,,,,,,,,,,,,,,,0,1,,space,1,0.286,,,,,,,,,,,0,4,4,14,1,,,,,,,,,,,,,,,,,,,,
,,,,,,,,,,,,,,,,,,,,,,,,,,,,,,,,,,,,,,,,,,,space,34669,32,2020-08-21_15h37.37.047,CDT_GNG_IUS12,2020.1.2,Win32,60,,,,,,,,,,,,,,,,,,0,1,,space,1,0.4,,,,,,,,,,,0,5,5,10,1,,,,,,,,,,,,,,,,,,,,
,,,,,,,,,,,,,,,,,,,,,,,,,,,,,,,,,,,,,,,,,,,space,34669,32,2020-08-21_15h37.37.047,CDT_GNG_IUS12,2020.1.2,Win32,60,,,,,,,,,,,,,,,,,,0,1,,space,1,0.403,,,,,,,,,,,0,6,6,23,1,,,,,,,,,,,,,,,,,,,,
,,,,,,,,,,,,,,,,,,,,,,,,,,,,,,,,,,,,,,,,,,,space,34669,32,2020-08-21_15h37.37.047,CDT_GNG_IUS12,2020.1.2,Win32,60,,,,,,,,,,,,,,,,,,0,1,,space,1,0.356,,,,,,,,,,,0,7,7,18,1,,,,,,,,,,,,,,,,,,,,
,,,,,,,,,,,,,,,,,,,,,,,,,,,,,,,,,,,,,,,,,,,space,34669,32,2020-08-21_15h37.37.047,CDT_GNG_IUS12,2020.1.2,Win32,60,,,,,,,,,,,,,,,,,,0,1,,space,1,0.338,,,,,,,,,,,0,8,8,16,1,,,,,,,,,,,,,,,,,,,,
,,,,,,,,,,,,,,,,,,,,,,,,,,,,,,,,,,,,,,,,,,,space,34669,32,2020-08-21_15h37.37.047,CDT_GNG_IUS12,2020.1.2,Win32,60,,,,,,,,,,,,,,,,,,0,1,,space,1,0.327,,,,,,,,,,,0,9,9,24,1,,,,,,,,,,,,,,,,,,,,
,,,,,,,,,,,,,,,,,,,,,,,,,,,,,,,,,,,,,,,,,,,space,34669,32,2020-08-21_15h37.37.047,CDT_GNG_IUS12,2020.1.2,Win32,60,,,,,,,,,,,,,,,,,,0,1,,space,1,0.316,,,,,,,,,,,0,10,10,12,1,,,,,,,,,,,,,,,,,,,,
,,,,,,,,,,,,,,,,,,,,,,,,,,,,,,,,,,,,,,,,,,,space,34669,32,2020-08-21_15h37.37.047,CDT_GNG_IUS12,2020.1.2,Win32,60,,,,,,,,,,,,,,,,,,0,1,,space,1,0.348,,,,,,,,,,,0,11,11,47,1,,,,,,,,,,,,,,,,,,,,
,,,,,,,,,,,,,,,,,,,,,,,,,,,,,,,,,,,,,,,,,,,space,34669,32,2020-08-21_15h37.37.047,CDT_GNG_IUS12,2020.1.2,Win32,60,,,,,,,,,,,,,,,,,,0,1,,space,1,0.335,,,,,,,,,,,0,12,12,40,1,,,,,,,,,,,,,,,,,,,,
,,,,,,,,,,,,,,,,,,,,,,,,,,,,,,,,,,,,,,,,,,,,34669,32,2020-08-21_15h37.37.047,CDT_GNG_IUS12,2020.1.2,Win32,60,,,,,,,,,,,,,,,,,,1,0,,,1,,,,,,,,,,,,0,13,13,3,1,,,,,,,,,,,,,,,,,,,,
,,,,,,,,,,,,,,,,,,,,,,,,,,,,,,,,,,,,,,,,,,,space,34669,32,2020-08-21_15h37.37.047,CDT_GNG_IUS12,2020.1.2,Win32,60,,,,,,,,,,,,,,,,,,0,1,,space,1,0.285,,,,,,,,,,,0,14,14,45,1,,,,,,,,,,,,,,,,,,,,
,,,,,,,,,,,,,,,,,,,,,,,,,,,,,,,,,,,,,,,,,,,space,34669,32,2020-08-21_15h37.37.047,CDT_GNG_IUS12,2020.1.2,Win32,60,,,,,,,,,,,,,,,,,,0,1,,space,1,0.534,,,,,,,,,,,0,15,15,39,1,,,,,,,,,,,,,,,,,,,,
,,,,,,,,,,,,,,,,,,,,,,,,,,,,,,,,,,,,,,,,,,,space,34669,32,2020-08-21_15h37.37.047,CDT_GNG_IUS12,2020.1.2,Win32,60,,,,,,,,,,,,,,,,,,0,1,,space,1,0.387,,,,,,,,,,,0,16,16,31,1,,,,,,,,,,,,,,,,,,,,
,,,,,,,,,,,,,,,,,,,,,,,,,,,,,,,,,,,,,,,,,,,space,34669,32,2020-08-21_15h37.37.047,CDT_GNG_IUS12,2020.1.2,Win32,60,,,,,,,,,,,,,,,,,,0,1,,space,1,0.387,,,,,,,,,,,0,17,17,46,1,,,,,,,,,,,,,,,,,,,,
,,,,,,,,,,,,,,,,,,,,,,,,,,,,,,,,,,,,,,,,,,,,34669,32,2020-08-21_15h37.37.047,CDT_GNG_IUS12,2020.1.2,Win32,60,,,,,,,,,,,,,,,,,,1,0,,,1,,,,,,,,,,,,0,18,18,0,1,,,,,,,,,,,,,,,,,,,,
,,,,,,,,,,,,,,,,,,,,,,,,,,,,,,,,,,,,,,,,,,,space,34669,32,2020-08-21_15h37.37.047,CDT_GNG_IUS12,2020.1.2,Win32,60,,,,,,,,,,,,,,,,,,0,1,,space,1,0.36,,,,,,,,,,,0,19,19,34,1,,,,,,,,,,,,,,,,,,,,
,,,,,,,,,,,,,,,,,,,,,,,,,,,,,,,,,,,,,,,,,,,space,34669,32,2020-08-21_15h37.37.047,CDT_GNG_IUS12,2020.1.2,Win32,60,,,,,,,,,,,,,,,,,,0,1,,space,1,0.312,,,,,,,,,,,0,20,20,38,1,,,,,,,,,,,,,,,,,,,,
,,,,,,,,,,,,,,,,,,,,,,,,,,,,,,,,,,,,,,,,,,,space,34669,32,2020-08-21_15h37.37.047,CDT_GNG_IUS12,2020.1.2,Win32,60,,,,,,,,,,,,,,,,,,0,1,,space,1,0.373,,,,,,,,,,,0,21,21,26,1,,,,,,,,,,,,,,,,,,,,
,,,,,,,,,,,,,,,,,,,,,,,,,,,,,,,,,,,,,,,,,,,,34669,32,2020-08-21_15h37.37.047,CDT_GNG_IUS12,2020.1.2,Win32,60,,,,,,,,,,,,,,,,,,1,0,,,1,,,,,,,,,,,,0,22,22,7,1,,,,,,,,,,,,,,,,,,,,
,,,,,,,,,,,,,,,,,,,,,,,,,,,,,,,,,,,,,,,,,,,space,34669,32,2020-08-21_15h37.37.047,CDT_GNG_IUS12,2020.1.2,Win32,60,,,,,,,,,,,,,,,,,,0,1,,space,1,0.264,,,,,,,,,,,0,23,23,32,1,,,,,,,,,,,,,,,,,,,,
,,,,,,,,,,,,,,,,,,,,,,,,,,,,,,,,,,,,,,,,,,,space,34669,32,2020-08-21_15h37.37.047,CDT_GNG_IUS12,2020.1.2,Win32,60,,,,,,,,,,,,,,,,,,0,1,,space,1,0.335,,,,,,,,,,,0,24,24,22,1,,,,,,,,,,,,,,,,,,,,
,,,,,,,,,,,,,,,,,,,,,,,,,,,,,,,,,,,,,,,,,,,space,34669,32,2020-08-21_15h37.37.047,CDT_GNG_IUS12,2020.1.2,Win32,60,,,,,,,,,,,,,,,,,,0,1,,space,1,0.492,,,,,,,,,,,0,25,25,25,1,,,,,,,,,,,,,,,,,,,,
,,,,,,,,,,,,,,,,,,,,,,,,,,,,,,,,,,,,,,,,,,,space,34669,32,2020-08-21_15h37.37.047,CDT_GNG_IUS12,2020.1.2,Win32,60,,,,,,,,,,,,,,,,,,0,1,,space,1,0.455,,,,,,,,,,,0,26,26,43,1,,,,,,,,,,,,,,,,,,,,
,,,,,,,,,,,,,,,,,,,,,,,,,,,,,,,,,,,,,,,,,,,space,34669,32,2020-08-21_15h37.37.047,CDT_GNG_IUS12,2020.1.2,Win32,60,,,,,,,,,,,,,,,,,,0,1,,space,1,0.376,,,,,,,,,,,0,27,27,28,1,,,,,,,,,,,,,,,,,,,,
,,,,,,,,,,,,,,,,,,,,,,,,,,,,,,,,,,,,,,,,,,,,34669,32,2020-08-21_15h37.37.047,CDT_GNG_IUS12,2020.1.2,Win32,60,,,,,,,,,,,,,,,,,,1,0,,,1,,,,,,,,,,,,0,28,28,6,1,,,,,,,,,,,,,,,,,,,,
,,,,,,,,,,,,,,,,,,,,,,,,,,,,,,,,,,,,,,,,,,,space,34669,32,2020-08-21_15h37.37.047,CDT_GNG_IUS12,2020.1.2,Win32,60,,,,,,,,,,,,,,,,,,0,1,,space,1,0.402,,,,,,,,,,,0,29,29,30,1,,,,,,,,,,,,,,,,,,,,
,,,,,,,,,,,,,,,,,,,,,,,,,,,,,,,,,,,,,,,,,,,,34669,32,2020-08-21_15h37.37.047,CDT_GNG_IUS12,2020.1.2,Win32,60,,,,,,,,,,,,,,,,,,1,0,,,1,,,,,,,,,,,,0,30,30,4,1,,,,,,,,,,,,,,,,,,,,
,,,,,,,,,,,,,,,,,,,,,,,,,,,,,,,,,,,,,,,,,,,space,34669,32,2020-08-21_15h37.37.047,CDT_GNG_IUS12,2020.1.2,Win32,60,,,,,,,,,,,,,,,,,,0,1,,space,1,0.153,,,,,,,,,,,0,31,31,17,1,,,,,,,,,,,,,,,,,,,,
,,,,,,,,,,,,,,,,,,,,,,,,,,,,,,,,,,,,,,,,,,,,34669,32,2020-08-21_15h37.37.047,CDT_GNG_IUS12,2020.1.2,Win32,60,,,,,,,,,,,,,,,,,,1,0,,,1,,,,,,,,,,,,0,32,32,9,1,,,,,,,,,,,,,,,,,,,,
,,,,,,,,,,,,,,,,,,,,,,,,,,,,,,,,,,,,,,,,,,,space,34669,32,2020-08-21_15h37.37.047,CDT_GNG_IUS12,2020.1.2,Win32,60,,,,,,,,,,,,,,,,,,0,1,,space,1,0.297,,,,,,,,,,,0,33,33,29,1,,,,,,,,,,,,,,,,,,,,
,,,,,,,,,,,,,,,,,,,,,,,,,,,,,,,,,,,,,,,,,,,space,34669,32,2020-08-21_15h37.37.047,CDT_GNG_IUS12,2020.1.2,Win32,60,,,,,,,,,,,,,,,,,,0,1,,space,1,0.373,,,,,,,,,,,0,34,34,15,1,,,,,,,,,,,,,,,,,,,,
,,,,,,,,,,,,,,,,,,,,,,,,,,,,,,,,,,,,,,,,,,,space,34669,32,2020-08-21_15h37.37.047,CDT_GNG_IUS12,2020.1.2,Win32,60,,,,,,,,,,,,,,,,,,0,1,,space,1,0.298,,,,,,,,,,,0,35,35,42,1,,,,,,,,,,,,,,,,,,,,
,,,,,,,,,,,,,,,,,,,,,,,,,,,,,,,,,,,,,,,,,,,space,34669,32,2020-08-21_15h37.37.047,CDT_GNG_IUS12,2020.1.2,Win32,60,,,,,,,,,,,,,,,,,,0,1,,space,1,0.32,,,,,,,,,,,0,36,36,11,1,,,,,,,,,,,,,,,,,,,,
,,,,,,,,,,,,,,,,,,,,,,,,,,,,,,,,,,,,,,,,,,,space,34669,32,2020-08-21_15h37.37.047,CDT_GNG_IUS12,2020.1.2,Win32,60,,,,,,,,,,,,,,,,,,0,1,,space,1,0.319,,,,,,,,,,,0,37,37,19,1,,,,,,,,,,,,,,,,,,,,
,,,,,,,,,,,,,,,,,,,,,,,,,,,,,,,,,,,,,,,,,,,space,34669,32,2020-08-21_15h37.37.047,CDT_GNG_IUS12,2020.1.2,Win32,60,,,,,,,,,,,,,,,,,,0,1,,space,1,0.285,,,,,,,,,,,0,38,38,48,1,,,,,,,,,,,,,,,,,,,,
,,,,,,,,,,,,,,,,,,,,,,,,,,,,,,,,,,,,,,,,,,,space,34669,32,2020-08-21_15h37.37.047,CDT_GNG_IUS12,2020.1.2,Win32,60,,,,,,,,,,,,,,,,,,0,1,,space,1,0.316,,,,,,,,,,,0,39,39,27,1,,,,,,,,,,,,,,,,,,,,
,,,,,,,,,,,,,,,,,,,,,,,,,,,,,,,,,,,,,,,,,,,space,34669,32,2020-08-21_15h37.37.047,CDT_GNG_IUS12,2020.1.2,Win32,60,,,,,,,,,,,,,,,,,,0,1,,space,1,0.354,,,,,,,,,,,0,40,40,20,1,,,,,,,,,,,,,,,,,,,,
,,,,,,,,,,,,,,,,,,,,,,,,,,,,,,,,,,,,,,,,,,,space,34669,32,2020-08-21_15h37.37.047,CDT_GNG_IUS12,2020.1.2,Win32,60,,,,,,,,,,,,,,,,,,0,1,,space,1,0.358,,,,,,,,,,,0,41,41,36,1,,,,,,,,,,,,,,,,,,,,
,,,,,,,,,,,,,,,,,,,,,,,,,,,,,,,,,,,,,,,,,,,space,34669,32,2020-08-21_15h37.37.047,CDT_GNG_IUS12,2020.1.2,Win32,60,,,,,,,,,,,,,,,,,,0,1,,space,1,0.339,,,,,,,,,,,0,42,42,35,1,,,,,,,,,,,,,,,,,,,,
,,,,,,,,,,,,,,,,,,,,,,,,,,,,,,,,,,,,,,,,,,,space,34669,32,2020-08-21_15h37.37.047,CDT_GNG_IUS12,2020.1.2,Win32,60,,,,,,,,,,,,,,,,,,0,1,,space,1,0.383,,,,,,,,,,,0,43,43,41,1,,,,,,,,,,,,,,,,,,,,
,,,,,,,,,,,,,,,,,,,,,,,,,,,,,,,,,,,,,,,,,,,,34669,32,2020-08-21_15h37.37.047,CDT_GNG_IUS12,2020.1.2,Win32,60,,,,,,,,,,,,,,,,,,1,0,,,1,,,,,,,,,,,,0,44,44,1,1,,,,,,,,,,,,,,,,,,,,
,,,,,,,,,,,,,,,,,,,,,,,,,,,,,,,,,,,,,,,,,,,space,34669,32,2020-08-21_15h37.37.047,CDT_GNG_IUS12,2020.1.2,Win32,60,,,,,,,,,,,,,,,,,,0,1,,,0,,,,,,,,,,,,0,45,45,37,1,,,,,,,,,,,,,,,,,,,,
,,,,,,,,,,,,,,,,,,,,,,,,,,,,,,,,,,,,,,,,,,,,34669,32,2020-08-21_15h37.37.047,CDT_GNG_IUS12,2020.1.2,Win32,60,,,,,,,,,,,,,,,,,,1,0,,space,0,0.098,,,,,,,,,,,0,46,46,8,1,,,,,,,,,,,,,,,,,,,,
,,,,,,,,,,,,,,,,,,,,,,,,,,,,,,,,,,,,,,,,,,,space,34669,32,2020-08-21_15h37.37.047,CDT_GNG_IUS12,2020.1.2,Win32,60,,,,,,,,,,,,,,,,,,0,1,,space,1,0.406,,,,,,,,,,,0,47,47,13,1,,,,,,,,,,,,,,,,,,,,
,,,,,,,,,,,,,,,,,,,,,,,,,,,,,,,,,,,,,,,,,,,space,34669,32,2020-08-21_15h37.37.047,CDT_GNG_IUS12,2020.1.2,Win32,60,,,,,,,,,,,,,,,,,,0,1,,space,1,0.341,,,,,,,,,,,0,48,48,49,1,,,,,,,,,,,,,,,,,,,,
,,,,,,,,,,,,,,,,,,,,,,,,,,,,,,,,,,,,,,,,,,,,34669,32,2020-08-21_15h37.37.047,CDT_GNG_IUS12,2020.1.2,Win32,60,,,,,,,,,,,,,,,,,,1,0,,,1,,,,,,,,,,,,0,49,49,5,1,,,,,,,,,,,,,,,,,,,,
,,,,,,,,,,,,,,,,,,,,,,,,,,,,,,,,,,,,,,,,,,,,34669,32,2020-08-21_15h37.37.047,CDT_GNG_IUS12,2020.1.2,Win32,60,,,,,,,,,,,,,,,,,,,,,,,,,,,,,,,,,,,,,,,7.018229167,11.993,0,0,0,0,1,1,"On a scale from 0 to 10, indicate your personal perception of your proficiency level for English (10 being the highest score)",,,,,,,,,,,
,,,,,,,,,,,,,,,,,,,,,,,,,,,,,,,,,,,,,,,,,,,,34669,32,2020-08-21_15h37.37.047,CDT_GNG_IUS12,2020.1.2,Win32,60,,,,,,,,,,,,,,,,,,,,,,,,,,,,,,,,,,,,,,,3.971354167,18.326,0,1,1,1,1,2,"On a scale from 0 to 10, indicate how frequently you are exposed to English (10 being 'always', 0 being 'never')",,,,,,,,,,,
,,,,,,,,,,,,,,,,,,,,,,,,,,,,,,,,,,,,,,,,,,,,34669,32,2020-08-21_15h37.37.047,CDT_GNG_IUS12,2020.1.2,Win32,60,,,,,,,,,,,,,,,,,,,,,,,,,,,,,,,,,,,,,,,,,,,,,,,"On a scale from 0 to 10, indicate your personal perception of your proficiency level for English (10 being the highest score)",4.010416667,25.26,0,0,0,0,1,1,Unforeseen events upset me greatly.,,
,,,,,,,,,,,,,,,,,,,,,,,,,,,,,,,,,,,,,,,,,,,,34669,32,2020-08-21_15h37.37.047,CDT_GNG_IUS12,2020.1.2,Win32,60,,,,,,,,,,,,,,,,,,,,,,,,,,,,,,,,,,,,,,,,,,,,,,,"On a scale from 0 to 10, indicate how frequently you are exposed to English (10 being 'always', 0 being 'never')",3.03125,6.535,0,1,1,1,1,2,It frustrates me not having all the information I need.,,
,,,,,,,,,,,,,,,,,,,,,,,,,,,,,,,,,,,,,,,,,,,,34669,32,2020-08-21_15h37.37.047,CDT_GNG_IUS12,2020.1.2,Win32,60,,,,,,,,,,,,,,,,,,,,,,,,,,,,,,,,,,,,,,,,,,,,,,,,4.010416667,6.403,0,2,2,2,1,3,One should always look ahead so as to avoid surprises.,,
,,,,,,,,,,,,,,,,,,,,,,,,,,,,,,,,,,,,,,,,,,,,34669,32,2020-08-21_15h37.37.047,CDT_GNG_IUS12,2020.1.2,Win32,60,,,,,,,,,,,,,,,,,,,,,,,,,,,,,,,,,,,,,,,,,,,,,,,,2.989583333,6.029,0,3,3,3,1,4,"A small, unforeseen event can spoil everything, even with the best of planning. ",,
,,,,,,,,,,,,,,,,,,,,,,,,,,,,,,,,,,,,,,,,,,,,34669,32,2020-08-21_15h37.37.047,CDT_GNG_IUS12,2020.1.2,Win32,60,,,,,,,,,,,,,,,,,,,,,,,,,,,,,,,,,,,,,,,,,,,,,,,,3.010416667,4.817,0,4,4,4,1,5,I always want to know what the future has in store for me.,,
,,,,,,,,,,,,,,,,,,,,,,,,,,,,,,,,,,,,,,,,,,,,34669,32,2020-08-21_15h37.37.047,CDT_GNG_IUS12,2020.1.2,Win32,60,,,,,,,,,,,,,,,,,,,,,,,,,,,,,,,,,,,,,,,,,,,,,,,,2.994791667,4.701,0,5,5,5,1,6,I can't stand being taken by surprise.,,
,,,,,,,,,,,,,,,,,,,,,,,,,,,,,,,,,,,,,,,,,,,,34669,32,2020-08-21_15h37.37.047,CDT_GNG_IUS12,2020.1.2,Win32,60,,,,,,,,,,,,,,,,,,,,,,,,,,,,,,,,,,,,,,,,,,,,,,,,3.989583333,2.998,0,6,6,6,1,7,I should be able to organize everything in advance,,
,,,,,,,,,,,,,,,,,,,,,,,,,,,,,,,,,,,,,,,,,,,,34669,32,2020-08-21_15h37.37.047,CDT_GNG_IUS12,2020.1.2,Win32,60,,,,,,,,,,,,,,,,,,,,,,,,,,,,,,,,,,,,,,,,,,,,,,,,2.973958333,5.802,0,7,7,7,1,8,Uncertainty keeps me from living a full life.,,
,,,,,,,,,,,,,,,,,,,,,,,,,,,,,,,,,,,,,,,,,,,,34669,32,2020-08-21_15h37.37.047,CDT_GNG_IUS12,2020.1.2,Win32,60,,,,,,,,,,,,,,,,,,,,,,,,,,,,,,,,,,,,,,,,,,,,,,,,2.020833333,6.338,0,8,8,8,1,9,"When it's time to act, uncertainty paralyses me. ",,
,,,,,,,,,,,,,,,,,,,,,,,,,,,,,,,,,,,,,,,,,,,,34669,32,2020-08-21_15h37.37.047,CDT_GNG_IUS12,2020.1.2,Win32,60,,,,,,,,,,,,,,,,,,,,,,,,,,,,,,,,,,,,,,,,,,,,,,,,3.046875,3.832,0,9,9,9,1,10,"When I am uncertain, I can't function very well. ",,
,,,,,,,,,,,,,,,,,,,,,,,,,,,,,,,,,,,,,,,,,,,,34669,32,2020-08-21_15h37.37.047,CDT_GNG_IUS12,2020.1.2,Win32,60,,,,,,,,,,,,,,,,,,,,,,,,,,,,,,,,,,,,,,,,,,,,,,,,2,3.243,0,10,10,10,1,11,The smallest doubt can stop me from acting. ,,
,,,,,,,,,,,,,,,,,,,,,,,,,,,,,,,,,,,,,,,,,,,,34669,32,2020-08-21_15h37.37.047,CDT_GNG_IUS12,2020.1.2,Win32,60,,,,,,,,,,,,,,,,,,,,,,,,,,,,,,,,,,,,,,,,,,,,,,,,2.015625,4.985,0,11,11,11,1,12,I must get away from all uncertain situations. ,,
,,,,,,,,,,,,,,,,,,,,,,,,,,,,,,,,,,,,,,,,,,,,34669,32,2020-08-21_15h37.37.047,CDT_GNG_IUS12,2020.1.2,Win32,60,,,,,,,,,,,,,,,,,,,,,,,,,,,,,,,,,,,,,,,,,,,,,,,,,,,,,,,,,x,2.875
