key_resp_6.keys,key_resp_6.rt,key_resp_2.keys,key_resp_2.corr,key_resp_2.rt,CDT_trials_train.thisRepN,CDT_trials_train.thisTrialN,CDT_trials_train.thisN,CDT_trials_train.thisIndex,CDT_trials_train.ran,trialnum,condit,stimamt,stim1posx,stim1posy,stim1col,stim1opa,stim2posx,stim2posy,stim2col,stim2opa,stim3posx,stim3posy,stim3col,stim3opa,stim4posx,stim4posy,stim4col,stim4opa,stim5posx,stim5posy,stim5col,stim5opa,stim6posx,stim6posy,stim6col,stim6opa,stimsizex,stimsizey,stimdur,targetposx,targetposy,targetcol,corrAns,participant,age,date,expName,psychopyVersion,OS,frameRate,key_resp_5.keys,key_resp.keys,key_resp.corr,key_resp.rt,CDT_trials.thisRepN,CDT_trials.thisTrialN,CDT_trials.thisN,CDT_trials.thisIndex,CDT_trials.ran,key_resp_5.rt,trialResp_Train.keys,trialResp_Train.corr,GNGtrials_train.thisRepN,GNGtrials_train.thisTrialN,GNGtrials_train.thisN,GNGtrials_train.thisIndex,GNGtrials_train.ran,orangeOpacity,blueOpacity,trialResp_Train.rt,trialResp.keys,trialResp.corr,trialResp.rt,GNG_trials_1.thisRepN,GNG_trials_1.thisTrialN,GNG_trials_1.thisN,GNG_trials_1.thisIndex,GNG_trials_1.ran,GNG_trials_2.thisRepN,GNG_trials_2.thisTrialN,GNG_trials_2.thisN,GNG_trials_2.thisIndex,GNG_trials_2.ran,GNG_trials_3.thisRepN,GNG_trials_3.thisTrialN,GNG_trials_3.thisN,GNG_trials_3.thisIndex,GNG_trials_3.ran,slider_2.response,slider_2.rt,engprof_trials.thisRepN,engprof_trials.thisTrialN,engprof_trials.thisN,engprof_trials.thisIndex,engprof_trials.ran,qpnumber,qproficiency,slider.response,slider.rt,IUS12_trials.thisRepN,IUS12_trials.thisTrialN,IUS12_trials.thisN,IUS12_trials.thisIndex,IUS12_trials.ran,qnumber,qenglish,key_resp_end.keys,key_resp_end.rt
y,7.654335,k,1,15.84263,0,0,0,0,1,1,same,4,0.273779233,-0.054755847,black,1,-0.16426754,-0.273779233,magenta,1,-0.16426754,0.16426754,orange,1,0.16426754,0.054755847,yellow,1,0.16426754,-0.054755847,cyan,0,-0.054755847,-0.16426754,blue,0,0.05,0.05,0.15,-0.16426754,0.16426754,orange,k,357207,26,2020-08-14_17h20.22.213,CDT_GNG_IUS12,2020.1.2,MacIntel,60,,,,,,,,,,,,,,,,,,,,,,,,,,,,,,,,,,,,,,,,,,,,,,,,,,,,,,,,,,
,,k,0,0.00183,0,1,1,1,1,2,different,4,0.054755847,-0.054755847,orange,1,-0.273779233,0.273779233,magenta,1,0.273779233,0.16426754,yellow,1,-0.273779233,-0.16426754,blue,1,0.273779233,-0.054755847,red,0,-0.273779233,0.054755847,cyan,0,0.05,0.05,0.15,-0.273779233,-0.16426754,black,l,357207,26,2020-08-14_17h20.22.213,CDT_GNG_IUS12,2020.1.2,MacIntel,60,,,,,,,,,,,,,,,,,,,,,,,,,,,,,,,,,,,,,,,,,,,,,,,,,,,,,,,,,,
,,l,0,5.63572,0,2,2,2,1,3,same,6,-0.054755847,0.273779233,green,1,0.273779233,-0.273779233,magenta,1,0.273779233,0.16426754,cyan,1,-0.054755847,-0.054755847,black,1,-0.273779233,0.16426754,orange,1,0.16426754,-0.054755847,blue,1,0.05,0.05,0.15,-0.054755847,0.273779233,green,k,357207,26,2020-08-14_17h20.22.213,CDT_GNG_IUS12,2020.1.2,MacIntel,60,,,,,,,,,,,,,,,,,,,,,,,,,,,,,,,,,,,,,,,,,,,,,,,,,,,,,,,,,,
,,k,0,3.117305,0,3,3,3,1,4,different,6,0.16426754,-0.054755847,orange,1,-0.054755847,0.273779233,red,1,0.273779233,0.273779233,green,1,-0.054755847,-0.273779233,yellow,1,0.273779233,-0.054755847,blue,1,-0.16426754,0.16426754,black,1,0.05,0.05,0.15,0.273779233,0.273779233,cyan,l,357207,26,2020-08-14_17h20.22.213,CDT_GNG_IUS12,2020.1.2,MacIntel,60,,,,,,,,,,,,,,,,,,,,,,,,,,,,,,,,,,,,,,,,,,,,,,,,,,,,,,,,,,
,,,,,,,,,,15,same,4,0.054755847,-0.273779233,yellow,1,-0.273779233,-0.054755847,cyan,1,0.273779233,0.16426754,green,1,-0.16426754,0.16426754,blue,1,0.273779233,-0.054755847,magenta,0,-0.16426754,-0.054755847,orange,0,0.05,0.05,0.15,-0.273779233,-0.054755847,cyan,k,357207,26,2020-08-14_17h20.22.213,CDT_GNG_IUS12,2020.1.2,MacIntel,60,,l,0,1.576985,0,0,0,14,1,,,,,,,,,,,,,,,,,,,,,,,,,,,,,,,,,,,,,,,,,,,,,,,,,
,,,,,,,,,,102,different,6,-0.273779233,-0.273779233,magenta,1,0.054755847,0.16426754,green,1,0.16426754,-0.273779233,yellow,1,-0.16426754,0.054755847,orange,1,-0.16426754,-0.273779233,red,1,0.273779233,0.054755847,cyan,1,0.05,0.05,0.15,-0.273779233,-0.273779233,yellow,l,357207,26,2020-08-14_17h20.22.213,CDT_GNG_IUS12,2020.1.2,MacIntel,60,,l,1,3.84145,0,1,1,101,1,,,,,,,,,,,,,,,,,,,,,,,,,,,,,,,,,,,,,,,,,,,,,,,,,
,,,,,,,,,,107,different,6,0.273779233,0.16426754,cyan,1,-0.16426754,-0.273779233,magenta,1,-0.054755847,0.054755847,black,1,0.16426754,-0.054755847,blue,1,0.16426754,0.054755847,green,1,-0.273779233,-0.16426754,yellow,1,0.05,0.05,0.15,0.16426754,0.054755847,blue,l,357207,26,2020-08-14_17h20.22.213,CDT_GNG_IUS12,2020.1.2,MacIntel,60,,l,1,5.601235,0,2,2,106,1,,,,,,,,,,,,,,,,,,,,,,,,,,,,,,,,,,,,,,,,,,,,,,,,,
,,,,,,,,,,25,same,4,0.16426754,-0.273779233,green,1,-0.16426754,-0.273779233,black,1,0.16426754,0.054755847,cyan,1,-0.273779233,0.273779233,blue,1,0.054755847,-0.273779233,yellow,0,-0.273779233,-0.273779233,red,0,0.05,0.05,0.15,-0.273779233,0.273779233,blue,k,357207,26,2020-08-14_17h20.22.213,CDT_GNG_IUS12,2020.1.2,MacIntel,60,,k,1,1.13355,0,3,3,24,1,,,,,,,,,,,,,,,,,,,,,,,,,,,,,,,,,,,,,,,,,,,,,,,,,
,,,,,,,,,,87,same,6,0.273779233,0.16426754,green,1,-0.16426754,-0.054755847,black,1,-0.054755847,0.054755847,cyan,1,0.273779233,-0.054755847,blue,1,0.054755847,0.054755847,yellow,1,-0.273779233,-0.273779233,red,1,0.05,0.05,0.15,-0.273779233,-0.273779233,red,k,357207,26,2020-08-14_17h20.22.213,CDT_GNG_IUS12,2020.1.2,MacIntel,60,,l,0,1.10195,0,4,4,86,1,,,,,,,,,,,,,,,,,,,,,,,,,,,,,,,,,,,,,,,,,,,,,,,,,
,,,,,,,,,,115,different,6,-0.16426754,0.273779233,magenta,1,-0.273779233,-0.054755847,blue,1,0.273779233,0.273779233,red,1,0.054755847,-0.273779233,cyan,1,-0.054755847,0.16426754,green,1,-0.273779233,-0.273779233,yellow,1,0.05,0.05,0.15,-0.273779233,-0.054755847,yellow,l,357207,26,2020-08-14_17h20.22.213,CDT_GNG_IUS12,2020.1.2,MacIntel,60,,l,1,1.111035,0,5,5,114,1,,,,,,,,,,,,,,,,,,,,,,,,,,,,,,,,,,,,,,,,,,,,,,,,,
,,,,,,,,,,12,same,4,0.054755847,0.054755847,blue,1,-0.273779233,-0.054755847,magenta,1,-0.054755847,0.273779233,black,1,0.16426754,-0.16426754,green,1,0.16426754,0.16426754,yellow,0,-0.16426754,-0.054755847,orange,0,0.05,0.05,0.15,0.054755847,0.054755847,blue,k,357207,26,2020-08-14_17h20.22.213,CDT_GNG_IUS12,2020.1.2,MacIntel,60,,k,1,0.954475,0,6,6,11,1,,,,,,,,,,,,,,,,,,,,,,,,,,,,,,,,,,,,,,,,,,,,,,,,,
,,,,,,,,,,49,different,4,-0.16426754,-0.273779233,black,1,0.16426754,0.16426754,red,1,-0.273779233,0.16426754,yellow,1,0.054755847,-0.273779233,green,1,-0.273779233,-0.273779233,magenta,0,0.054755847,0.273779233,blue,0,0.05,0.05,0.15,0.054755847,-0.273779233,orange,l,357207,26,2020-08-14_17h20.22.213,CDT_GNG_IUS12,2020.1.2,MacIntel,60,,l,1,0.986555,0,7,7,48,1,,,,,,,,,,,,,,,,,,,,,,,,,,,,,,,,,,,,,,,,,,,,,,,,,
,,,,,,,,,,98,different,6,-0.054755847,-0.16426754,magenta,1,0.273779233,0.273779233,green,1,0.273779233,-0.273779233,red,1,-0.16426754,0.273779233,blue,1,-0.273779233,-0.16426754,cyan,1,0.273779233,0.054755847,black,1,0.05,0.05,0.15,-0.16426754,0.273779233,cyan,l,357207,26,2020-08-14_17h20.22.213,CDT_GNG_IUS12,2020.1.2,MacIntel,60,,l,1,1.087075,0,8,8,97,1,,,,,,,,,,,,,,,,,,,,,,,,,,,,,,,,,,,,,,,,,,,,,,,,,
,,,,,,,,,,68,same,6,0.16426754,-0.054755847,blue,1,-0.054755847,-0.16426754,orange,1,-0.16426754,0.054755847,red,1,0.16426754,0.273779233,magenta,1,0.054755847,-0.054755847,black,1,-0.273779233,-0.273779233,yellow,1,0.05,0.05,0.15,-0.054755847,-0.16426754,orange,k,357207,26,2020-08-14_17h20.22.213,CDT_GNG_IUS12,2020.1.2,MacIntel,60,,l,0,0.89783,0,9,9,67,1,,,,,,,,,,,,,,,,,,,,,,,,,,,,,,,,,,,,,,,,,,,,,,,,,
,,,,,,,,,,52,different,4,-0.273779233,-0.16426754,magenta,1,-0.273779233,0.054755847,green,1,0.273779233,-0.054755847,cyan,1,0.273779233,0.054755847,black,1,-0.16426754,-0.16426754,orange,0,-0.054755847,0.054755847,red,0,0.05,0.05,0.15,-0.273779233,-0.16426754,black,l,357207,26,2020-08-14_17h20.22.213,CDT_GNG_IUS12,2020.1.2,MacIntel,60,,k,0,1.26383,0,10,10,51,1,,,,,,,,,,,,,,,,,,,,,,,,,,,,,,,,,,,,,,,,,,,,,,,,,
,,,,,,,,,,3,same,4,-0.054755847,-0.054755847,yellow,1,-0.054755847,0.054755847,cyan,1,0.16426754,-0.273779233,black,1,0.273779233,0.273779233,magenta,1,-0.054755847,-0.273779233,orange,0,-0.273779233,0.054755847,green,0,0.05,0.05,0.15,0.273779233,0.273779233,magenta,k,357207,26,2020-08-14_17h20.22.213,CDT_GNG_IUS12,2020.1.2,MacIntel,60,,k,1,0.89229,0,11,11,2,1,,,,,,,,,,,,,,,,,,,,,,,,,,,,,,,,,,,,,,,,,,,,,,,,,
,,,,,,,,,,109,different,6,-0.273779233,-0.16426754,blue,1,0.054755847,-0.16426754,black,1,-0.054755847,0.054755847,cyan,1,0.054755847,0.16426754,green,1,-0.054755847,-0.054755847,yellow,1,0.16426754,-0.273779233,orange,1,0.05,0.05,0.15,-0.273779233,-0.16426754,green,l,357207,26,2020-08-14_17h20.22.213,CDT_GNG_IUS12,2020.1.2,MacIntel,60,,l,1,1.06873,0,12,12,108,1,,,,,,,,,,,,,,,,,,,,,,,,,,,,,,,,,,,,,,,,,,,,,,,,,
,,,,,,,,,,88,same,6,0.054755847,0.054755847,orange,1,0.054755847,-0.273779233,red,1,-0.16426754,-0.16426754,magenta,1,-0.16426754,0.273779233,yellow,1,0.16426754,0.16426754,blue,1,0.273779233,-0.16426754,cyan,1,0.05,0.05,0.15,-0.16426754,0.273779233,yellow,k,357207,26,2020-08-14_17h20.22.213,CDT_GNG_IUS12,2020.1.2,MacIntel,60,,l,0,0.99468,0,13,13,87,1,,,,,,,,,,,,,,,,,,,,,,,,,,,,,,,,,,,,,,,,,,,,,,,,,
,,,,,,,,,,117,different,6,-0.054755847,0.054755847,black,1,0.054755847,0.273779233,magenta,1,-0.273779233,-0.273779233,yellow,1,0.054755847,-0.16426754,blue,1,-0.16426754,0.054755847,cyan,1,0.054755847,0.054755847,red,1,0.05,0.05,0.15,-0.16426754,0.054755847,black,l,357207,26,2020-08-14_17h20.22.213,CDT_GNG_IUS12,2020.1.2,MacIntel,60,,l,1,0.92599,0,14,14,116,1,,,,,,,,,,,,,,,,,,,,,,,,,,,,,,,,,,,,,,,,,,,,,,,,,
,,,,,,,,,,118,different,6,-0.16426754,-0.16426754,red,1,0.273779233,0.16426754,orange,1,-0.16426754,0.273779233,cyan,1,0.16426754,-0.273779233,black,1,-0.054755847,-0.054755847,yellow,1,0.054755847,0.054755847,green,1,0.05,0.05,0.15,-0.054755847,-0.054755847,magenta,l,357207,26,2020-08-14_17h20.22.213,CDT_GNG_IUS12,2020.1.2,MacIntel,60,,l,1,0.72808,0,15,15,117,1,,,,,,,,,,,,,,,,,,,,,,,,,,,,,,,,,,,,,,,,,,,,,,,,,
,,,,,,,,,,14,same,4,0.16426754,0.16426754,magenta,1,-0.16426754,0.16426754,blue,1,0.16426754,-0.16426754,green,1,-0.16426754,-0.16426754,red,1,0.16426754,0.273779233,cyan,0,-0.16426754,0.273779233,orange,0,0.05,0.05,0.15,-0.16426754,0.16426754,blue,k,357207,26,2020-08-14_17h20.22.213,CDT_GNG_IUS12,2020.1.2,MacIntel,60,,l,0,1.354485,0,16,16,13,1,,,,,,,,,,,,,,,,,,,,,,,,,,,,,,,,,,,,,,,,,,,,,,,,,
,,,,,,,,,,24,same,4,0.054755847,-0.16426754,red,1,0.054755847,0.054755847,yellow,1,-0.273779233,0.16426754,orange,1,-0.273779233,-0.16426754,magenta,1,0.273779233,-0.16426754,black,0,0.273779233,0.273779233,green,0,0.05,0.05,0.15,0.054755847,-0.16426754,red,k,357207,26,2020-08-14_17h20.22.213,CDT_GNG_IUS12,2020.1.2,MacIntel,60,,k,1,0.881905,0,17,17,23,1,,,,,,,,,,,,,,,,,,,,,,,,,,,,,,,,,,,,,,,,,,,,,,,,,
,,,,,,,,,,11,same,4,0.273779233,0.16426754,black,1,-0.054755847,0.273779233,cyan,1,0.16426754,-0.054755847,blue,1,-0.273779233,-0.16426754,orange,1,0.054755847,0.273779233,magenta,0,-0.273779233,0.054755847,green,0,0.05,0.05,0.15,0.273779233,0.16426754,black,k,357207,26,2020-08-14_17h20.22.213,CDT_GNG_IUS12,2020.1.2,MacIntel,60,,l,0,3.401105,0,18,18,10,1,,,,,,,,,,,,,,,,,,,,,,,,,,,,,,,,,,,,,,,,,,,,,,,,,
,,,,,,,,,,36,different,4,-0.16426754,-0.054755847,cyan,1,0.16426754,0.054755847,red,1,0.16426754,-0.054755847,black,1,-0.273779233,0.273779233,orange,1,-0.054755847,-0.054755847,yellow,0,0.273779233,0.273779233,green,0,0.05,0.05,0.15,0.16426754,-0.054755847,orange,l,357207,26,2020-08-14_17h20.22.213,CDT_GNG_IUS12,2020.1.2,MacIntel,60,,l,1,0.73435,0,19,19,35,1,,,,,,,,,,,,,,,,,,,,,,,,,,,,,,,,,,,,,,,,,,,,,,,,,
,,,,,,,,,,45,different,4,0.054755847,0.16426754,blue,1,-0.054755847,-0.273779233,magenta,1,-0.16426754,0.16426754,black,1,0.054755847,-0.16426754,orange,1,0.273779233,0.273779233,green,0,-0.273779233,-0.16426754,cyan,0,0.05,0.05,0.15,-0.16426754,0.16426754,magenta,l,357207,26,2020-08-14_17h20.22.213,CDT_GNG_IUS12,2020.1.2,MacIntel,60,,k,0,0.86837,0,20,20,44,1,,,,,,,,,,,,,,,,,,,,,,,,,,,,,,,,,,,,,,,,,,,,,,,,,
,,,,,,,,,,110,different,6,-0.273779233,0.273779233,black,1,0.273779233,-0.16426754,red,1,0.054755847,0.273779233,cyan,1,-0.273779233,-0.16426754,orange,1,-0.054755847,0.054755847,magenta,1,0.16426754,-0.054755847,yellow,1,0.05,0.05,0.15,0.273779233,-0.16426754,yellow,l,357207,26,2020-08-14_17h20.22.213,CDT_GNG_IUS12,2020.1.2,MacIntel,60,,l,1,0.886915,0,21,21,109,1,,,,,,,,,,,,,,,,,,,,,,,,,,,,,,,,,,,,,,,,,,,,,,,,,
,,,,,,,,,,26,same,4,0.16426754,-0.16426754,green,1,-0.054755847,0.16426754,yellow,1,-0.273779233,-0.16426754,black,1,0.054755847,0.054755847,red,1,0.16426754,-0.054755847,cyan,0,-0.273779233,0.273779233,magenta,0,0.05,0.05,0.15,-0.054755847,0.16426754,yellow,k,357207,26,2020-08-14_17h20.22.213,CDT_GNG_IUS12,2020.1.2,MacIntel,60,,k,1,1.080055,0,22,22,25,1,,,,,,,,,,,,,,,,,,,,,,,,,,,,,,,,,,,,,,,,,,,,,,,,,
,,,,,,,,,,97,different,6,-0.273779233,-0.273779233,orange,1,0.054755847,-0.273779233,blue,1,0.16426754,0.16426754,green,1,-0.16426754,0.054755847,cyan,1,-0.16426754,-0.16426754,black,1,0.273779233,-0.16426754,yellow,1,0.05,0.05,0.15,-0.16426754,0.054755847,yellow,l,357207,26,2020-08-14_17h20.22.213,CDT_GNG_IUS12,2020.1.2,MacIntel,60,,k,0,0.96882,0,23,23,96,1,,,,,,,,,,,,,,,,,,,,,,,,,,,,,,,,,,,,,,,,,,,,,,,,,
,,,,,,,,,,66,same,6,0.273779233,-0.273779233,cyan,1,-0.273779233,-0.054755847,black,1,-0.273779233,0.054755847,yellow,1,0.273779233,0.16426754,green,1,0.054755847,-0.16426754,orange,1,-0.273779233,-0.16426754,magenta,1,0.05,0.05,0.15,0.273779233,0.16426754,green,k,357207,26,2020-08-14_17h20.22.213,CDT_GNG_IUS12,2020.1.2,MacIntel,60,,l,0,0.76257,0,24,24,65,1,,,,,,,,,,,,,,,,,,,,,,,,,,,,,,,,,,,,,,,,,,,,,,,,,
,,,,,,,,,,33,different,4,-0.273779233,0.273779233,yellow,1,0.16426754,-0.16426754,cyan,1,-0.273779233,-0.273779233,black,1,0.054755847,0.273779233,blue,1,-0.16426754,0.273779233,green,0,0.054755847,-0.273779233,orange,0,0.05,0.05,0.15,-0.273779233,-0.273779233,cyan,l,357207,26,2020-08-14_17h20.22.213,CDT_GNG_IUS12,2020.1.2,MacIntel,60,,k,0,0.98003,0,25,25,32,1,,,,,,,,,,,,,,,,,,,,,,,,,,,,,,,,,,,,,,,,,,,,,,,,,
,,,,,,,,,,99,different,6,0.054755847,0.16426754,orange,1,0.16426754,-0.16426754,yellow,1,-0.16426754,0.273779233,red,1,-0.273779233,-0.054755847,magenta,1,0.16426754,0.054755847,black,1,0.054755847,-0.054755847,green,1,0.05,0.05,0.15,-0.16426754,0.273779233,blue,l,357207,26,2020-08-14_17h20.22.213,CDT_GNG_IUS12,2020.1.2,MacIntel,60,,l,1,0.66627,0,26,26,98,1,,,,,,,,,,,,,,,,,,,,,,,,,,,,,,,,,,,,,,,,,,,,,,,,,
,,,,,,,,,,76,same,6,0.16426754,0.054755847,cyan,1,0.273779233,-0.273779233,red,1,-0.054755847,-0.273779233,magenta,1,-0.054755847,0.16426754,yellow,1,0.054755847,0.273779233,blue,1,0.054755847,-0.273779233,green,1,0.05,0.05,0.15,0.16426754,0.054755847,cyan,k,357207,26,2020-08-14_17h20.22.213,CDT_GNG_IUS12,2020.1.2,MacIntel,60,,l,0,2.51244,0,27,27,75,1,,,,,,,,,,,,,,,,,,,,,,,,,,,,,,,,,,,,,,,,,,,,,,,,,
,,,,,,,,,,35,different,4,-0.054755847,-0.054755847,black,1,0.054755847,0.273779233,magenta,1,-0.273779233,0.054755847,blue,1,0.273779233,-0.054755847,red,1,-0.054755847,-0.16426754,cyan,0,0.054755847,0.054755847,yellow,0,0.05,0.05,0.15,0.054755847,0.273779233,cyan,l,357207,26,2020-08-14_17h20.22.213,CDT_GNG_IUS12,2020.1.2,MacIntel,60,,l,1,0.947,0,28,28,34,1,,,,,,,,,,,,,,,,,,,,,,,,,,,,,,,,,,,,,,,,,,,,,,,,,
,,,,,,,,,,30,same,4,0.16426754,0.16426754,blue,1,0.054755847,-0.054755847,green,1,-0.273779233,-0.16426754,black,1,-0.054755847,0.273779233,yellow,1,0.16426754,0.273779233,red,0,0.16426754,-0.16426754,magenta,0,0.05,0.05,0.15,0.054755847,-0.054755847,green,k,357207,26,2020-08-14_17h20.22.213,CDT_GNG_IUS12,2020.1.2,MacIntel,60,,l,0,0.919385,0,29,29,29,1,,,,,,,,,,,,,,,,,,,,,,,,,,,,,,,,,,,,,,,,,,,,,,,,,
,,,,,,,,,,112,different,6,-0.273779233,-0.16426754,magenta,1,-0.054755847,0.054755847,orange,1,0.054755847,0.273779233,cyan,1,0.16426754,-0.273779233,yellow,1,-0.273779233,-0.273779233,black,1,-0.16426754,0.054755847,red,1,0.05,0.05,0.15,-0.16426754,0.054755847,orange,l,357207,26,2020-08-14_17h20.22.213,CDT_GNG_IUS12,2020.1.2,MacIntel,60,,k,0,0.81334,0,30,30,111,1,,,,,,,,,,,,,,,,,,,,,,,,,,,,,,,,,,,,,,,,,,,,,,,,,
,,,,,,,,,,5,same,4,0.273779233,-0.054755847,green,1,0.273779233,0.054755847,orange,1,-0.054755847,0.054755847,black,1,-0.054755847,-0.16426754,blue,1,0.054755847,-0.054755847,cyan,0,0.054755847,0.273779233,red,0,0.05,0.05,0.15,-0.054755847,-0.16426754,blue,k,357207,26,2020-08-14_17h20.22.213,CDT_GNG_IUS12,2020.1.2,MacIntel,60,,k,1,0.728995,0,31,31,4,1,,,,,,,,,,,,,,,,,,,,,,,,,,,,,,,,,,,,,,,,,,,,,,,,,
,,,,,,,,,,31,different,4,-0.16426754,0.16426754,blue,1,0.16426754,-0.054755847,magenta,1,-0.16426754,-0.054755847,yellow,1,0.054755847,0.273779233,black,1,-0.273779233,0.054755847,red,0,0.273779233,-0.273779233,cyan,0,0.05,0.05,0.15,-0.16426754,-0.054755847,black,l,357207,26,2020-08-14_17h20.22.213,CDT_GNG_IUS12,2020.1.2,MacIntel,60,,k,0,1.038555,0,32,32,30,1,,,,,,,,,,,,,,,,,,,,,,,,,,,,,,,,,,,,,,,,,,,,,,,,,
,,,,,,,,,,23,same,4,0.273779233,-0.16426754,yellow,1,0.054755847,0.273779233,red,1,-0.054755847,0.054755847,black,1,-0.273779233,-0.054755847,orange,1,0.273779233,-0.054755847,green,0,0.273779233,0.054755847,magenta,0,0.05,0.05,0.15,-0.054755847,0.054755847,black,k,357207,26,2020-08-14_17h20.22.213,CDT_GNG_IUS12,2020.1.2,MacIntel,60,,k,1,0.68373,0,33,33,22,1,,,,,,,,,,,,,,,,,,,,,,,,,,,,,,,,,,,,,,,,,,,,,,,,,
,,,,,,,,,,72,same,6,0.273779233,-0.16426754,blue,1,0.16426754,0.273779233,yellow,1,-0.16426754,0.273779233,magenta,1,-0.273779233,-0.054755847,orange,1,0.054755847,-0.16426754,cyan,1,0.273779233,0.054755847,black,1,0.05,0.05,0.15,-0.16426754,0.273779233,magenta,k,357207,26,2020-08-14_17h20.22.213,CDT_GNG_IUS12,2020.1.2,MacIntel,60,,l,0,0.658475,0,34,34,71,1,,,,,,,,,,,,,,,,,,,,,,,,,,,,,,,,,,,,,,,,,,,,,,,,,
,,,,,,,,,,7,same,4,-0.16426754,-0.054755847,yellow,1,0.273779233,0.16426754,magenta,1,-0.16426754,0.054755847,cyan,1,0.054755847,-0.054755847,black,1,-0.054755847,-0.054755847,orange,0,0.273779233,0.273779233,blue,0,0.05,0.05,0.15,0.054755847,-0.054755847,black,k,357207,26,2020-08-14_17h20.22.213,CDT_GNG_IUS12,2020.1.2,MacIntel,60,,k,1,0.909105,0,35,35,6,1,,,,,,,,,,,,,,,,,,,,,,,,,,,,,,,,,,,,,,,,,,,,,,,,,
,,,,,,,,,,101,different,6,0.273779233,0.273779233,yellow,1,0.054755847,-0.16426754,black,1,-0.054755847,0.054755847,cyan,1,-0.054755847,-0.16426754,magenta,1,0.273779233,0.054755847,green,1,0.16426754,-0.16426754,blue,1,0.05,0.05,0.15,0.273779233,0.273779233,green,l,357207,26,2020-08-14_17h20.22.213,CDT_GNG_IUS12,2020.1.2,MacIntel,60,,l,1,0.717605,0,36,36,100,1,,,,,,,,,,,,,,,,,,,,,,,,,,,,,,,,,,,,,,,,,,,,,,,,,
,,,,,,,,,,84,same,6,-0.273779233,-0.16426754,black,1,0.273779233,0.273779233,blue,1,-0.054755847,0.054755847,red,1,0.16426754,-0.054755847,orange,1,-0.16426754,-0.16426754,cyan,1,0.16426754,0.16426754,magenta,1,0.05,0.05,0.15,-0.16426754,-0.16426754,cyan,k,357207,26,2020-08-14_17h20.22.213,CDT_GNG_IUS12,2020.1.2,MacIntel,60,,l,0,0.70863,0,37,37,83,1,,,,,,,,,,,,,,,,,,,,,,,,,,,,,,,,,,,,,,,,,,,,,,,,,
,,,,,,,,,,70,same,6,0.16426754,0.16426754,cyan,1,0.273779233,-0.273779233,red,1,-0.16426754,0.16426754,yellow,1,-0.273779233,-0.273779233,green,1,0.16426754,0.054755847,magenta,1,0.16426754,-0.054755847,blue,1,0.05,0.05,0.15,0.273779233,-0.273779233,red,k,357207,26,2020-08-14_17h20.22.213,CDT_GNG_IUS12,2020.1.2,MacIntel,60,,l,0,0.830705,0,38,38,69,1,,,,,,,,,,,,,,,,,,,,,,,,,,,,,,,,,,,,,,,,,,,,,,,,,
,,,,,,,,,,59,different,4,0.16426754,-0.16426754,red,1,-0.054755847,-0.16426754,cyan,1,0.054755847,0.16426754,yellow,1,-0.16426754,0.273779233,green,1,0.16426754,-0.054755847,orange,0,-0.16426754,-0.054755847,black,0,0.05,0.05,0.15,-0.16426754,0.273779233,black,l,357207,26,2020-08-14_17h20.22.213,CDT_GNG_IUS12,2020.1.2,MacIntel,60,,l,1,0.772795,0,39,39,58,1,,,,,,,,,,,,,,,,,,,,,,,,,,,,,,,,,,,,,,,,,,,,,,,,,
,,,,,,,,,,4,same,4,0.16426754,-0.16426754,black,1,-0.054755847,0.16426754,yellow,1,0.16426754,0.16426754,blue,1,-0.16426754,-0.16426754,green,1,0.054755847,-0.16426754,magenta,0,-0.054755847,0.273779233,orange,0,0.05,0.05,0.15,0.16426754,-0.16426754,black,k,357207,26,2020-08-14_17h20.22.213,CDT_GNG_IUS12,2020.1.2,MacIntel,60,,k,1,0.78623,0,40,40,3,1,,,,,,,,,,,,,,,,,,,,,,,,,,,,,,,,,,,,,,,,,,,,,,,,,
,,,,,,,,,,92,different,6,0.16426754,0.16426754,green,1,-0.054755847,-0.054755847,cyan,1,-0.054755847,0.054755847,red,1,0.16426754,-0.054755847,magenta,1,0.054755847,0.16426754,orange,1,-0.273779233,-0.16426754,yellow,1,0.05,0.05,0.15,0.16426754,0.16426754,cyan,l,357207,26,2020-08-14_17h20.22.213,CDT_GNG_IUS12,2020.1.2,MacIntel,60,,l,1,0.60722,0,41,41,91,1,,,,,,,,,,,,,,,,,,,,,,,,,,,,,,,,,,,,,,,,,,,,,,,,,
,,,,,,,,,,64,same,6,0.16426754,0.273779233,black,1,-0.16426754,-0.16426754,orange,1,0.16426754,-0.16426754,red,1,-0.273779233,0.054755847,magenta,1,0.054755847,0.16426754,cyan,1,-0.054755847,-0.16426754,yellow,1,0.05,0.05,0.15,0.16426754,0.273779233,black,k,357207,26,2020-08-14_17h20.22.213,CDT_GNG_IUS12,2020.1.2,MacIntel,60,,k,1,0.741495,0,42,42,63,1,,,,,,,,,,,,,,,,,,,,,,,,,,,,,,,,,,,,,,,,,,,,,,,,,
,,,,,,,,,,2,same,4,0.273779233,0.054755847,magenta,1,-0.273779233,0.273779233,red,1,-0.054755847,-0.054755847,yellow,1,0.273779233,-0.273779233,blue,1,0.054755847,0.16426754,green,0,-0.16426754,0.054755847,cyan,0,0.05,0.05,0.15,0.273779233,-0.273779233,blue,k,357207,26,2020-08-14_17h20.22.213,CDT_GNG_IUS12,2020.1.2,MacIntel,60,,k,1,0.862375,0,43,43,1,1,,,,,,,,,,,,,,,,,,,,,,,,,,,,,,,,,,,,,,,,,,,,,,,,,
,,,,,,,,,,56,different,4,0.16426754,0.054755847,red,1,-0.054755847,0.16426754,orange,1,0.16426754,-0.16426754,black,1,-0.273779233,-0.054755847,yellow,1,0.16426754,0.273779233,blue,0,-0.054755847,0.273779233,magenta,0,0.05,0.05,0.15,-0.273779233,-0.054755847,green,l,357207,26,2020-08-14_17h20.22.213,CDT_GNG_IUS12,2020.1.2,MacIntel,60,,l,1,0.801865,0,44,44,55,1,,,,,,,,,,,,,,,,,,,,,,,,,,,,,,,,,,,,,,,,,,,,,,,,,
,,,,,,,,,,21,same,4,0.273779233,0.273779233,black,1,-0.273779233,-0.273779233,blue,1,0.054755847,-0.16426754,yellow,1,-0.273779233,0.054755847,cyan,1,0.16426754,0.273779233,magenta,0,-0.054755847,-0.054755847,green,0,0.05,0.05,0.15,0.273779233,0.273779233,black,k,357207,26,2020-08-14_17h20.22.213,CDT_GNG_IUS12,2020.1.2,MacIntel,60,,k,1,0.7705,0,45,45,20,1,,,,,,,,,,,,,,,,,,,,,,,,,,,,,,,,,,,,,,,,,,,,,,,,,
,,,,,,,,,,47,different,4,-0.16426754,-0.054755847,orange,1,0.273779233,0.054755847,black,1,-0.16426754,0.16426754,red,1,0.273779233,-0.16426754,blue,1,-0.054755847,-0.273779233,green,0,0.16426754,0.16426754,yellow,0,0.05,0.05,0.15,0.273779233,0.054755847,red,l,357207,26,2020-08-14_17h20.22.213,CDT_GNG_IUS12,2020.1.2,MacIntel,60,,l,1,0.57222,0,46,46,46,1,,,,,,,,,,,,,,,,,,,,,,,,,,,,,,,,,,,,,,,,,,,,,,,,,
,,,,,,,,,,119,different,6,-0.273779233,0.054755847,cyan,1,-0.273779233,-0.273779233,blue,1,0.16426754,0.054755847,orange,1,0.054755847,-0.16426754,yellow,1,-0.273779233,0.273779233,black,1,-0.054755847,-0.054755847,green,1,0.05,0.05,0.15,-0.273779233,-0.273779233,cyan,l,357207,26,2020-08-14_17h20.22.213,CDT_GNG_IUS12,2020.1.2,MacIntel,60,,l,1,0.68684,0,47,47,118,1,,,,,,,,,,,,,,,,,,,,,,,,,,,,,,,,,,,,,,,,,,,,,,,,,
,,,,,,,,,,62,same,6,0.054755847,-0.054755847,yellow,1,-0.273779233,-0.16426754,green,1,0.273779233,0.054755847,orange,1,-0.16426754,0.054755847,cyan,1,0.054755847,-0.273779233,red,1,-0.054755847,-0.054755847,blue,1,0.05,0.05,0.15,0.054755847,-0.054755847,yellow,k,357207,26,2020-08-14_17h20.22.213,CDT_GNG_IUS12,2020.1.2,MacIntel,60,,l,0,2.044565,0,48,48,61,1,,,,,,,,,,,,,,,,,,,,,,,,,,,,,,,,,,,,,,,,,,,,,,,,,
,,,,,,,,,,114,different,6,-0.16426754,0.16426754,black,1,-0.054755847,-0.273779233,orange,1,0.054755847,0.16426754,magenta,1,0.273779233,-0.16426754,green,1,-0.054755847,0.16426754,cyan,1,-0.273779233,-0.273779233,yellow,1,0.05,0.05,0.15,0.054755847,0.16426754,blue,l,357207,26,2020-08-14_17h20.22.213,CDT_GNG_IUS12,2020.1.2,MacIntel,60,,l,1,0.749325,0,49,49,113,1,,,,,,,,,,,,,,,,,,,,,,,,,,,,,,,,,,,,,,,,,,,,,,,,,
,,,,,,,,,,108,different,6,-0.273779233,-0.054755847,magenta,1,0.054755847,0.16426754,red,1,-0.16426754,0.054755847,cyan,1,0.054755847,-0.273779233,green,1,-0.273779233,-0.16426754,orange,1,0.273779233,0.273779233,black,1,0.05,0.05,0.15,-0.273779233,-0.054755847,blue,l,357207,26,2020-08-14_17h20.22.213,CDT_GNG_IUS12,2020.1.2,MacIntel,60,,k,0,0.68189,0,50,50,107,1,,,,,,,,,,,,,,,,,,,,,,,,,,,,,,,,,,,,,,,,,,,,,,,,,
,,,,,,,,,,53,different,4,-0.16426754,0.054755847,green,1,0.273779233,0.054755847,cyan,1,-0.273779233,-0.273779233,magenta,1,0.054755847,-0.16426754,black,1,-0.054755847,0.16426754,red,0,0.273779233,0.273779233,blue,0,0.05,0.05,0.15,-0.273779233,-0.273779233,black,l,357207,26,2020-08-14_17h20.22.213,CDT_GNG_IUS12,2020.1.2,MacIntel,60,,l,1,0.54319,0,51,51,52,1,,,,,,,,,,,,,,,,,,,,,,,,,,,,,,,,,,,,,,,,,,,,,,,,,
,,,,,,,,,,28,same,4,0.16426754,-0.273779233,yellow,1,-0.054755847,0.16426754,black,1,0.16426754,0.054755847,cyan,1,-0.273779233,-0.16426754,blue,1,0.273779233,-0.273779233,orange,0,-0.054755847,0.054755847,magenta,0,0.05,0.05,0.15,-0.054755847,0.16426754,black,k,357207,26,2020-08-14_17h20.22.213,CDT_GNG_IUS12,2020.1.2,MacIntel,60,,k,1,0.862675,0,52,52,27,1,,,,,,,,,,,,,,,,,,,,,,,,,,,,,,,,,,,,,,,,,,,,,,,,,
,,,,,,,,,,77,same,6,0.273779233,0.273779233,black,1,-0.273779233,-0.16426754,red,1,0.16426754,-0.054755847,magenta,1,-0.054755847,0.16426754,cyan,1,0.16426754,0.273779233,orange,1,-0.16426754,-0.273779233,blue,1,0.05,0.05,0.15,-0.273779233,-0.16426754,red,k,357207,26,2020-08-14_17h20.22.213,CDT_GNG_IUS12,2020.1.2,MacIntel,60,,l,0,0.95346,0,53,53,76,1,,,,,,,,,,,,,,,,,,,,,,,,,,,,,,,,,,,,,,,,,,,,,,,,,
,,,,,,,,,,69,same,6,-0.054755847,-0.054755847,black,1,0.273779233,-0.054755847,orange,1,-0.273779233,0.16426754,blue,1,0.054755847,0.054755847,yellow,1,-0.16426754,-0.16426754,green,1,0.054755847,-0.16426754,magenta,1,0.05,0.05,0.15,-0.16426754,-0.16426754,green,k,357207,26,2020-08-14_17h20.22.213,CDT_GNG_IUS12,2020.1.2,MacIntel,60,,l,0,0.826875,0,54,54,68,1,,,,,,,,,,,,,,,,,,,,,,,,,,,,,,,,,,,,,,,,,,,,,,,,,
,,,,,,,,,,111,different,6,0.273779233,0.273779233,green,1,0.054755847,-0.16426754,red,1,-0.16426754,-0.16426754,black,1,-0.16426754,0.16426754,magenta,1,0.054755847,0.054755847,blue,1,0.273779233,-0.16426754,yellow,1,0.05,0.05,0.15,0.273779233,-0.16426754,green,l,357207,26,2020-08-14_17h20.22.213,CDT_GNG_IUS12,2020.1.2,MacIntel,60,,k,0,0.795045,0,55,55,110,1,,,,,,,,,,,,,,,,,,,,,,,,,,,,,,,,,,,,,,,,,,,,,,,,,
,,,,,,,,,,91,different,6,-0.054755847,0.054755847,green,1,0.054755847,-0.16426754,cyan,1,-0.054755847,-0.054755847,black,1,0.16426754,0.273779233,yellow,1,-0.273779233,0.273779233,magenta,1,0.16426754,-0.054755847,red,1,0.05,0.05,0.15,0.16426754,-0.054755847,green,l,357207,26,2020-08-14_17h20.22.213,CDT_GNG_IUS12,2020.1.2,MacIntel,60,,k,0,0.82612,0,56,56,90,1,,,,,,,,,,,,,,,,,,,,,,,,,,,,,,,,,,,,,,,,,,,,,,,,,
,,,,,,,,,,8,same,4,0.16426754,-0.16426754,blue,1,-0.16426754,-0.054755847,red,1,-0.273779233,0.16426754,green,1,0.054755847,0.054755847,cyan,1,0.16426754,-0.273779233,magenta,0,-0.054755847,-0.054755847,orange,0,0.05,0.05,0.15,-0.273779233,0.16426754,green,k,357207,26,2020-08-14_17h20.22.213,CDT_GNG_IUS12,2020.1.2,MacIntel,60,,k,1,0.66858,0,57,57,7,1,,,,,,,,,,,,,,,,,,,,,,,,,,,,,,,,,,,,,,,,,,,,,,,,,
,,,,,,,,,,29,same,4,0.273779233,0.054755847,magenta,1,-0.054755847,0.273779233,cyan,1,0.16426754,-0.054755847,green,1,-0.16426754,-0.054755847,black,1,0.273779233,0.16426754,orange,0,-0.16426754,0.054755847,blue,0,0.05,0.05,0.15,0.16426754,-0.054755847,green,k,357207,26,2020-08-14_17h20.22.213,CDT_GNG_IUS12,2020.1.2,MacIntel,60,,k,1,0.63476,0,58,58,28,1,,,,,,,,,,,,,,,,,,,,,,,,,,,,,,,,,,,,,,,,,,,,,,,,,
,,,,,,,,,,106,different,6,0.054755847,-0.16426754,blue,1,-0.273779233,-0.273779233,magenta,1,0.273779233,0.273779233,yellow,1,-0.273779233,0.054755847,orange,1,0.054755847,-0.054755847,green,1,-0.054755847,-0.16426754,black,1,0.05,0.05,0.15,0.054755847,-0.054755847,cyan,l,357207,26,2020-08-14_17h20.22.213,CDT_GNG_IUS12,2020.1.2,MacIntel,60,s,l,1,0.89594,0,59,59,105,1,10.43093,,,,,,,,,,,,,,,,,,,,,,,,,,,,,,,,,,,,,,,,,,,,,,,,
,,,,,,,,,,89,same,6,-0.054755847,-0.273779233,cyan,1,-0.16426754,0.16426754,green,1,0.273779233,0.273779233,black,1,0.273779233,-0.273779233,orange,1,-0.273779233,-0.16426754,magenta,1,-0.16426754,0.273779233,yellow,1,0.05,0.05,0.15,-0.16426754,0.273779233,yellow,k,357207,26,2020-08-14_17h20.22.213,CDT_GNG_IUS12,2020.1.2,MacIntel,60,,k,1,1.27127,0,60,60,88,1,,,,,,,,,,,,,,,,,,,,,,,,,,,,,,,,,,,,,,,,,,,,,,,,,
,,,,,,,,,,40,different,4,-0.273779233,-0.273779233,magenta,1,0.054755847,-0.16426754,yellow,1,-0.16426754,0.054755847,red,1,0.273779233,0.273779233,orange,1,-0.054755847,-0.054755847,cyan,0,0.16426754,-0.16426754,green,0,0.05,0.05,0.15,0.273779233,0.273779233,black,l,357207,26,2020-08-14_17h20.22.213,CDT_GNG_IUS12,2020.1.2,MacIntel,60,,l,1,0.62254,0,61,61,39,1,,,,,,,,,,,,,,,,,,,,,,,,,,,,,,,,,,,,,,,,,,,,,,,,,
,,,,,,,,,,80,same,6,-0.273779233,0.16426754,orange,1,0.054755847,-0.273779233,yellow,1,0.054755847,0.273779233,green,1,-0.16426754,-0.273779233,red,1,-0.16426754,0.273779233,blue,1,0.273779233,-0.16426754,black,1,0.05,0.05,0.15,0.054755847,-0.273779233,yellow,k,357207,26,2020-08-14_17h20.22.213,CDT_GNG_IUS12,2020.1.2,MacIntel,60,,k,1,0.78,0,62,62,79,1,,,,,,,,,,,,,,,,,,,,,,,,,,,,,,,,,,,,,,,,,,,,,,,,,
,,,,,,,,,,95,different,6,-0.273779233,-0.16426754,magenta,1,0.16426754,0.273779233,green,1,-0.273779233,0.273779233,black,1,0.16426754,-0.273779233,orange,1,-0.054755847,-0.16426754,blue,1,0.16426754,0.054755847,cyan,1,0.05,0.05,0.15,0.16426754,0.273779233,black,l,357207,26,2020-08-14_17h20.22.213,CDT_GNG_IUS12,2020.1.2,MacIntel,60,,k,0,1.60448,0,63,63,94,1,,,,,,,,,,,,,,,,,,,,,,,,,,,,,,,,,,,,,,,,,,,,,,,,,
,,,,,,,,,,10,same,4,0.273779233,0.273779233,green,1,-0.16426754,-0.054755847,yellow,1,-0.16426754,0.16426754,cyan,1,0.273779233,-0.16426754,blue,1,0.273779233,0.054755847,orange,0,-0.273779233,-0.16426754,red,0,0.05,0.05,0.15,0.273779233,0.273779233,green,k,357207,26,2020-08-14_17h20.22.213,CDT_GNG_IUS12,2020.1.2,MacIntel,60,,k,1,1.10838,0,64,64,9,1,,,,,,,,,,,,,,,,,,,,,,,,,,,,,,,,,,,,,,,,,,,,,,,,,
,,,,,,,,,,57,different,4,-0.273779233,-0.054755847,yellow,1,0.16426754,-0.054755847,green,1,-0.273779233,0.16426754,red,1,0.273779233,0.054755847,black,1,-0.16426754,-0.054755847,orange,0,0.054755847,-0.16426754,magenta,0,0.05,0.05,0.15,0.16426754,-0.054755847,orange,l,357207,26,2020-08-14_17h20.22.213,CDT_GNG_IUS12,2020.1.2,MacIntel,60,,l,1,0.55616,0,65,65,56,1,,,,,,,,,,,,,,,,,,,,,,,,,,,,,,,,,,,,,,,,,,,,,,,,,
,,,,,,,,,,43,different,4,-0.16426754,-0.054755847,red,1,0.273779233,0.054755847,cyan,1,-0.16426754,0.054755847,orange,1,0.054755847,-0.054755847,blue,1,-0.054755847,-0.273779233,magenta,0,0.273779233,0.273779233,yellow,0,0.05,0.05,0.15,-0.16426754,-0.054755847,yellow,l,357207,26,2020-08-14_17h20.22.213,CDT_GNG_IUS12,2020.1.2,MacIntel,60,,l,1,0.87509,0,66,66,42,1,,,,,,,,,,,,,,,,,,,,,,,,,,,,,,,,,,,,,,,,,,,,,,,,,
,,,,,,,,,,78,same,6,0.054755847,0.054755847,black,1,-0.054755847,0.16426754,red,1,0.273779233,-0.273779233,blue,1,-0.054755847,-0.054755847,magenta,1,0.16426754,0.054755847,yellow,1,-0.273779233,0.16426754,cyan,1,0.05,0.05,0.15,-0.054755847,0.16426754,red,k,357207,26,2020-08-14_17h20.22.213,CDT_GNG_IUS12,2020.1.2,MacIntel,60,,l,0,1.059095,0,67,67,77,1,,,,,,,,,,,,,,,,,,,,,,,,,,,,,,,,,,,,,,,,,,,,,,,,,
,,,,,,,,,,32,different,4,-0.054755847,-0.273779233,green,1,-0.273779233,0.16426754,black,1,0.16426754,0.16426754,cyan,1,0.273779233,-0.16426754,yellow,1,-0.054755847,-0.054755847,blue,0,-0.054755847,0.273779233,orange,0,0.05,0.05,0.15,-0.054755847,-0.273779233,red,l,357207,26,2020-08-14_17h20.22.213,CDT_GNG_IUS12,2020.1.2,MacIntel,60,,l,1,0.693765,0,68,68,31,1,,,,,,,,,,,,,,,,,,,,,,,,,,,,,,,,,,,,,,,,,,,,,,,,,
,,,,,,,,,,100,different,6,0.273779233,0.16426754,blue,1,-0.054755847,0.054755847,magenta,1,-0.273779233,-0.054755847,orange,1,0.273779233,-0.273779233,red,1,0.16426754,0.054755847,green,1,-0.273779233,0.054755847,yellow,1,0.05,0.05,0.15,0.273779233,0.16426754,orange,l,357207,26,2020-08-14_17h20.22.213,CDT_GNG_IUS12,2020.1.2,MacIntel,60,,l,1,0.751015,0,69,69,99,1,,,,,,,,,,,,,,,,,,,,,,,,,,,,,,,,,,,,,,,,,,,,,,,,,
,,,,,,,,,,94,different,6,0.273779233,-0.273779233,green,1,-0.16426754,-0.054755847,black,1,-0.273779233,0.16426754,blue,1,0.273779233,0.054755847,cyan,1,0.16426754,-0.16426754,magenta,1,-0.054755847,-0.054755847,orange,1,0.05,0.05,0.15,0.273779233,-0.273779233,magenta,l,357207,26,2020-08-14_17h20.22.213,CDT_GNG_IUS12,2020.1.2,MacIntel,60,,k,0,0.716275,0,70,70,93,1,,,,,,,,,,,,,,,,,,,,,,,,,,,,,,,,,,,,,,,,,,,,,,,,,
,,,,,,,,,,48,different,4,0.16426754,0.273779233,cyan,1,-0.054755847,-0.273779233,magenta,1,0.16426754,-0.054755847,orange,1,-0.273779233,0.273779233,blue,1,0.273779233,0.16426754,red,0,-0.054755847,-0.16426754,green,0,0.05,0.05,0.15,0.16426754,-0.054755847,red,l,357207,26,2020-08-14_17h20.22.213,CDT_GNG_IUS12,2020.1.2,MacIntel,60,,l,1,0.73257,0,71,71,47,1,,,,,,,,,,,,,,,,,,,,,,,,,,,,,,,,,,,,,,,,,,,,,,,,,
,,,,,,,,,,75,same,6,0.16426754,0.273779233,magenta,1,-0.273779233,-0.16426754,green,1,-0.273779233,0.16426754,yellow,1,0.054755847,-0.054755847,red,1,0.273779233,0.054755847,blue,1,-0.16426754,-0.054755847,cyan,1,0.05,0.05,0.15,0.054755847,-0.054755847,red,k,357207,26,2020-08-14_17h20.22.213,CDT_GNG_IUS12,2020.1.2,MacIntel,60,,k,1,0.751125,0,72,72,74,1,,,,,,,,,,,,,,,,,,,,,,,,,,,,,,,,,,,,,,,,,,,,,,,,,
,,,,,,,,,,39,different,4,0.054755847,0.054755847,green,1,0.273779233,-0.16426754,yellow,1,-0.16426754,0.054755847,orange,1,-0.273779233,-0.054755847,red,1,0.273779233,0.054755847,blue,0,0.054755847,-0.16426754,cyan,0,0.05,0.05,0.15,-0.273779233,-0.054755847,cyan,l,357207,26,2020-08-14_17h20.22.213,CDT_GNG_IUS12,2020.1.2,MacIntel,60,,l,1,0.66786,0,73,73,38,1,,,,,,,,,,,,,,,,,,,,,,,,,,,,,,,,,,,,,,,,,,,,,,,,,
,,,,,,,,,,86,same,6,0.054755847,0.273779233,green,1,-0.054755847,0.273779233,red,1,0.16426754,-0.16426754,yellow,1,-0.054755847,-0.273779233,black,1,0.273779233,0.273779233,cyan,1,-0.273779233,0.054755847,orange,1,0.05,0.05,0.15,-0.273779233,0.054755847,orange,k,357207,26,2020-08-14_17h20.22.213,CDT_GNG_IUS12,2020.1.2,MacIntel,60,,l,0,0.847475,0,74,74,85,1,,,,,,,,,,,,,,,,,,,,,,,,,,,,,,,,,,,,,,,,,,,,,,,,,
,,,,,,,,,,54,different,4,-0.054755847,-0.054755847,black,1,0.054755847,0.054755847,cyan,1,0.273779233,-0.16426754,green,1,-0.273779233,0.16426754,magenta,1,-0.054755847,-0.16426754,orange,0,0.054755847,0.16426754,blue,0,0.05,0.05,0.15,-0.273779233,0.16426754,orange,l,357207,26,2020-08-14_17h20.22.213,CDT_GNG_IUS12,2020.1.2,MacIntel,60,,k,0,1.47661,0,75,75,53,1,,,,,,,,,,,,,,,,,,,,,,,,,,,,,,,,,,,,,,,,,,,,,,,,,
,,,,,,,,,,85,same,6,-0.16426754,-0.273779233,black,1,-0.16426754,0.16426754,green,1,0.16426754,-0.054755847,blue,1,0.054755847,0.054755847,magenta,1,-0.16426754,-0.054755847,red,1,-0.054755847,0.054755847,yellow,1,0.05,0.05,0.15,-0.16426754,-0.273779233,black,k,357207,26,2020-08-14_17h20.22.213,CDT_GNG_IUS12,2020.1.2,MacIntel,60,,l,0,0.753435,0,76,76,84,1,,,,,,,,,,,,,,,,,,,,,,,,,,,,,,,,,,,,,,,,,,,,,,,,,
,,,,,,,,,,81,same,6,-0.273779233,-0.273779233,green,1,-0.273779233,0.16426754,blue,1,0.054755847,-0.16426754,black,1,0.273779233,0.054755847,cyan,1,-0.16426754,-0.273779233,orange,1,-0.054755847,0.054755847,red,1,0.05,0.05,0.15,0.054755847,-0.16426754,black,k,357207,26,2020-08-14_17h20.22.213,CDT_GNG_IUS12,2020.1.2,MacIntel,60,,k,1,0.861205,0,77,77,80,1,,,,,,,,,,,,,,,,,,,,,,,,,,,,,,,,,,,,,,,,,,,,,,,,,
,,,,,,,,,,83,same,6,0.054755847,-0.16426754,cyan,1,-0.16426754,-0.16426754,blue,1,0.273779233,0.054755847,magenta,1,-0.273779233,0.273779233,green,1,0.273779233,-0.16426754,orange,1,-0.054755847,-0.054755847,yellow,1,0.05,0.05,0.15,-0.054755847,-0.054755847,yellow,k,357207,26,2020-08-14_17h20.22.213,CDT_GNG_IUS12,2020.1.2,MacIntel,60,,l,0,0.857315,0,78,78,82,1,,,,,,,,,,,,,,,,,,,,,,,,,,,,,,,,,,,,,,,,,,,,,,,,,
,,,,,,,,,,73,same,6,0.054755847,0.16426754,blue,1,-0.273779233,0.273779233,red,1,-0.273779233,-0.16426754,green,1,0.054755847,-0.054755847,orange,1,0.16426754,0.16426754,black,1,-0.054755847,0.16426754,magenta,1,0.05,0.05,0.15,-0.273779233,0.273779233,red,k,357207,26,2020-08-14_17h20.22.213,CDT_GNG_IUS12,2020.1.2,MacIntel,60,,l,0,0.845355,0,79,79,72,1,,,,,,,,,,,,,,,,,,,,,,,,,,,,,,,,,,,,,,,,,,,,,,,,,
,,,,,,,,,,93,different,6,-0.16426754,0.16426754,red,1,0.054755847,-0.054755847,black,1,-0.054755847,-0.16426754,blue,1,0.054755847,0.273779233,magenta,1,-0.054755847,0.054755847,orange,1,0.16426754,-0.054755847,cyan,1,0.05,0.05,0.15,-0.054755847,-0.16426754,black,l,357207,26,2020-08-14_17h20.22.213,CDT_GNG_IUS12,2020.1.2,MacIntel,60,,l,1,3.301395,0,80,80,92,1,,,,,,,,,,,,,,,,,,,,,,,,,,,,,,,,,,,,,,,,,,,,,,,,,
,,,,,,,,,,37,different,4,0.273779233,-0.273779233,cyan,1,-0.054755847,0.054755847,orange,1,-0.054755847,-0.16426754,yellow,1,0.16426754,0.054755847,blue,1,0.054755847,-0.273779233,red,0,-0.273779233,0.16426754,green,0,0.05,0.05,0.15,-0.054755847,0.054755847,green,l,357207,26,2020-08-14_17h20.22.213,CDT_GNG_IUS12,2020.1.2,MacIntel,60,,l,1,0.975205,0,81,81,36,1,,,,,,,,,,,,,,,,,,,,,,,,,,,,,,,,,,,,,,,,,,,,,,,,,
,,,,,,,,,,82,same,6,-0.054755847,-0.16426754,red,1,0.273779233,-0.054755847,cyan,1,0.16426754,0.273779233,blue,1,-0.054755847,0.054755847,black,1,-0.16426754,-0.16426754,yellow,1,0.273779233,-0.16426754,green,1,0.05,0.05,0.15,-0.16426754,-0.16426754,yellow,k,357207,26,2020-08-14_17h20.22.213,CDT_GNG_IUS12,2020.1.2,MacIntel,60,,k,1,0.992505,0,82,82,81,1,,,,,,,,,,,,,,,,,,,,,,,,,,,,,,,,,,,,,,,,,,,,,,,,,
,,,,,,,,,,63,same,6,-0.273779233,0.273779233,red,1,-0.273779233,-0.16426754,orange,1,0.054755847,-0.273779233,black,1,0.16426754,0.16426754,cyan,1,-0.054755847,0.054755847,blue,1,-0.273779233,-0.054755847,magenta,1,0.05,0.05,0.15,-0.273779233,-0.054755847,magenta,k,357207,26,2020-08-14_17h20.22.213,CDT_GNG_IUS12,2020.1.2,MacIntel,60,,k,1,0.57261,0,83,83,62,1,,,,,,,,,,,,,,,,,,,,,,,,,,,,,,,,,,,,,,,,,,,,,,,,,
,,,,,,,,,,116,different,6,-0.273779233,0.16426754,green,1,-0.054755847,-0.054755847,orange,1,0.273779233,-0.273779233,cyan,1,0.054755847,0.273779233,red,1,-0.054755847,0.16426754,blue,1,-0.16426754,-0.054755847,yellow,1,0.05,0.05,0.15,-0.054755847,-0.054755847,magenta,l,357207,26,2020-08-14_17h20.22.213,CDT_GNG_IUS12,2020.1.2,MacIntel,60,,k,0,1.10533,0,84,84,115,1,,,,,,,,,,,,,,,,,,,,,,,,,,,,,,,,,,,,,,,,,,,,,,,,,
,,,,,,,,,,120,different,6,0.16426754,-0.054755847,blue,1,-0.16426754,-0.273779233,cyan,1,0.16426754,0.16426754,magenta,1,-0.273779233,0.273779233,black,1,0.273779233,-0.16426754,green,1,-0.273779233,-0.16426754,orange,1,0.05,0.05,0.15,0.16426754,0.16426754,yellow,l,357207,26,2020-08-14_17h20.22.213,CDT_GNG_IUS12,2020.1.2,MacIntel,60,,k,0,1.20893,0,85,85,119,1,,,,,,,,,,,,,,,,,,,,,,,,,,,,,,,,,,,,,,,,,,,,,,,,,
,,,,,,,,,,58,different,4,-0.16426754,0.273779233,blue,1,0.16426754,0.273779233,yellow,1,0.273779233,-0.16426754,black,1,-0.16426754,-0.054755847,cyan,1,-0.16426754,0.16426754,green,0,0.16426754,0.054755847,orange,0,0.05,0.05,0.15,0.273779233,-0.16426754,magenta,l,357207,26,2020-08-14_17h20.22.213,CDT_GNG_IUS12,2020.1.2,MacIntel,60,,l,1,0.53557,0,86,86,57,1,,,,,,,,,,,,,,,,,,,,,,,,,,,,,,,,,,,,,,,,,,,,,,,,,
,,,,,,,,,,18,same,4,-0.054755847,0.273779233,black,1,-0.16426754,-0.16426754,cyan,1,0.054755847,0.16426754,red,1,0.273779233,-0.273779233,magenta,1,-0.16426754,0.273779233,orange,0,-0.054755847,-0.273779233,green,0,0.05,0.05,0.15,0.273779233,-0.273779233,magenta,k,357207,26,2020-08-14_17h20.22.213,CDT_GNG_IUS12,2020.1.2,MacIntel,60,,k,1,0.7893,0,87,87,17,1,,,,,,,,,,,,,,,,,,,,,,,,,,,,,,,,,,,,,,,,,,,,,,,,,
,,,,,,,,,,104,different,6,0.054755847,-0.16426754,magenta,1,0.273779233,0.273779233,yellow,1,-0.273779233,0.273779233,blue,1,-0.16426754,-0.054755847,cyan,1,0.16426754,-0.054755847,orange,1,0.273779233,0.16426754,green,1,0.05,0.05,0.15,0.054755847,-0.16426754,cyan,l,357207,26,2020-08-14_17h20.22.213,CDT_GNG_IUS12,2020.1.2,MacIntel,60,,l,1,0.66189,0,88,88,103,1,,,,,,,,,,,,,,,,,,,,,,,,,,,,,,,,,,,,,,,,,,,,,,,,,
,,,,,,,,,,19,same,4,-0.054755847,-0.16426754,orange,1,-0.273779233,0.273779233,red,1,0.273779233,0.054755847,yellow,1,0.273779233,-0.16426754,magenta,1,-0.273779233,-0.054755847,black,0,-0.054755847,0.273779233,blue,0,0.05,0.05,0.15,0.273779233,-0.16426754,magenta,k,357207,26,2020-08-14_17h20.22.213,CDT_GNG_IUS12,2020.1.2,MacIntel,60,,k,1,0.74304,0,89,89,18,1,,,,,,,,,,,,,,,,,,,,,,,,,,,,,,,,,,,,,,,,,,,,,,,,,
,,,,,,,,,,61,same,6,0.273779233,0.16426754,cyan,1,0.273779233,-0.273779233,blue,1,-0.16426754,-0.16426754,green,1,-0.16426754,0.273779233,black,1,0.16426754,0.054755847,red,1,0.273779233,-0.16426754,yellow,1,0.05,0.05,0.15,0.273779233,-0.16426754,yellow,k,357207,26,2020-08-14_17h20.22.213,CDT_GNG_IUS12,2020.1.2,MacIntel,60,,k,1,1.304225,0,90,90,60,1,,,,,,,,,,,,,,,,,,,,,,,,,,,,,,,,,,,,,,,,,,,,,,,,,
,,,,,,,,,,22,same,4,-0.054755847,-0.16426754,green,1,-0.16426754,0.054755847,blue,1,0.16426754,0.16426754,yellow,1,0.273779233,-0.054755847,black,1,-0.273779233,-0.054755847,red,0,-0.054755847,0.16426754,cyan,0,0.05,0.05,0.15,0.273779233,-0.054755847,black,k,357207,26,2020-08-14_17h20.22.213,CDT_GNG_IUS12,2020.1.2,MacIntel,60,,k,1,0.5778,0,91,91,21,1,,,,,,,,,,,,,,,,,,,,,,,,,,,,,,,,,,,,,,,,,,,,,,,,,
,,,,,,,,,,13,same,4,0.16426754,0.273779233,orange,1,0.054755847,-0.273779233,blue,1,-0.054755847,0.054755847,magenta,1,-0.054755847,-0.16426754,black,1,0.054755847,0.16426754,yellow,0,0.16426754,-0.054755847,cyan,0,0.05,0.05,0.15,0.054755847,-0.273779233,blue,k,357207,26,2020-08-14_17h20.22.213,CDT_GNG_IUS12,2020.1.2,MacIntel,60,,k,1,1.359975,0,92,92,12,1,,,,,,,,,,,,,,,,,,,,,,,,,,,,,,,,,,,,,,,,,,,,,,,,,
,,,,,,,,,,67,same,6,0.273779233,-0.054755847,magenta,1,0.16426754,0.273779233,orange,1,-0.273779233,0.273779233,cyan,1,-0.16426754,-0.054755847,yellow,1,0.16426754,-0.16426754,blue,1,0.16426754,0.16426754,red,1,0.05,0.05,0.15,-0.273779233,0.273779233,cyan,k,357207,26,2020-08-14_17h20.22.213,CDT_GNG_IUS12,2020.1.2,MacIntel,60,,l,0,0.950215,0,93,93,66,1,,,,,,,,,,,,,,,,,,,,,,,,,,,,,,,,,,,,,,,,,,,,,,,,,
,,,,,,,,,,46,different,4,-0.16426754,0.273779233,yellow,1,-0.16426754,-0.16426754,green,1,0.16426754,0.054755847,black,1,0.273779233,-0.054755847,red,1,-0.16426754,0.16426754,blue,0,-0.273779233,-0.054755847,cyan,0,0.05,0.05,0.15,0.16426754,0.054755847,cyan,l,357207,26,2020-08-14_17h20.22.213,CDT_GNG_IUS12,2020.1.2,MacIntel,60,,l,1,0.715135,0,94,94,45,1,,,,,,,,,,,,,,,,,,,,,,,,,,,,,,,,,,,,,,,,,,,,,,,,,
,,,,,,,,,,51,different,4,-0.16426754,-0.273779233,yellow,1,0.16426754,-0.273779233,cyan,1,0.273779233,0.054755847,blue,1,-0.054755847,0.273779233,green,1,-0.16426754,-0.054755847,black,0,0.273779233,-0.273779233,red,0,0.05,0.05,0.15,0.16426754,-0.273779233,red,l,357207,26,2020-08-14_17h20.22.213,CDT_GNG_IUS12,2020.1.2,MacIntel,60,,l,1,0.640005,0,95,95,50,1,,,,,,,,,,,,,,,,,,,,,,,,,,,,,,,,,,,,,,,,,,,,,,,,,
,,,,,,,,,,38,different,4,0.273779233,-0.16426754,red,1,-0.054755847,0.16426754,blue,1,-0.273779233,-0.054755847,green,1,0.273779233,0.054755847,cyan,1,0.16426754,-0.054755847,orange,0,-0.054755847,0.054755847,yellow,0,0.05,0.05,0.15,0.273779233,0.054755847,black,l,357207,26,2020-08-14_17h20.22.213,CDT_GNG_IUS12,2020.1.2,MacIntel,60,,l,1,0.652155,0,96,96,37,1,,,,,,,,,,,,,,,,,,,,,,,,,,,,,,,,,,,,,,,,,,,,,,,,,
,,,,,,,,,,6,same,4,0.273779233,0.273779233,blue,1,-0.273779233,-0.16426754,magenta,1,-0.054755847,0.054755847,green,1,0.054755847,-0.054755847,black,1,0.054755847,0.054755847,orange,0,-0.054755847,-0.054755847,red,0,0.05,0.05,0.15,-0.054755847,0.054755847,green,k,357207,26,2020-08-14_17h20.22.213,CDT_GNG_IUS12,2020.1.2,MacIntel,60,,k,1,1.00926,0,97,97,5,1,,,,,,,,,,,,,,,,,,,,,,,,,,,,,,,,,,,,,,,,,,,,,,,,,
,,,,,,,,,,90,same,6,0.16426754,-0.054755847,black,1,-0.273779233,-0.054755847,orange,1,-0.16426754,0.16426754,cyan,1,0.273779233,0.273779233,blue,1,0.054755847,-0.054755847,magenta,1,-0.273779233,-0.273779233,yellow,1,0.05,0.05,0.15,-0.273779233,-0.054755847,orange,k,357207,26,2020-08-14_17h20.22.213,CDT_GNG_IUS12,2020.1.2,MacIntel,60,,k,1,1.43969,0,98,98,89,1,,,,,,,,,,,,,,,,,,,,,,,,,,,,,,,,,,,,,,,,,,,,,,,,,
,,,,,,,,,,9,same,4,-0.16426754,0.054755847,cyan,1,0.16426754,-0.16426754,magenta,1,-0.273779233,-0.054755847,black,1,0.054755847,0.054755847,green,1,-0.273779233,0.16426754,orange,0,0.273779233,-0.273779233,red,0,0.05,0.05,0.15,-0.273779233,-0.054755847,black,k,357207,26,2020-08-14_17h20.22.213,CDT_GNG_IUS12,2020.1.2,MacIntel,60,,k,1,0.86631,0,99,99,8,1,,,,,,,,,,,,,,,,,,,,,,,,,,,,,,,,,,,,,,,,,,,,,,,,,
,,,,,,,,,,65,same,6,-0.273779233,-0.16426754,cyan,1,-0.054755847,0.054755847,blue,1,0.054755847,-0.054755847,red,1,0.273779233,0.054755847,green,1,-0.16426754,-0.054755847,orange,1,-0.273779233,0.273779233,yellow,1,0.05,0.05,0.15,-0.273779233,-0.16426754,cyan,k,357207,26,2020-08-14_17h20.22.213,CDT_GNG_IUS12,2020.1.2,MacIntel,60,,l,0,0.62477,0,100,100,64,1,,,,,,,,,,,,,,,,,,,,,,,,,,,,,,,,,,,,,,,,,,,,,,,,,
,,,,,,,,,,103,different,6,-0.273779233,-0.16426754,black,1,0.273779233,-0.054755847,cyan,1,0.054755847,0.273779233,magenta,1,-0.054755847,0.16426754,orange,1,-0.16426754,-0.16426754,green,1,0.273779233,-0.16426754,red,1,0.05,0.05,0.15,-0.273779233,-0.16426754,blue,l,357207,26,2020-08-14_17h20.22.213,CDT_GNG_IUS12,2020.1.2,MacIntel,60,,l,1,0.904065,0,101,101,102,1,,,,,,,,,,,,,,,,,,,,,,,,,,,,,,,,,,,,,,,,,,,,,,,,,
,,,,,,,,,,60,different,4,0.273779233,0.273779233,red,1,-0.273779233,-0.054755847,blue,1,-0.273779233,0.054755847,magenta,1,0.054755847,-0.273779233,black,1,0.273779233,0.054755847,orange,0,-0.054755847,-0.16426754,yellow,0,0.05,0.05,0.15,-0.273779233,0.054755847,yellow,l,357207,26,2020-08-14_17h20.22.213,CDT_GNG_IUS12,2020.1.2,MacIntel,60,,l,1,0.63889,0,102,102,59,1,,,,,,,,,,,,,,,,,,,,,,,,,,,,,,,,,,,,,,,,,,,,,,,,,
,,,,,,,,,,79,same,6,0.054755847,-0.16426754,black,1,-0.054755847,-0.273779233,yellow,1,-0.273779233,0.273779233,red,1,0.054755847,0.054755847,magenta,1,0.16426754,-0.054755847,cyan,1,-0.16426754,-0.054755847,orange,1,0.05,0.05,0.15,0.054755847,0.054755847,magenta,k,357207,26,2020-08-14_17h20.22.213,CDT_GNG_IUS12,2020.1.2,MacIntel,60,,k,1,1.401075,0,103,103,78,1,,,,,,,,,,,,,,,,,,,,,,,,,,,,,,,,,,,,,,,,,,,,,,,,,
,,,,,,,,,,17,same,4,0.16426754,0.273779233,yellow,1,-0.054755847,0.16426754,orange,1,0.273779233,-0.054755847,cyan,1,-0.273779233,-0.054755847,green,1,0.16426754,0.16426754,blue,0,-0.054755847,0.273779233,magenta,0,0.05,0.05,0.15,0.16426754,0.273779233,yellow,k,357207,26,2020-08-14_17h20.22.213,CDT_GNG_IUS12,2020.1.2,MacIntel,60,,k,1,1.01861,0,104,104,16,1,,,,,,,,,,,,,,,,,,,,,,,,,,,,,,,,,,,,,,,,,,,,,,,,,
,,,,,,,,,,20,same,4,0.273779233,0.054755847,magenta,1,0.054755847,-0.273779233,black,1,-0.054755847,0.16426754,blue,1,-0.273779233,-0.054755847,orange,1,0.054755847,0.054755847,red,0,0.054755847,-0.054755847,cyan,0,0.05,0.05,0.15,-0.054755847,0.16426754,blue,k,357207,26,2020-08-14_17h20.22.213,CDT_GNG_IUS12,2020.1.2,MacIntel,60,,l,0,0.888655,0,105,105,19,1,,,,,,,,,,,,,,,,,,,,,,,,,,,,,,,,,,,,,,,,,,,,,,,,,
,,,,,,,,,,27,same,4,-0.273779233,0.054755847,blue,1,-0.16426754,-0.16426754,black,1,0.16426754,-0.273779233,cyan,1,0.273779233,0.054755847,red,1,-0.054755847,0.273779233,magenta,0,-0.054755847,-0.273779233,yellow,0,0.05,0.05,0.15,0.273779233,0.054755847,red,k,357207,26,2020-08-14_17h20.22.213,CDT_GNG_IUS12,2020.1.2,MacIntel,60,,k,1,0.899315,0,106,106,26,1,,,,,,,,,,,,,,,,,,,,,,,,,,,,,,,,,,,,,,,,,,,,,,,,,
,,,,,,,,,,41,different,4,0.054755847,-0.273779233,orange,1,-0.273779233,0.054755847,blue,1,-0.054755847,-0.16426754,yellow,1,0.273779233,0.16426754,red,1,0.273779233,-0.273779233,black,0,-0.273779233,0.273779233,magenta,0,0.05,0.05,0.15,-0.054755847,-0.16426754,black,l,357207,26,2020-08-14_17h20.22.213,CDT_GNG_IUS12,2020.1.2,MacIntel,60,,l,1,0.764195,0,107,107,40,1,,,,,,,,,,,,,,,,,,,,,,,,,,,,,,,,,,,,,,,,,,,,,,,,,
,,,,,,,,,,50,different,4,-0.16426754,0.054755847,black,1,-0.273779233,-0.16426754,magenta,1,0.054755847,0.054755847,cyan,1,0.273779233,-0.16426754,green,1,-0.273779233,0.273779233,yellow,0,-0.16426754,-0.054755847,orange,0,0.05,0.05,0.15,-0.273779233,-0.16426754,yellow,l,357207,26,2020-08-14_17h20.22.213,CDT_GNG_IUS12,2020.1.2,MacIntel,60,,l,1,1.312855,0,108,108,49,1,,,,,,,,,,,,,,,,,,,,,,,,,,,,,,,,,,,,,,,,,,,,,,,,,
,,,,,,,,,,42,different,4,0.273779233,0.16426754,cyan,1,-0.054755847,0.16426754,magenta,1,0.16426754,-0.054755847,green,1,-0.16426754,-0.16426754,red,1,0.16426754,0.273779233,black,0,-0.054755847,0.273779233,yellow,0,0.05,0.05,0.15,0.273779233,0.16426754,blue,l,357207,26,2020-08-14_17h20.22.213,CDT_GNG_IUS12,2020.1.2,MacIntel,60,,l,1,0.692655,0,109,109,41,1,,,,,,,,,,,,,,,,,,,,,,,,,,,,,,,,,,,,,,,,,,,,,,,,,
,,,,,,,,,,113,different,6,-0.273779233,0.054755847,black,1,-0.16426754,-0.16426754,blue,1,0.054755847,-0.16426754,orange,1,0.16426754,0.16426754,red,1,-0.273779233,0.273779233,green,1,-0.273779233,-0.16426754,magenta,1,0.05,0.05,0.15,-0.273779233,-0.16426754,black,l,357207,26,2020-08-14_17h20.22.213,CDT_GNG_IUS12,2020.1.2,MacIntel,60,,k,0,0.63021,0,110,110,112,1,,,,,,,,,,,,,,,,,,,,,,,,,,,,,,,,,,,,,,,,,,,,,,,,,
,,,,,,,,,,96,different,6,-0.16426754,-0.16426754,green,1,-0.16426754,0.054755847,black,1,0.054755847,0.16426754,cyan,1,0.16426754,-0.273779233,yellow,1,-0.273779233,-0.273779233,blue,1,-0.054755847,0.054755847,red,1,0.05,0.05,0.15,-0.16426754,0.054755847,magenta,l,357207,26,2020-08-14_17h20.22.213,CDT_GNG_IUS12,2020.1.2,MacIntel,60,,l,1,0.68687,0,111,111,95,1,,,,,,,,,,,,,,,,,,,,,,,,,,,,,,,,,,,,,,,,,,,,,,,,,
,,,,,,,,,,74,same,6,-0.273779233,-0.273779233,magenta,1,0.16426754,0.054755847,cyan,1,-0.16426754,0.273779233,black,1,0.273779233,-0.054755847,yellow,1,-0.16426754,-0.16426754,red,1,0.054755847,0.273779233,green,1,0.05,0.05,0.15,-0.16426754,-0.16426754,red,k,357207,26,2020-08-14_17h20.22.213,CDT_GNG_IUS12,2020.1.2,MacIntel,60,,k,1,0.935785,0,112,112,73,1,,,,,,,,,,,,,,,,,,,,,,,,,,,,,,,,,,,,,,,,,,,,,,,,,
,,,,,,,,,,71,same,6,-0.054755847,-0.16426754,orange,1,0.273779233,0.054755847,green,1,0.16426754,-0.16426754,yellow,1,-0.054755847,0.054755847,blue,1,-0.054755847,-0.273779233,black,1,0.054755847,0.16426754,cyan,1,0.05,0.05,0.15,-0.054755847,0.054755847,blue,k,357207,26,2020-08-14_17h20.22.213,CDT_GNG_IUS12,2020.1.2,MacIntel,60,,k,1,0.86195,0,113,113,70,1,,,,,,,,,,,,,,,,,,,,,,,,,,,,,,,,,,,,,,,,,,,,,,,,,
,,,,,,,,,,16,same,4,0.16426754,0.16426754,cyan,1,-0.16426754,-0.273779233,red,1,-0.16426754,0.16426754,black,1,0.273779233,-0.054755847,yellow,1,0.273779233,0.273779233,orange,0,-0.054755847,-0.273779233,blue,0,0.05,0.05,0.15,-0.16426754,-0.273779233,red,k,357207,26,2020-08-14_17h20.22.213,CDT_GNG_IUS12,2020.1.2,MacIntel,60,,l,0,0.75715,0,114,114,15,1,,,,,,,,,,,,,,,,,,,,,,,,,,,,,,,,,,,,,,,,,,,,,,,,,
,,,,,,,,,,44,different,4,0.16426754,0.16426754,green,1,0.16426754,-0.16426754,black,1,-0.16426754,-0.054755847,cyan,1,-0.16426754,0.054755847,magenta,1,0.16426754,0.054755847,blue,0,0.054755847,-0.273779233,yellow,0,0.05,0.05,0.15,0.16426754,0.16426754,red,l,357207,26,2020-08-14_17h20.22.213,CDT_GNG_IUS12,2020.1.2,MacIntel,60,,k,0,0.800655,0,115,115,43,1,,,,,,,,,,,,,,,,,,,,,,,,,,,,,,,,,,,,,,,,,,,,,,,,,
,,,,,,,,,,105,different,6,0.054755847,0.273779233,cyan,1,0.273779233,-0.16426754,magenta,1,-0.16426754,-0.054755847,yellow,1,-0.16426754,0.16426754,blue,1,0.273779233,0.16426754,orange,1,0.16426754,-0.273779233,green,1,0.05,0.05,0.15,0.16426754,-0.273779233,blue,l,357207,26,2020-08-14_17h20.22.213,CDT_GNG_IUS12,2020.1.2,MacIntel,60,,k,0,0.76393,0,116,116,104,1,,,,,,,,,,,,,,,,,,,,,,,,,,,,,,,,,,,,,,,,,,,,,,,,,
,,,,,,,,,,55,different,4,0.273779233,0.054755847,yellow,1,0.054755847,-0.16426754,green,1,-0.273779233,-0.16426754,orange,1,-0.273779233,0.273779233,blue,1,0.273779233,0.273779233,red,0,0.273779233,-0.16426754,cyan,0,0.05,0.05,0.15,0.054755847,-0.16426754,red,l,357207,26,2020-08-14_17h20.22.213,CDT_GNG_IUS12,2020.1.2,MacIntel,60,,l,1,0.593125,0,117,117,54,1,,,,,,,,,,,,,,,,,,,,,,,,,,,,,,,,,,,,,,,,,,,,,,,,,
,,,,,,,,,,1,same,4,-0.16426754,-0.273779233,orange,1,0.054755847,0.16426754,yellow,1,-0.16426754,0.16426754,green,1,0.054755847,-0.054755847,red,1,-0.273779233,-0.16426754,cyan,0,0.16426754,0.16426754,blue,0,0.05,0.05,0.15,0.054755847,0.16426754,yellow,k,357207,26,2020-08-14_17h20.22.213,CDT_GNG_IUS12,2020.1.2,MacIntel,60,,k,1,0.7658,0,118,118,0,1,,,,,,,,,,,,,,,,,,,,,,,,,,,,,,,,,,,,,,,,,,,,,,,,,
,,,,,,,,,,34,different,4,0.16426754,0.16426754,yellow,1,0.273779233,-0.16426754,cyan,1,-0.273779233,-0.273779233,magenta,1,-0.273779233,0.16426754,green,1,0.054755847,0.054755847,black,0,0.273779233,-0.273779233,orange,0,0.05,0.05,0.15,0.16426754,0.16426754,cyan,l,357207,26,2020-08-14_17h20.22.213,CDT_GNG_IUS12,2020.1.2,MacIntel,60,,k,0,0.71804,0,119,119,33,1,,,,,,,,,,,,,,,,,,,,,,,,,,,,,,,,,,,,,,,,,,,,,,,,,
,,,,,,,,,,,,,,,,,,,,,,,,,,,,,,,,,,,,,,,,,,,,357207,26,2020-08-14_17h20.22.213,CDT_GNG_IUS12,2020.1.2,MacIntel,60,,,,,,,,,,,,1,0,0,0,2,1,1,0,,,,,,,,,,,,,,,,,,,,,,,,,,,,,,,,,,,,,,,
,,,,,,,,,,,,,,,,,,,,,,,,,,,,,,,,,,,,,,,,,,,space,357207,26,2020-08-14_17h20.22.213,CDT_GNG_IUS12,2020.1.2,MacIntel,60,,,,,,,,,,,space,1,0,1,1,4,1,0,1,0.128985,,,,,,,,,,,,,,,,,,,,,,,,,,,,,,,,,,,,,,
,,,,,,,,,,,,,,,,,,,,,,,,,,,,,,,,,,,,,,,,,,,,357207,26,2020-08-14_17h20.22.213,CDT_GNG_IUS12,2020.1.2,MacIntel,60,,,,,,,,,,,,1,0,2,2,0,1,1,0,,,,,,,,,,,,,,,,,,,,,,,,,,,,,,,,,,,,,,,
,,,,,,,,,,,,,,,,,,,,,,,,,,,,,,,,,,,,,,,,,,,,357207,26,2020-08-14_17h20.22.213,CDT_GNG_IUS12,2020.1.2,MacIntel,60,,,,,,,,,,,,1,0,3,3,1,1,1,0,,,,,,,,,,,,,,,,,,,,,,,,,,,,,,,,,,,,,,,
,,,,,,,,,,,,,,,,,,,,,,,,,,,,,,,,,,,,,,,,,,,space,357207,26,2020-08-14_17h20.22.213,CDT_GNG_IUS12,2020.1.2,MacIntel,60,,,,,,,,,,,space,1,0,4,4,7,1,0,1,0.39946,,,,,,,,,,,,,,,,,,,,,,,,,,,,,,,,,,,,,,
,,,,,,,,,,,,,,,,,,,,,,,,,,,,,,,,,,,,,,,,,,,space,357207,26,2020-08-14_17h20.22.213,CDT_GNG_IUS12,2020.1.2,MacIntel,60,,,,,,,,,,,,0,0,5,5,6,1,0,1,,,,,,,,,,,,,,,,,,,,,,,,,,,,,,,,,,,,,,,
,,,,,,,,,,,,,,,,,,,,,,,,,,,,,,,,,,,,,,,,,,,space,357207,26,2020-08-14_17h20.22.213,CDT_GNG_IUS12,2020.1.2,MacIntel,60,,,,,,,,,,,space,1,0,6,6,5,1,0,1,0.356695,,,,,,,,,,,,,,,,,,,,,,,,,,,,,,,,,,,,,,
,,,,,,,,,,,,,,,,,,,,,,,,,,,,,,,,,,,,,,,,,,,,357207,26,2020-08-14_17h20.22.213,CDT_GNG_IUS12,2020.1.2,MacIntel,60,,,,,,,,,,,,1,0,7,7,3,1,1,0,,,,,,,,,,,,,,,,,,,,,,,,,,,,,,,,,,,,,,,
,,,,,,,,,,,,,,,,,,,,,,,,,,,,,,,,,,,,,,,,,,,space,357207,26,2020-08-14_17h20.22.213,CDT_GNG_IUS12,2020.1.2,MacIntel,60,,,,,,,,,,,,,,,,,,0,1,,space,1,0.359305,0,0,0,17,1,,,,,,,,,,,,,,,,,,,,,,,,,,,,,,
,,,,,,,,,,,,,,,,,,,,,,,,,,,,,,,,,,,,,,,,,,,space,357207,26,2020-08-14_17h20.22.213,CDT_GNG_IUS12,2020.1.2,MacIntel,60,,,,,,,,,,,,,,,,,,0,1,,,0,,0,1,1,48,1,,,,,,,,,,,,,,,,,,,,,,,,,,,,,,
,,,,,,,,,,,,,,,,,,,,,,,,,,,,,,,,,,,,,,,,,,,,357207,26,2020-08-14_17h20.22.213,CDT_GNG_IUS12,2020.1.2,MacIntel,60,,,,,,,,,,,,,,,,,,1,0,,,1,,0,2,2,8,1,,,,,,,,,,,,,,,,,,,,,,,,,,,,,,
,,,,,,,,,,,,,,,,,,,,,,,,,,,,,,,,,,,,,,,,,,,space,357207,26,2020-08-14_17h20.22.213,CDT_GNG_IUS12,2020.1.2,MacIntel,60,,,,,,,,,,,,,,,,,,0,1,,space,1,0.271115,0,3,3,38,1,,,,,,,,,,,,,,,,,,,,,,,,,,,,,,
,,,,,,,,,,,,,,,,,,,,,,,,,,,,,,,,,,,,,,,,,,,space,357207,26,2020-08-14_17h20.22.213,CDT_GNG_IUS12,2020.1.2,MacIntel,60,,,,,,,,,,,,,,,,,,0,1,,space,1,0.34034,0,4,4,41,1,,,,,,,,,,,,,,,,,,,,,,,,,,,,,,
,,,,,,,,,,,,,,,,,,,,,,,,,,,,,,,,,,,,,,,,,,,space,357207,26,2020-08-14_17h20.22.213,CDT_GNG_IUS12,2020.1.2,MacIntel,60,,,,,,,,,,,,,,,,,,0,1,,space,1,0.45758,0,5,5,21,1,,,,,,,,,,,,,,,,,,,,,,,,,,,,,,
,,,,,,,,,,,,,,,,,,,,,,,,,,,,,,,,,,,,,,,,,,,space,357207,26,2020-08-14_17h20.22.213,CDT_GNG_IUS12,2020.1.2,MacIntel,60,,,,,,,,,,,,,,,,,,0,1,,space,1,0.557095,0,6,6,29,1,,,,,,,,,,,,,,,,,,,,,,,,,,,,,,
,,,,,,,,,,,,,,,,,,,,,,,,,,,,,,,,,,,,,,,,,,,space,357207,26,2020-08-14_17h20.22.213,CDT_GNG_IUS12,2020.1.2,MacIntel,60,,,,,,,,,,,,,,,,,,0,1,,,0,,0,7,7,43,1,,,,,,,,,,,,,,,,,,,,,,,,,,,,,,
,,,,,,,,,,,,,,,,,,,,,,,,,,,,,,,,,,,,,,,,,,,space,357207,26,2020-08-14_17h20.22.213,CDT_GNG_IUS12,2020.1.2,MacIntel,60,,,,,,,,,,,,,,,,,,0,1,,space,1,0.31719,0,8,8,14,1,,,,,,,,,,,,,,,,,,,,,,,,,,,,,,
,,,,,,,,,,,,,,,,,,,,,,,,,,,,,,,,,,,,,,,,,,,,357207,26,2020-08-14_17h20.22.213,CDT_GNG_IUS12,2020.1.2,MacIntel,60,,,,,,,,,,,,,,,,,,1,0,,,1,,0,9,9,3,1,,,,,,,,,,,,,,,,,,,,,,,,,,,,,,
,,,,,,,,,,,,,,,,,,,,,,,,,,,,,,,,,,,,,,,,,,,space,357207,26,2020-08-14_17h20.22.213,CDT_GNG_IUS12,2020.1.2,MacIntel,60,,,,,,,,,,,,,,,,,,0,1,,space,1,0.258545,0,10,10,34,1,,,,,,,,,,,,,,,,,,,,,,,,,,,,,,
,,,,,,,,,,,,,,,,,,,,,,,,,,,,,,,,,,,,,,,,,,,space,357207,26,2020-08-14_17h20.22.213,CDT_GNG_IUS12,2020.1.2,MacIntel,60,,,,,,,,,,,,,,,,,,0,1,,space,1,0.37661,0,11,11,30,1,,,,,,,,,,,,,,,,,,,,,,,,,,,,,,
,,,,,,,,,,,,,,,,,,,,,,,,,,,,,,,,,,,,,,,,,,,space,357207,26,2020-08-14_17h20.22.213,CDT_GNG_IUS12,2020.1.2,MacIntel,60,,,,,,,,,,,,,,,,,,0,1,,space,1,0.34457,0,12,12,31,1,,,,,,,,,,,,,,,,,,,,,,,,,,,,,,
,,,,,,,,,,,,,,,,,,,,,,,,,,,,,,,,,,,,,,,,,,,space,357207,26,2020-08-14_17h20.22.213,CDT_GNG_IUS12,2020.1.2,MacIntel,60,,,,,,,,,,,,,,,,,,0,1,,space,1,0.368005,0,13,13,39,1,,,,,,,,,,,,,,,,,,,,,,,,,,,,,,
,,,,,,,,,,,,,,,,,,,,,,,,,,,,,,,,,,,,,,,,,,,space,357207,26,2020-08-14_17h20.22.213,CDT_GNG_IUS12,2020.1.2,MacIntel,60,,,,,,,,,,,,,,,,,,0,1,,space,1,0.42961,0,14,14,35,1,,,,,,,,,,,,,,,,,,,,,,,,,,,,,,
,,,,,,,,,,,,,,,,,,,,,,,,,,,,,,,,,,,,,,,,,,,,357207,26,2020-08-14_17h20.22.213,CDT_GNG_IUS12,2020.1.2,MacIntel,60,,,,,,,,,,,,,,,,,,1,0,,,1,,0,15,15,9,1,,,,,,,,,,,,,,,,,,,,,,,,,,,,,,
,,,,,,,,,,,,,,,,,,,,,,,,,,,,,,,,,,,,,,,,,,,space,357207,26,2020-08-14_17h20.22.213,CDT_GNG_IUS12,2020.1.2,MacIntel,60,,,,,,,,,,,,,,,,,,0,1,,space,1,0.26102,0,16,16,47,1,,,,,,,,,,,,,,,,,,,,,,,,,,,,,,
,,,,,,,,,,,,,,,,,,,,,,,,,,,,,,,,,,,,,,,,,,,space,357207,26,2020-08-14_17h20.22.213,CDT_GNG_IUS12,2020.1.2,MacIntel,60,,,,,,,,,,,,,,,,,,0,1,,space,1,0.290055,0,17,17,45,1,,,,,,,,,,,,,,,,,,,,,,,,,,,,,,
,,,,,,,,,,,,,,,,,,,,,,,,,,,,,,,,,,,,,,,,,,,space,357207,26,2020-08-14_17h20.22.213,CDT_GNG_IUS12,2020.1.2,MacIntel,60,,,,,,,,,,,,,,,,,,0,1,,space,1,0.299115,0,18,18,26,1,,,,,,,,,,,,,,,,,,,,,,,,,,,,,,
,,,,,,,,,,,,,,,,,,,,,,,,,,,,,,,,,,,,,,,,,,,space,357207,26,2020-08-14_17h20.22.213,CDT_GNG_IUS12,2020.1.2,MacIntel,60,,,,,,,,,,,,,,,,,,0,1,,space,1,0.296225,0,19,19,19,1,,,,,,,,,,,,,,,,,,,,,,,,,,,,,,
,,,,,,,,,,,,,,,,,,,,,,,,,,,,,,,,,,,,,,,,,,,,357207,26,2020-08-14_17h20.22.213,CDT_GNG_IUS12,2020.1.2,MacIntel,60,,,,,,,,,,,,,,,,,,1,0,,,1,,0,20,20,5,1,,,,,,,,,,,,,,,,,,,,,,,,,,,,,,
,,,,,,,,,,,,,,,,,,,,,,,,,,,,,,,,,,,,,,,,,,,,357207,26,2020-08-14_17h20.22.213,CDT_GNG_IUS12,2020.1.2,MacIntel,60,,,,,,,,,,,,,,,,,,1,0,,,1,,0,21,21,4,1,,,,,,,,,,,,,,,,,,,,,,,,,,,,,,
,,,,,,,,,,,,,,,,,,,,,,,,,,,,,,,,,,,,,,,,,,,space,357207,26,2020-08-14_17h20.22.213,CDT_GNG_IUS12,2020.1.2,MacIntel,60,,,,,,,,,,,,,,,,,,0,1,,space,1,0.29177,0,22,22,37,1,,,,,,,,,,,,,,,,,,,,,,,,,,,,,,
,,,,,,,,,,,,,,,,,,,,,,,,,,,,,,,,,,,,,,,,,,,,357207,26,2020-08-14_17h20.22.213,CDT_GNG_IUS12,2020.1.2,MacIntel,60,,,,,,,,,,,,,,,,,,1,0,,,1,,0,23,23,7,1,,,,,,,,,,,,,,,,,,,,,,,,,,,,,,
,,,,,,,,,,,,,,,,,,,,,,,,,,,,,,,,,,,,,,,,,,,space,357207,26,2020-08-14_17h20.22.213,CDT_GNG_IUS12,2020.1.2,MacIntel,60,,,,,,,,,,,,,,,,,,0,1,,space,1,0.264975,0,24,24,18,1,,,,,,,,,,,,,,,,,,,,,,,,,,,,,,
,,,,,,,,,,,,,,,,,,,,,,,,,,,,,,,,,,,,,,,,,,,space,357207,26,2020-08-14_17h20.22.213,CDT_GNG_IUS12,2020.1.2,MacIntel,60,,,,,,,,,,,,,,,,,,0,1,,space,1,0.367535,0,25,25,23,1,,,,,,,,,,,,,,,,,,,,,,,,,,,,,,
,,,,,,,,,,,,,,,,,,,,,,,,,,,,,,,,,,,,,,,,,,,space,357207,26,2020-08-14_17h20.22.213,CDT_GNG_IUS12,2020.1.2,MacIntel,60,,,,,,,,,,,,,,,,,,0,1,,space,1,0.2924,0,26,26,13,1,,,,,,,,,,,,,,,,,,,,,,,,,,,,,,
,,,,,,,,,,,,,,,,,,,,,,,,,,,,,,,,,,,,,,,,,,,space,357207,26,2020-08-14_17h20.22.213,CDT_GNG_IUS12,2020.1.2,MacIntel,60,,,,,,,,,,,,,,,,,,0,1,,space,1,0.292935,0,27,27,42,1,,,,,,,,,,,,,,,,,,,,,,,,,,,,,,
,,,,,,,,,,,,,,,,,,,,,,,,,,,,,,,,,,,,,,,,,,,space,357207,26,2020-08-14_17h20.22.213,CDT_GNG_IUS12,2020.1.2,MacIntel,60,,,,,,,,,,,,,,,,,,0,1,,space,1,0.297115,0,28,28,22,1,,,,,,,,,,,,,,,,,,,,,,,,,,,,,,
,,,,,,,,,,,,,,,,,,,,,,,,,,,,,,,,,,,,,,,,,,,space,357207,26,2020-08-14_17h20.22.213,CDT_GNG_IUS12,2020.1.2,MacIntel,60,,,,,,,,,,,,,,,,,,0,1,,space,1,0.38669,0,29,29,25,1,,,,,,,,,,,,,,,,,,,,,,,,,,,,,,
,,,,,,,,,,,,,,,,,,,,,,,,,,,,,,,,,,,,,,,,,,,space,357207,26,2020-08-14_17h20.22.213,CDT_GNG_IUS12,2020.1.2,MacIntel,60,,,,,,,,,,,,,,,,,,0,1,,space,1,0.455655,0,30,30,40,1,,,,,,,,,,,,,,,,,,,,,,,,,,,,,,
,,,,,,,,,,,,,,,,,,,,,,,,,,,,,,,,,,,,,,,,,,,,357207,26,2020-08-14_17h20.22.213,CDT_GNG_IUS12,2020.1.2,MacIntel,60,,,,,,,,,,,,,,,,,,1,0,,,1,,0,31,31,0,1,,,,,,,,,,,,,,,,,,,,,,,,,,,,,,
,,,,,,,,,,,,,,,,,,,,,,,,,,,,,,,,,,,,,,,,,,,space,357207,26,2020-08-14_17h20.22.213,CDT_GNG_IUS12,2020.1.2,MacIntel,60,,,,,,,,,,,,,,,,,,0,1,,space,1,0.401205,0,32,32,11,1,,,,,,,,,,,,,,,,,,,,,,,,,,,,,,
,,,,,,,,,,,,,,,,,,,,,,,,,,,,,,,,,,,,,,,,,,,space,357207,26,2020-08-14_17h20.22.213,CDT_GNG_IUS12,2020.1.2,MacIntel,60,,,,,,,,,,,,,,,,,,0,1,,space,1,0.423245,0,33,33,36,1,,,,,,,,,,,,,,,,,,,,,,,,,,,,,,
,,,,,,,,,,,,,,,,,,,,,,,,,,,,,,,,,,,,,,,,,,,space,357207,26,2020-08-14_17h20.22.213,CDT_GNG_IUS12,2020.1.2,MacIntel,60,,,,,,,,,,,,,,,,,,0,1,,space,1,0.34429,0,34,34,12,1,,,,,,,,,,,,,,,,,,,,,,,,,,,,,,
,,,,,,,,,,,,,,,,,,,,,,,,,,,,,,,,,,,,,,,,,,,space,357207,26,2020-08-14_17h20.22.213,CDT_GNG_IUS12,2020.1.2,MacIntel,60,,,,,,,,,,,,,,,,,,0,1,,space,1,0.300915,0,35,35,27,1,,,,,,,,,,,,,,,,,,,,,,,,,,,,,,
,,,,,,,,,,,,,,,,,,,,,,,,,,,,,,,,,,,,,,,,,,,space,357207,26,2020-08-14_17h20.22.213,CDT_GNG_IUS12,2020.1.2,MacIntel,60,,,,,,,,,,,,,,,,,,0,1,,space,1,0.279155,0,36,36,33,1,,,,,,,,,,,,,,,,,,,,,,,,,,,,,,
,,,,,,,,,,,,,,,,,,,,,,,,,,,,,,,,,,,,,,,,,,,space,357207,26,2020-08-14_17h20.22.213,CDT_GNG_IUS12,2020.1.2,MacIntel,60,,,,,,,,,,,,,,,,,,0,1,,space,1,0.34954,0,37,37,15,1,,,,,,,,,,,,,,,,,,,,,,,,,,,,,,
,,,,,,,,,,,,,,,,,,,,,,,,,,,,,,,,,,,,,,,,,,,,357207,26,2020-08-14_17h20.22.213,CDT_GNG_IUS12,2020.1.2,MacIntel,60,,,,,,,,,,,,,,,,,,1,0,,,1,,0,38,38,2,1,,,,,,,,,,,,,,,,,,,,,,,,,,,,,,
,,,,,,,,,,,,,,,,,,,,,,,,,,,,,,,,,,,,,,,,,,,space,357207,26,2020-08-14_17h20.22.213,CDT_GNG_IUS12,2020.1.2,MacIntel,60,,,,,,,,,,,,,,,,,,0,1,,,0,,0,39,39,32,1,,,,,,,,,,,,,,,,,,,,,,,,,,,,,,
,,,,,,,,,,,,,,,,,,,,,,,,,,,,,,,,,,,,,,,,,,,space,357207,26,2020-08-14_17h20.22.213,CDT_GNG_IUS12,2020.1.2,MacIntel,60,,,,,,,,,,,,,,,,,,0,1,,space,1,0.147645,0,40,40,16,1,,,,,,,,,,,,,,,,,,,,,,,,,,,,,,
,,,,,,,,,,,,,,,,,,,,,,,,,,,,,,,,,,,,,,,,,,,space,357207,26,2020-08-14_17h20.22.213,CDT_GNG_IUS12,2020.1.2,MacIntel,60,,,,,,,,,,,,,,,,,,0,1,,space,1,0.27424,0,41,41,28,1,,,,,,,,,,,,,,,,,,,,,,,,,,,,,,
,,,,,,,,,,,,,,,,,,,,,,,,,,,,,,,,,,,,,,,,,,,space,357207,26,2020-08-14_17h20.22.213,CDT_GNG_IUS12,2020.1.2,MacIntel,60,,,,,,,,,,,,,,,,,,0,1,,space,1,0.30567,0,42,42,44,1,,,,,,,,,,,,,,,,,,,,,,,,,,,,,,
,,,,,,,,,,,,,,,,,,,,,,,,,,,,,,,,,,,,,,,,,,,space,357207,26,2020-08-14_17h20.22.213,CDT_GNG_IUS12,2020.1.2,MacIntel,60,,,,,,,,,,,,,,,,,,0,1,,space,1,0.324905,0,43,43,49,1,,,,,,,,,,,,,,,,,,,,,,,,,,,,,,
,,,,,,,,,,,,,,,,,,,,,,,,,,,,,,,,,,,,,,,,,,,,357207,26,2020-08-14_17h20.22.213,CDT_GNG_IUS12,2020.1.2,MacIntel,60,,,,,,,,,,,,,,,,,,1,0,,,1,,0,44,44,6,1,,,,,,,,,,,,,,,,,,,,,,,,,,,,,,
,,,,,,,,,,,,,,,,,,,,,,,,,,,,,,,,,,,,,,,,,,,space,357207,26,2020-08-14_17h20.22.213,CDT_GNG_IUS12,2020.1.2,MacIntel,60,,,,,,,,,,,,,,,,,,0,1,,space,1,0.237555,0,45,45,46,1,,,,,,,,,,,,,,,,,,,,,,,,,,,,,,
,,,,,,,,,,,,,,,,,,,,,,,,,,,,,,,,,,,,,,,,,,,space,357207,26,2020-08-14_17h20.22.213,CDT_GNG_IUS12,2020.1.2,MacIntel,60,,,,,,,,,,,,,,,,,,0,1,,space,1,0.315295,0,46,46,24,1,,,,,,,,,,,,,,,,,,,,,,,,,,,,,,
,,,,,,,,,,,,,,,,,,,,,,,,,,,,,,,,,,,,,,,,,,,,357207,26,2020-08-14_17h20.22.213,CDT_GNG_IUS12,2020.1.2,MacIntel,60,,,,,,,,,,,,,,,,,,1,0,,,1,,0,47,47,1,1,,,,,,,,,,,,,,,,,,,,,,,,,,,,,,
,,,,,,,,,,,,,,,,,,,,,,,,,,,,,,,,,,,,,,,,,,,space,357207,26,2020-08-14_17h20.22.213,CDT_GNG_IUS12,2020.1.2,MacIntel,60,,,,,,,,,,,,,,,,,,0,1,,space,1,0.08762,0,48,48,20,1,,,,,,,,,,,,,,,,,,,,,,,,,,,,,,
,,,,,,,,,,,,,,,,,,,,,,,,,,,,,,,,,,,,,,,,,,,space,357207,26,2020-08-14_17h20.22.213,CDT_GNG_IUS12,2020.1.2,MacIntel,60,,,,,,,,,,,,,,,,,,0,1,,space,1,0.22666,0,49,49,10,1,,,,,,,,,,,,,,,,,,,,,,,,,,,,,,
,,,,,,,,,,,,,,,,,,,,,,,,,,,,,,,,,,,,,,,,,,,,357207,26,2020-08-14_17h20.22.213,CDT_GNG_IUS12,2020.1.2,MacIntel,60,,,,,,,,,,,,,,,,,,1,0,,,1,,,,,,,0,0,0,1,1,,,,,,,,,,,,,,,,,,,,,,,,,
,,,,,,,,,,,,,,,,,,,,,,,,,,,,,,,,,,,,,,,,,,,,357207,26,2020-08-14_17h20.22.213,CDT_GNG_IUS12,2020.1.2,MacIntel,60,,,,,,,,,,,,,,,,,,1,0,,,1,,,,,,,0,1,1,8,1,,,,,,,,,,,,,,,,,,,,,,,,,
,,,,,,,,,,,,,,,,,,,,,,,,,,,,,,,,,,,,,,,,,,,space,357207,26,2020-08-14_17h20.22.213,CDT_GNG_IUS12,2020.1.2,MacIntel,60,,,,,,,,,,,,,,,,,,0,1,,space,1,0.42201,,,,,,0,2,2,13,1,,,,,,,,,,,,,,,,,,,,,,,,,
,,,,,,,,,,,,,,,,,,,,,,,,,,,,,,,,,,,,,,,,,,,space,357207,26,2020-08-14_17h20.22.213,CDT_GNG_IUS12,2020.1.2,MacIntel,60,,,,,,,,,,,,,,,,,,0,1,,space,1,0.35393,,,,,,0,3,3,28,1,,,,,,,,,,,,,,,,,,,,,,,,,
,,,,,,,,,,,,,,,,,,,,,,,,,,,,,,,,,,,,,,,,,,,space,357207,26,2020-08-14_17h20.22.213,CDT_GNG_IUS12,2020.1.2,MacIntel,60,,,,,,,,,,,,,,,,,,0,1,,space,1,0.249515,,,,,,0,4,4,10,1,,,,,,,,,,,,,,,,,,,,,,,,,
,,,,,,,,,,,,,,,,,,,,,,,,,,,,,,,,,,,,,,,,,,,space,357207,26,2020-08-14_17h20.22.213,CDT_GNG_IUS12,2020.1.2,MacIntel,60,,,,,,,,,,,,,,,,,,0,1,,space,1,0.24307,,,,,,0,5,5,14,1,,,,,,,,,,,,,,,,,,,,,,,,,
,,,,,,,,,,,,,,,,,,,,,,,,,,,,,,,,,,,,,,,,,,,space,357207,26,2020-08-14_17h20.22.213,CDT_GNG_IUS12,2020.1.2,MacIntel,60,,,,,,,,,,,,,,,,,,0,1,,space,1,0.3051,,,,,,0,6,6,20,1,,,,,,,,,,,,,,,,,,,,,,,,,
,,,,,,,,,,,,,,,,,,,,,,,,,,,,,,,,,,,,,,,,,,,space,357207,26,2020-08-14_17h20.22.213,CDT_GNG_IUS12,2020.1.2,MacIntel,60,,,,,,,,,,,,,,,,,,0,1,,space,1,0.326085,,,,,,0,7,7,26,1,,,,,,,,,,,,,,,,,,,,,,,,,
,,,,,,,,,,,,,,,,,,,,,,,,,,,,,,,,,,,,,,,,,,,,357207,26,2020-08-14_17h20.22.213,CDT_GNG_IUS12,2020.1.2,MacIntel,60,,,,,,,,,,,,,,,,,,1,0,,,1,,,,,,,0,8,8,5,1,,,,,,,,,,,,,,,,,,,,,,,,,
,,,,,,,,,,,,,,,,,,,,,,,,,,,,,,,,,,,,,,,,,,,space,357207,26,2020-08-14_17h20.22.213,CDT_GNG_IUS12,2020.1.2,MacIntel,60,,,,,,,,,,,,,,,,,,0,1,,space,1,0.36543,,,,,,0,9,9,27,1,,,,,,,,,,,,,,,,,,,,,,,,,
,,,,,,,,,,,,,,,,,,,,,,,,,,,,,,,,,,,,,,,,,,,space,357207,26,2020-08-14_17h20.22.213,CDT_GNG_IUS12,2020.1.2,MacIntel,60,,,,,,,,,,,,,,,,,,0,1,,space,1,0.3626,,,,,,0,10,10,46,1,,,,,,,,,,,,,,,,,,,,,,,,,
,,,,,,,,,,,,,,,,,,,,,,,,,,,,,,,,,,,,,,,,,,,space,357207,26,2020-08-14_17h20.22.213,CDT_GNG_IUS12,2020.1.2,MacIntel,60,,,,,,,,,,,,,,,,,,0,1,,space,1,0.258555,,,,,,0,11,11,40,1,,,,,,,,,,,,,,,,,,,,,,,,,
,,,,,,,,,,,,,,,,,,,,,,,,,,,,,,,,,,,,,,,,,,,space,357207,26,2020-08-14_17h20.22.213,CDT_GNG_IUS12,2020.1.2,MacIntel,60,,,,,,,,,,,,,,,,,,0,1,,space,1,0.287105,,,,,,0,12,12,12,1,,,,,,,,,,,,,,,,,,,,,,,,,
,,,,,,,,,,,,,,,,,,,,,,,,,,,,,,,,,,,,,,,,,,,space,357207,26,2020-08-14_17h20.22.213,CDT_GNG_IUS12,2020.1.2,MacIntel,60,,,,,,,,,,,,,,,,,,0,1,,space,1,0.31005,,,,,,0,13,13,15,1,,,,,,,,,,,,,,,,,,,,,,,,,
,,,,,,,,,,,,,,,,,,,,,,,,,,,,,,,,,,,,,,,,,,,space,357207,26,2020-08-14_17h20.22.213,CDT_GNG_IUS12,2020.1.2,MacIntel,60,,,,,,,,,,,,,,,,,,0,1,,space,1,0.247785,,,,,,0,14,14,31,1,,,,,,,,,,,,,,,,,,,,,,,,,
,,,,,,,,,,,,,,,,,,,,,,,,,,,,,,,,,,,,,,,,,,,space,357207,26,2020-08-14_17h20.22.213,CDT_GNG_IUS12,2020.1.2,MacIntel,60,,,,,,,,,,,,,,,,,,0,1,,space,1,0.27284,,,,,,0,15,15,37,1,,,,,,,,,,,,,,,,,,,,,,,,,
,,,,,,,,,,,,,,,,,,,,,,,,,,,,,,,,,,,,,,,,,,,space,357207,26,2020-08-14_17h20.22.213,CDT_GNG_IUS12,2020.1.2,MacIntel,60,,,,,,,,,,,,,,,,,,0,1,,space,1,0.23806,,,,,,0,16,16,45,1,,,,,,,,,,,,,,,,,,,,,,,,,
,,,,,,,,,,,,,,,,,,,,,,,,,,,,,,,,,,,,,,,,,,,space,357207,26,2020-08-14_17h20.22.213,CDT_GNG_IUS12,2020.1.2,MacIntel,60,,,,,,,,,,,,,,,,,,0,1,,space,1,0.21684,,,,,,0,17,17,44,1,,,,,,,,,,,,,,,,,,,,,,,,,
,,,,,,,,,,,,,,,,,,,,,,,,,,,,,,,,,,,,,,,,,,,space,357207,26,2020-08-14_17h20.22.213,CDT_GNG_IUS12,2020.1.2,MacIntel,60,,,,,,,,,,,,,,,,,,0,1,,space,1,0.328945,,,,,,0,18,18,23,1,,,,,,,,,,,,,,,,,,,,,,,,,
,,,,,,,,,,,,,,,,,,,,,,,,,,,,,,,,,,,,,,,,,,,space,357207,26,2020-08-14_17h20.22.213,CDT_GNG_IUS12,2020.1.2,MacIntel,60,,,,,,,,,,,,,,,,,,0,1,,space,1,0.34473,,,,,,0,19,19,42,1,,,,,,,,,,,,,,,,,,,,,,,,,
,,,,,,,,,,,,,,,,,,,,,,,,,,,,,,,,,,,,,,,,,,,space,357207,26,2020-08-14_17h20.22.213,CDT_GNG_IUS12,2020.1.2,MacIntel,60,,,,,,,,,,,,,,,,,,0,1,,space,1,0.48016,,,,,,0,20,20,16,1,,,,,,,,,,,,,,,,,,,,,,,,,
,,,,,,,,,,,,,,,,,,,,,,,,,,,,,,,,,,,,,,,,,,,,357207,26,2020-08-14_17h20.22.213,CDT_GNG_IUS12,2020.1.2,MacIntel,60,,,,,,,,,,,,,,,,,,1,0,,,1,,,,,,,0,21,21,2,1,,,,,,,,,,,,,,,,,,,,,,,,,
,,,,,,,,,,,,,,,,,,,,,,,,,,,,,,,,,,,,,,,,,,,space,357207,26,2020-08-14_17h20.22.213,CDT_GNG_IUS12,2020.1.2,MacIntel,60,,,,,,,,,,,,,,,,,,0,1,,space,1,0.482945,,,,,,0,22,22,18,1,,,,,,,,,,,,,,,,,,,,,,,,,
,,,,,,,,,,,,,,,,,,,,,,,,,,,,,,,,,,,,,,,,,,,,357207,26,2020-08-14_17h20.22.213,CDT_GNG_IUS12,2020.1.2,MacIntel,60,,,,,,,,,,,,,,,,,,1,0,,,1,,,,,,,0,23,23,9,1,,,,,,,,,,,,,,,,,,,,,,,,,
,,,,,,,,,,,,,,,,,,,,,,,,,,,,,,,,,,,,,,,,,,,space,357207,26,2020-08-14_17h20.22.213,CDT_GNG_IUS12,2020.1.2,MacIntel,60,,,,,,,,,,,,,,,,,,0,1,,space,1,0.24256,,,,,,0,24,24,24,1,,,,,,,,,,,,,,,,,,,,,,,,,
,,,,,,,,,,,,,,,,,,,,,,,,,,,,,,,,,,,,,,,,,,,space,357207,26,2020-08-14_17h20.22.213,CDT_GNG_IUS12,2020.1.2,MacIntel,60,,,,,,,,,,,,,,,,,,0,1,,space,1,0.43365,,,,,,0,25,25,35,1,,,,,,,,,,,,,,,,,,,,,,,,,
,,,,,,,,,,,,,,,,,,,,,,,,,,,,,,,,,,,,,,,,,,,space,357207,26,2020-08-14_17h20.22.213,CDT_GNG_IUS12,2020.1.2,MacIntel,60,,,,,,,,,,,,,,,,,,0,1,,,0,,,,,,,0,26,26,19,1,,,,,,,,,,,,,,,,,,,,,,,,,
,,,,,,,,,,,,,,,,,,,,,,,,,,,,,,,,,,,,,,,,,,,space,357207,26,2020-08-14_17h20.22.213,CDT_GNG_IUS12,2020.1.2,MacIntel,60,,,,,,,,,,,,,,,,,,0,1,,space,1,0.097925,,,,,,0,27,27,48,1,,,,,,,,,,,,,,,,,,,,,,,,,
,,,,,,,,,,,,,,,,,,,,,,,,,,,,,,,,,,,,,,,,,,,space,357207,26,2020-08-14_17h20.22.213,CDT_GNG_IUS12,2020.1.2,MacIntel,60,,,,,,,,,,,,,,,,,,0,1,,space,1,0.135555,,,,,,0,28,28,11,1,,,,,,,,,,,,,,,,,,,,,,,,,
,,,,,,,,,,,,,,,,,,,,,,,,,,,,,,,,,,,,,,,,,,,space,357207,26,2020-08-14_17h20.22.213,CDT_GNG_IUS12,2020.1.2,MacIntel,60,,,,,,,,,,,,,,,,,,0,1,,space,1,0.19755,,,,,,0,29,29,36,1,,,,,,,,,,,,,,,,,,,,,,,,,
,,,,,,,,,,,,,,,,,,,,,,,,,,,,,,,,,,,,,,,,,,,space,357207,26,2020-08-14_17h20.22.213,CDT_GNG_IUS12,2020.1.2,MacIntel,60,,,,,,,,,,,,,,,,,,0,1,,space,1,0.271235,,,,,,0,30,30,32,1,,,,,,,,,,,,,,,,,,,,,,,,,
,,,,,,,,,,,,,,,,,,,,,,,,,,,,,,,,,,,,,,,,,,,space,357207,26,2020-08-14_17h20.22.213,CDT_GNG_IUS12,2020.1.2,MacIntel,60,,,,,,,,,,,,,,,,,,0,1,,space,1,0.24416,,,,,,0,31,31,34,1,,,,,,,,,,,,,,,,,,,,,,,,,
,,,,,,,,,,,,,,,,,,,,,,,,,,,,,,,,,,,,,,,,,,,space,357207,26,2020-08-14_17h20.22.213,CDT_GNG_IUS12,2020.1.2,MacIntel,60,,,,,,,,,,,,,,,,,,0,1,,space,1,0.262665,,,,,,0,32,32,38,1,,,,,,,,,,,,,,,,,,,,,,,,,
,,,,,,,,,,,,,,,,,,,,,,,,,,,,,,,,,,,,,,,,,,,space,357207,26,2020-08-14_17h20.22.213,CDT_GNG_IUS12,2020.1.2,MacIntel,60,,,,,,,,,,,,,,,,,,0,1,,space,1,0.26339,,,,,,0,33,33,49,1,,,,,,,,,,,,,,,,,,,,,,,,,
,,,,,,,,,,,,,,,,,,,,,,,,,,,,,,,,,,,,,,,,,,,space,357207,26,2020-08-14_17h20.22.213,CDT_GNG_IUS12,2020.1.2,MacIntel,60,,,,,,,,,,,,,,,,,,0,1,,space,1,0.167945,,,,,,0,34,34,39,1,,,,,,,,,,,,,,,,,,,,,,,,,
,,,,,,,,,,,,,,,,,,,,,,,,,,,,,,,,,,,,,,,,,,,space,357207,26,2020-08-14_17h20.22.213,CDT_GNG_IUS12,2020.1.2,MacIntel,60,,,,,,,,,,,,,,,,,,0,1,,space,1,0.193905,,,,,,0,35,35,33,1,,,,,,,,,,,,,,,,,,,,,,,,,
,,,,,,,,,,,,,,,,,,,,,,,,,,,,,,,,,,,,,,,,,,,space,357207,26,2020-08-14_17h20.22.213,CDT_GNG_IUS12,2020.1.2,MacIntel,60,,,,,,,,,,,,,,,,,,0,1,,space,1,0.15217,,,,,,0,36,36,30,1,,,,,,,,,,,,,,,,,,,,,,,,,
,,,,,,,,,,,,,,,,,,,,,,,,,,,,,,,,,,,,,,,,,,,,357207,26,2020-08-14_17h20.22.213,CDT_GNG_IUS12,2020.1.2,MacIntel,60,,,,,,,,,,,,,,,,,,1,0,,space,0,0.302685,,,,,,0,37,37,4,1,,,,,,,,,,,,,,,,,,,,,,,,,
,,,,,,,,,,,,,,,,,,,,,,,,,,,,,,,,,,,,,,,,,,,,357207,26,2020-08-14_17h20.22.213,CDT_GNG_IUS12,2020.1.2,MacIntel,60,,,,,,,,,,,,,,,,,,1,0,,,1,,,,,,,0,38,38,0,1,,,,,,,,,,,,,,,,,,,,,,,,,
,,,,,,,,,,,,,,,,,,,,,,,,,,,,,,,,,,,,,,,,,,,,357207,26,2020-08-14_17h20.22.213,CDT_GNG_IUS12,2020.1.2,MacIntel,60,,,,,,,,,,,,,,,,,,1,0,,,1,,,,,,,0,39,39,7,1,,,,,,,,,,,,,,,,,,,,,,,,,
,,,,,,,,,,,,,,,,,,,,,,,,,,,,,,,,,,,,,,,,,,,,357207,26,2020-08-14_17h20.22.213,CDT_GNG_IUS12,2020.1.2,MacIntel,60,,,,,,,,,,,,,,,,,,1,0,,,1,,,,,,,0,40,40,6,1,,,,,,,,,,,,,,,,,,,,,,,,,
,,,,,,,,,,,,,,,,,,,,,,,,,,,,,,,,,,,,,,,,,,,space,357207,26,2020-08-14_17h20.22.213,CDT_GNG_IUS12,2020.1.2,MacIntel,60,,,,,,,,,,,,,,,,,,0,1,,space,1,0.34831,,,,,,0,41,41,47,1,,,,,,,,,,,,,,,,,,,,,,,,,
,,,,,,,,,,,,,,,,,,,,,,,,,,,,,,,,,,,,,,,,,,,,357207,26,2020-08-14_17h20.22.213,CDT_GNG_IUS12,2020.1.2,MacIntel,60,,,,,,,,,,,,,,,,,,1,0,,,1,,,,,,,0,42,42,3,1,,,,,,,,,,,,,,,,,,,,,,,,,
,,,,,,,,,,,,,,,,,,,,,,,,,,,,,,,,,,,,,,,,,,,space,357207,26,2020-08-14_17h20.22.213,CDT_GNG_IUS12,2020.1.2,MacIntel,60,,,,,,,,,,,,,,,,,,0,1,,space,1,0.32996,,,,,,0,43,43,29,1,,,,,,,,,,,,,,,,,,,,,,,,,
,,,,,,,,,,,,,,,,,,,,,,,,,,,,,,,,,,,,,,,,,,,space,357207,26,2020-08-14_17h20.22.213,CDT_GNG_IUS12,2020.1.2,MacIntel,60,,,,,,,,,,,,,,,,,,0,1,,space,1,0.37547,,,,,,0,44,44,41,1,,,,,,,,,,,,,,,,,,,,,,,,,
,,,,,,,,,,,,,,,,,,,,,,,,,,,,,,,,,,,,,,,,,,,space,357207,26,2020-08-14_17h20.22.213,CDT_GNG_IUS12,2020.1.2,MacIntel,60,,,,,,,,,,,,,,,,,,0,1,,space,1,0.284465,,,,,,0,45,45,17,1,,,,,,,,,,,,,,,,,,,,,,,,,
,,,,,,,,,,,,,,,,,,,,,,,,,,,,,,,,,,,,,,,,,,,space,357207,26,2020-08-14_17h20.22.213,CDT_GNG_IUS12,2020.1.2,MacIntel,60,,,,,,,,,,,,,,,,,,0,1,,space,1,0.183495,,,,,,0,46,46,25,1,,,,,,,,,,,,,,,,,,,,,,,,,
,,,,,,,,,,,,,,,,,,,,,,,,,,,,,,,,,,,,,,,,,,,space,357207,26,2020-08-14_17h20.22.213,CDT_GNG_IUS12,2020.1.2,MacIntel,60,,,,,,,,,,,,,,,,,,0,1,,space,1,0.211155,,,,,,0,47,47,43,1,,,,,,,,,,,,,,,,,,,,,,,,,
,,,,,,,,,,,,,,,,,,,,,,,,,,,,,,,,,,,,,,,,,,,space,357207,26,2020-08-14_17h20.22.213,CDT_GNG_IUS12,2020.1.2,MacIntel,60,,,,,,,,,,,,,,,,,,0,1,,space,1,0.26229,,,,,,0,48,48,22,1,,,,,,,,,,,,,,,,,,,,,,,,,
,,,,,,,,,,,,,,,,,,,,,,,,,,,,,,,,,,,,,,,,,,,space,357207,26,2020-08-14_17h20.22.213,CDT_GNG_IUS12,2020.1.2,MacIntel,60,,,,,,,,,,,,,,,,,,0,1,,space,1,0.26147,,,,,,0,49,49,21,1,,,,,,,,,,,,,,,,,,,,,,,,,
,,,,,,,,,,,,,,,,,,,,,,,,,,,,,,,,,,,,,,,,,,,space,357207,26,2020-08-14_17h20.22.213,CDT_GNG_IUS12,2020.1.2,MacIntel,60,,,,,,,,,,,,,,,,,,0,1,,space,1,0.38448,,,,,,,,,,,0,0,0,47,1,,,,,,,,,,,,,,,,,,,,
,,,,,,,,,,,,,,,,,,,,,,,,,,,,,,,,,,,,,,,,,,,space,357207,26,2020-08-14_17h20.22.213,CDT_GNG_IUS12,2020.1.2,MacIntel,60,,,,,,,,,,,,,,,,,,0,1,,space,1,0.286615,,,,,,,,,,,0,1,1,16,1,,,,,,,,,,,,,,,,,,,,
,,,,,,,,,,,,,,,,,,,,,,,,,,,,,,,,,,,,,,,,,,,space,357207,26,2020-08-14_17h20.22.213,CDT_GNG_IUS12,2020.1.2,MacIntel,60,,,,,,,,,,,,,,,,,,0,1,,space,1,0.20162,,,,,,,,,,,0,2,2,22,1,,,,,,,,,,,,,,,,,,,,
,,,,,,,,,,,,,,,,,,,,,,,,,,,,,,,,,,,,,,,,,,,space,357207,26,2020-08-14_17h20.22.213,CDT_GNG_IUS12,2020.1.2,MacIntel,60,,,,,,,,,,,,,,,,,,0,1,,space,1,0.09282,,,,,,,,,,,0,3,3,26,1,,,,,,,,,,,,,,,,,,,,
,,,,,,,,,,,,,,,,,,,,,,,,,,,,,,,,,,,,,,,,,,,space,357207,26,2020-08-14_17h20.22.213,CDT_GNG_IUS12,2020.1.2,MacIntel,60,,,,,,,,,,,,,,,,,,0,1,,space,1,0.0018,,,,,,,,,,,0,4,4,35,1,,,,,,,,,,,,,,,,,,,,
,,,,,,,,,,,,,,,,,,,,,,,,,,,,,,,,,,,,,,,,,,,space,357207,26,2020-08-14_17h20.22.213,CDT_GNG_IUS12,2020.1.2,MacIntel,60,,,,,,,,,,,,,,,,,,0,1,,space,1,0.519045,,,,,,,,,,,0,5,5,37,1,,,,,,,,,,,,,,,,,,,,
,,,,,,,,,,,,,,,,,,,,,,,,,,,,,,,,,,,,,,,,,,,space,357207,26,2020-08-14_17h20.22.213,CDT_GNG_IUS12,2020.1.2,MacIntel,60,,,,,,,,,,,,,,,,,,0,1,,space,1,0.40046,,,,,,,,,,,0,6,6,28,1,,,,,,,,,,,,,,,,,,,,
,,,,,,,,,,,,,,,,,,,,,,,,,,,,,,,,,,,,,,,,,,,space,357207,26,2020-08-14_17h20.22.213,CDT_GNG_IUS12,2020.1.2,MacIntel,60,,,,,,,,,,,,,,,,,,0,1,,,0,,,,,,,,,,,,0,7,7,12,1,,,,,,,,,,,,,,,,,,,,
,,,,,,,,,,,,,,,,,,,,,,,,,,,,,,,,,,,,,,,,,,,,357207,26,2020-08-14_17h20.22.213,CDT_GNG_IUS12,2020.1.2,MacIntel,60,,,,,,,,,,,,,,,,,,1,0,,space,0,0.078315,,,,,,,,,,,0,8,8,8,1,,,,,,,,,,,,,,,,,,,,
,,,,,,,,,,,,,,,,,,,,,,,,,,,,,,,,,,,,,,,,,,,,357207,26,2020-08-14_17h20.22.213,CDT_GNG_IUS12,2020.1.2,MacIntel,60,,,,,,,,,,,,,,,,,,1,0,,,1,,,,,,,,,,,,0,9,9,2,1,,,,,,,,,,,,,,,,,,,,
,,,,,,,,,,,,,,,,,,,,,,,,,,,,,,,,,,,,,,,,,,,space,357207,26,2020-08-14_17h20.22.213,CDT_GNG_IUS12,2020.1.2,MacIntel,60,,,,,,,,,,,,,,,,,,0,1,,space,1,0.36319,,,,,,,,,,,0,10,10,15,1,,,,,,,,,,,,,,,,,,,,
,,,,,,,,,,,,,,,,,,,,,,,,,,,,,,,,,,,,,,,,,,,space,357207,26,2020-08-14_17h20.22.213,CDT_GNG_IUS12,2020.1.2,MacIntel,60,,,,,,,,,,,,,,,,,,0,1,,space,1,0.332745,,,,,,,,,,,0,11,11,30,1,,,,,,,,,,,,,,,,,,,,
,,,,,,,,,,,,,,,,,,,,,,,,,,,,,,,,,,,,,,,,,,,space,357207,26,2020-08-14_17h20.22.213,CDT_GNG_IUS12,2020.1.2,MacIntel,60,,,,,,,,,,,,,,,,,,0,1,,space,1,0.289575,,,,,,,,,,,0,12,12,31,1,,,,,,,,,,,,,,,,,,,,
,,,,,,,,,,,,,,,,,,,,,,,,,,,,,,,,,,,,,,,,,,,space,357207,26,2020-08-14_17h20.22.213,CDT_GNG_IUS12,2020.1.2,MacIntel,60,,,,,,,,,,,,,,,,,,0,1,,space,1,0.265175,,,,,,,,,,,0,13,13,13,1,,,,,,,,,,,,,,,,,,,,
,,,,,,,,,,,,,,,,,,,,,,,,,,,,,,,,,,,,,,,,,,,,357207,26,2020-08-14_17h20.22.213,CDT_GNG_IUS12,2020.1.2,MacIntel,60,,,,,,,,,,,,,,,,,,1,0,,space,0,0.167525,,,,,,,,,,,0,14,14,1,1,,,,,,,,,,,,,,,,,,,,
,,,,,,,,,,,,,,,,,,,,,,,,,,,,,,,,,,,,,,,,,,,space,357207,26,2020-08-14_17h20.22.213,CDT_GNG_IUS12,2020.1.2,MacIntel,60,,,,,,,,,,,,,,,,,,0,1,,,0,,,,,,,,,,,,0,15,15,48,1,,,,,,,,,,,,,,,,,,,,
,,,,,,,,,,,,,,,,,,,,,,,,,,,,,,,,,,,,,,,,,,,space,357207,26,2020-08-14_17h20.22.213,CDT_GNG_IUS12,2020.1.2,MacIntel,60,,,,,,,,,,,,,,,,,,0,1,,space,1,0.002025,,,,,,,,,,,0,16,16,29,1,,,,,,,,,,,,,,,,,,,,
,,,,,,,,,,,,,,,,,,,,,,,,,,,,,,,,,,,,,,,,,,,,357207,26,2020-08-14_17h20.22.213,CDT_GNG_IUS12,2020.1.2,MacIntel,60,,,,,,,,,,,,,,,,,,1,0,,,1,,,,,,,,,,,,0,17,17,3,1,,,,,,,,,,,,,,,,,,,,
,,,,,,,,,,,,,,,,,,,,,,,,,,,,,,,,,,,,,,,,,,,space,357207,26,2020-08-14_17h20.22.213,CDT_GNG_IUS12,2020.1.2,MacIntel,60,,,,,,,,,,,,,,,,,,0,1,,space,1,0.368655,,,,,,,,,,,0,18,18,21,1,,,,,,,,,,,,,,,,,,,,
,,,,,,,,,,,,,,,,,,,,,,,,,,,,,,,,,,,,,,,,,,,space,357207,26,2020-08-14_17h20.22.213,CDT_GNG_IUS12,2020.1.2,MacIntel,60,,,,,,,,,,,,,,,,,,0,1,,space,1,0.458645,,,,,,,,,,,0,19,19,45,1,,,,,,,,,,,,,,,,,,,,
,,,,,,,,,,,,,,,,,,,,,,,,,,,,,,,,,,,,,,,,,,,,357207,26,2020-08-14_17h20.22.213,CDT_GNG_IUS12,2020.1.2,MacIntel,60,,,,,,,,,,,,,,,,,,1,0,,,1,,,,,,,,,,,,0,20,20,0,1,,,,,,,,,,,,,,,,,,,,
,,,,,,,,,,,,,,,,,,,,,,,,,,,,,,,,,,,,,,,,,,,space,357207,26,2020-08-14_17h20.22.213,CDT_GNG_IUS12,2020.1.2,MacIntel,60,,,,,,,,,,,,,,,,,,0,1,,space,1,0.35967,,,,,,,,,,,0,21,21,25,1,,,,,,,,,,,,,,,,,,,,
,,,,,,,,,,,,,,,,,,,,,,,,,,,,,,,,,,,,,,,,,,,space,357207,26,2020-08-14_17h20.22.213,CDT_GNG_IUS12,2020.1.2,MacIntel,60,,,,,,,,,,,,,,,,,,0,1,,space,1,0.420995,,,,,,,,,,,0,22,22,41,1,,,,,,,,,,,,,,,,,,,,
,,,,,,,,,,,,,,,,,,,,,,,,,,,,,,,,,,,,,,,,,,,space,357207,26,2020-08-14_17h20.22.213,CDT_GNG_IUS12,2020.1.2,MacIntel,60,,,,,,,,,,,,,,,,,,0,1,,,0,,,,,,,,,,,,0,23,23,23,1,,,,,,,,,,,,,,,,,,,,
,,,,,,,,,,,,,,,,,,,,,,,,,,,,,,,,,,,,,,,,,,,space,357207,26,2020-08-14_17h20.22.213,CDT_GNG_IUS12,2020.1.2,MacIntel,60,,,,,,,,,,,,,,,,,,0,1,,space,1,0.00213,,,,,,,,,,,0,24,24,32,1,,,,,,,,,,,,,,,,,,,,
,,,,,,,,,,,,,,,,,,,,,,,,,,,,,,,,,,,,,,,,,,,space,357207,26,2020-08-14_17h20.22.213,CDT_GNG_IUS12,2020.1.2,MacIntel,60,,,,,,,,,,,,,,,,,,0,1,,space,1,0.125375,,,,,,,,,,,0,25,25,39,1,,,,,,,,,,,,,,,,,,,,
,,,,,,,,,,,,,,,,,,,,,,,,,,,,,,,,,,,,,,,,,,,space,357207,26,2020-08-14_17h20.22.213,CDT_GNG_IUS12,2020.1.2,MacIntel,60,,,,,,,,,,,,,,,,,,0,1,,space,1,0.305835,,,,,,,,,,,0,26,26,17,1,,,,,,,,,,,,,,,,,,,,
,,,,,,,,,,,,,,,,,,,,,,,,,,,,,,,,,,,,,,,,,,,space,357207,26,2020-08-14_17h20.22.213,CDT_GNG_IUS12,2020.1.2,MacIntel,60,,,,,,,,,,,,,,,,,,0,1,,space,1,0.277995,,,,,,,,,,,0,27,27,27,1,,,,,,,,,,,,,,,,,,,,
,,,,,,,,,,,,,,,,,,,,,,,,,,,,,,,,,,,,,,,,,,,,357207,26,2020-08-14_17h20.22.213,CDT_GNG_IUS12,2020.1.2,MacIntel,60,,,,,,,,,,,,,,,,,,1,0,,space,0,0.293025,,,,,,,,,,,0,28,28,4,1,,,,,,,,,,,,,,,,,,,,
,,,,,,,,,,,,,,,,,,,,,,,,,,,,,,,,,,,,,,,,,,,space,357207,26,2020-08-14_17h20.22.213,CDT_GNG_IUS12,2020.1.2,MacIntel,60,,,,,,,,,,,,,,,,,,0,1,,,0,,,,,,,,,,,,0,29,29,24,1,,,,,,,,,,,,,,,,,,,,
,,,,,,,,,,,,,,,,,,,,,,,,,,,,,,,,,,,,,,,,,,,space,357207,26,2020-08-14_17h20.22.213,CDT_GNG_IUS12,2020.1.2,MacIntel,60,,,,,,,,,,,,,,,,,,0,1,,space,1,0.044535,,,,,,,,,,,0,30,30,20,1,,,,,,,,,,,,,,,,,,,,
,,,,,,,,,,,,,,,,,,,,,,,,,,,,,,,,,,,,,,,,,,,space,357207,26,2020-08-14_17h20.22.213,CDT_GNG_IUS12,2020.1.2,MacIntel,60,,,,,,,,,,,,,,,,,,0,1,,space,1,0.10555,,,,,,,,,,,0,31,31,33,1,,,,,,,,,,,,,,,,,,,,
,,,,,,,,,,,,,,,,,,,,,,,,,,,,,,,,,,,,,,,,,,,space,357207,26,2020-08-14_17h20.22.213,CDT_GNG_IUS12,2020.1.2,MacIntel,60,,,,,,,,,,,,,,,,,,0,1,,space,1,0.07938,,,,,,,,,,,0,32,32,44,1,,,,,,,,,,,,,,,,,,,,
,,,,,,,,,,,,,,,,,,,,,,,,,,,,,,,,,,,,,,,,,,,space,357207,26,2020-08-14_17h20.22.213,CDT_GNG_IUS12,2020.1.2,MacIntel,60,,,,,,,,,,,,,,,,,,0,1,,space,1,0.291195,,,,,,,,,,,0,33,33,19,1,,,,,,,,,,,,,,,,,,,,
,,,,,,,,,,,,,,,,,,,,,,,,,,,,,,,,,,,,,,,,,,,space,357207,26,2020-08-14_17h20.22.213,CDT_GNG_IUS12,2020.1.2,MacIntel,60,,,,,,,,,,,,,,,,,,0,1,,space,1,0.31789,,,,,,,,,,,0,34,34,49,1,,,,,,,,,,,,,,,,,,,,
,,,,,,,,,,,,,,,,,,,,,,,,,,,,,,,,,,,,,,,,,,,,357207,26,2020-08-14_17h20.22.213,CDT_GNG_IUS12,2020.1.2,MacIntel,60,,,,,,,,,,,,,,,,,,1,0,,,1,,,,,,,,,,,,0,35,35,5,1,,,,,,,,,,,,,,,,,,,,
,,,,,,,,,,,,,,,,,,,,,,,,,,,,,,,,,,,,,,,,,,,space,357207,26,2020-08-14_17h20.22.213,CDT_GNG_IUS12,2020.1.2,MacIntel,60,,,,,,,,,,,,,,,,,,0,1,,space,1,0.28666,,,,,,,,,,,0,36,36,34,1,,,,,,,,,,,,,,,,,,,,
,,,,,,,,,,,,,,,,,,,,,,,,,,,,,,,,,,,,,,,,,,,space,357207,26,2020-08-14_17h20.22.213,CDT_GNG_IUS12,2020.1.2,MacIntel,60,,,,,,,,,,,,,,,,,,0,1,,space,1,0.34267,,,,,,,,,,,0,37,37,42,1,,,,,,,,,,,,,,,,,,,,
,,,,,,,,,,,,,,,,,,,,,,,,,,,,,,,,,,,,,,,,,,,space,357207,26,2020-08-14_17h20.22.213,CDT_GNG_IUS12,2020.1.2,MacIntel,60,,,,,,,,,,,,,,,,,,0,1,,space,1,0.324745,,,,,,,,,,,0,38,38,14,1,,,,,,,,,,,,,,,,,,,,
,,,,,,,,,,,,,,,,,,,,,,,,,,,,,,,,,,,,,,,,,,,space,357207,26,2020-08-14_17h20.22.213,CDT_GNG_IUS12,2020.1.2,MacIntel,60,,,,,,,,,,,,,,,,,,0,1,,space,1,0.332915,,,,,,,,,,,0,39,39,36,1,,,,,,,,,,,,,,,,,,,,
,,,,,,,,,,,,,,,,,,,,,,,,,,,,,,,,,,,,,,,,,,,space,357207,26,2020-08-14_17h20.22.213,CDT_GNG_IUS12,2020.1.2,MacIntel,60,,,,,,,,,,,,,,,,,,0,1,,space,1,0.343405,,,,,,,,,,,0,40,40,43,1,,,,,,,,,,,,,,,,,,,,
,,,,,,,,,,,,,,,,,,,,,,,,,,,,,,,,,,,,,,,,,,,space,357207,26,2020-08-14_17h20.22.213,CDT_GNG_IUS12,2020.1.2,MacIntel,60,,,,,,,,,,,,,,,,,,0,1,,space,1,0.301105,,,,,,,,,,,0,41,41,40,1,,,,,,,,,,,,,,,,,,,,
,,,,,,,,,,,,,,,,,,,,,,,,,,,,,,,,,,,,,,,,,,,,357207,26,2020-08-14_17h20.22.213,CDT_GNG_IUS12,2020.1.2,MacIntel,60,,,,,,,,,,,,,,,,,,1,0,,,1,,,,,,,,,,,,0,42,42,9,1,,,,,,,,,,,,,,,,,,,,
,,,,,,,,,,,,,,,,,,,,,,,,,,,,,,,,,,,,,,,,,,,space,357207,26,2020-08-14_17h20.22.213,CDT_GNG_IUS12,2020.1.2,MacIntel,60,,,,,,,,,,,,,,,,,,0,1,,space,1,0.44896,,,,,,,,,,,0,43,43,18,1,,,,,,,,,,,,,,,,,,,,
,,,,,,,,,,,,,,,,,,,,,,,,,,,,,,,,,,,,,,,,,,,space,357207,26,2020-08-14_17h20.22.213,CDT_GNG_IUS12,2020.1.2,MacIntel,60,,,,,,,,,,,,,,,,,,0,1,,space,1,0.36267,,,,,,,,,,,0,44,44,10,1,,,,,,,,,,,,,,,,,,,,
,,,,,,,,,,,,,,,,,,,,,,,,,,,,,,,,,,,,,,,,,,,space,357207,26,2020-08-14_17h20.22.213,CDT_GNG_IUS12,2020.1.2,MacIntel,60,,,,,,,,,,,,,,,,,,0,1,,space,1,0.31952,,,,,,,,,,,0,45,45,11,1,,,,,,,,,,,,,,,,,,,,
,,,,,,,,,,,,,,,,,,,,,,,,,,,,,,,,,,,,,,,,,,,,357207,26,2020-08-14_17h20.22.213,CDT_GNG_IUS12,2020.1.2,MacIntel,60,,,,,,,,,,,,,,,,,,1,0,,,1,,,,,,,,,,,,0,46,46,7,1,,,,,,,,,,,,,,,,,,,,
,,,,,,,,,,,,,,,,,,,,,,,,,,,,,,,,,,,,,,,,,,,space,357207,26,2020-08-14_17h20.22.213,CDT_GNG_IUS12,2020.1.2,MacIntel,60,,,,,,,,,,,,,,,,,,0,1,,space,1,0.36178,,,,,,,,,,,0,47,47,46,1,,,,,,,,,,,,,,,,,,,,
,,,,,,,,,,,,,,,,,,,,,,,,,,,,,,,,,,,,,,,,,,,,357207,26,2020-08-14_17h20.22.213,CDT_GNG_IUS12,2020.1.2,MacIntel,60,,,,,,,,,,,,,,,,,,1,0,,,1,,,,,,,,,,,,0,48,48,6,1,,,,,,,,,,,,,,,,,,,,
,,,,,,,,,,,,,,,,,,,,,,,,,,,,,,,,,,,,,,,,,,,space,357207,26,2020-08-14_17h20.22.213,CDT_GNG_IUS12,2020.1.2,MacIntel,60,,,,,,,,,,,,,,,,,,0,1,,space,1,0.39394,,,,,,,,,,,0,49,49,38,1,,,,,,,,,,,,,,,,,,,,
,,,,,,,,,,,,,,,,,,,,,,,,,,,,,,,,,,,,,,,,,,,,357207,26,2020-08-14_17h20.22.213,CDT_GNG_IUS12,2020.1.2,MacIntel,60,,,,,,,,,,,,,,,,,,,,,,,,,,,,,,,,,,,,,,,8.046533203,20.8696,0,0,0,0,1,1,"On a scale from 0 to 10, indicate your personal perception of your proficiency level for English (10 being the highest score)",,,,,,,,,,,
,,,,,,,,,,,,,,,,,,,,,,,,,,,,,,,,,,,,,,,,,,,,357207,26,2020-08-14_17h20.22.213,CDT_GNG_IUS12,2020.1.2,MacIntel,60,,,,,,,,,,,,,,,,,,,,,,,,,,,,,,,,,,,,,,,8.040185547,1.28495,0,1,1,1,1,2,"On a scale from 0 to 10, indicate how frequently you are exposed to English (10 being 'always', 0 being 'never')",,,,,,,,,,,
,,,,,,,,,,,,,,,,,,,,,,,,,,,,,,,,,,,,,,,,,,,,357207,26,2020-08-14_17h20.22.213,CDT_GNG_IUS12,2020.1.2,MacIntel,60,,,,,,,,,,,,,,,,,,,,,,,,,,,,,,,,,,,,,,,,,,,,,,,"On a scale from 0 to 10, indicate your personal perception of your proficiency level for English (10 being the highest score)",4.99,78.582465,0,0,0,0,1,1,Unforeseen events upset me greatly.,,
,,,,,,,,,,,,,,,,,,,,,,,,,,,,,,,,,,,,,,,,,,,,357207,26,2020-08-14_17h20.22.213,CDT_GNG_IUS12,2020.1.2,MacIntel,60,,,,,,,,,,,,,,,,,,,,,,,,,,,,,,,,,,,,,,,,,,,,,,,"On a scale from 0 to 10, indicate how frequently you are exposed to English (10 being 'always', 0 being 'never')",3.962109375,13.908425,0,1,1,1,1,2,It frustrates me not having all the information I need.,,
,,,,,,,,,,,,,,,,,,,,,,,,,,,,,,,,,,,,,,,,,,,,357207,26,2020-08-14_17h20.22.213,CDT_GNG_IUS12,2020.1.2,MacIntel,60,,,,,,,,,,,,,,,,,,,,,,,,,,,,,,,,,,,,,,,,,,,,,,,,2.035800781,7.224465,0,2,2,2,1,3,One should always look ahead so as to avoid surprises.,,
,,,,,,,,,,,,,,,,,,,,,,,,,,,,,,,,,,,,,,,,,,,,357207,26,2020-08-14_17h20.22.213,CDT_GNG_IUS12,2020.1.2,MacIntel,60,,,,,,,,,,,,,,,,,,,,,,,,,,,,,,,,,,,,,,,,,,,,,,,,3,8.07344,0,3,3,3,1,4,"A small, unforeseen event can spoil everything, even with the best of planning. ",,
,,,,,,,,,,,,,,,,,,,,,,,,,,,,,,,,,,,,,,,,,,,,357207,26,2020-08-14_17h20.22.213,CDT_GNG_IUS12,2020.1.2,MacIntel,60,,,,,,,,,,,,,,,,,,,,,,,,,,,,,,,,,,,,,,,,,,,,,,,,5,9.2995,0,4,4,4,1,5,I always want to know what the future has in store for me.,,
,,,,,,,,,,,,,,,,,,,,,,,,,,,,,,,,,,,,,,,,,,,,357207,26,2020-08-14_17h20.22.213,CDT_GNG_IUS12,2020.1.2,MacIntel,60,,,,,,,,,,,,,,,,,,,,,,,,,,,,,,,,,,,,,,,,,,,,,,,,1.0075,6.66987,0,5,5,5,1,6,I can't stand being taken by surprise.,,
,,,,,,,,,,,,,,,,,,,,,,,,,,,,,,,,,,,,,,,,,,,,357207,26,2020-08-14_17h20.22.213,CDT_GNG_IUS12,2020.1.2,MacIntel,60,,,,,,,,,,,,,,,,,,,,,,,,,,,,,,,,,,,,,,,,,,,,,,,,3.0571875,6.27773,0,6,6,6,1,7,I should be able to organize everything in advance,,
,,,,,,,,,,,,,,,,,,,,,,,,,,,,,,,,,,,,,,,,,,,,357207,26,2020-08-14_17h20.22.213,CDT_GNG_IUS12,2020.1.2,MacIntel,60,,,,,,,,,,,,,,,,,,,,,,,,,,,,,,,,,,,,,,,,,,,,,,,,4.009277344,9.028015,0,7,7,7,1,8,Uncertainty keeps me from living a full life.,,
,,,,,,,,,,,,,,,,,,,,,,,,,,,,,,,,,,,,,,,,,,,,357207,26,2020-08-14_17h20.22.213,CDT_GNG_IUS12,2020.1.2,MacIntel,60,,,,,,,,,,,,,,,,,,,,,,,,,,,,,,,,,,,,,,,,,,,,,,,,3.026796875,7.131505,0,8,8,8,1,9,"When it's time to act, uncertainty paralyses me. ",,
,,,,,,,,,,,,,,,,,,,,,,,,,,,,,,,,,,,,,,,,,,,,357207,26,2020-08-14_17h20.22.213,CDT_GNG_IUS12,2020.1.2,MacIntel,60,,,,,,,,,,,,,,,,,,,,,,,,,,,,,,,,,,,,,,,,,,,,,,,,3.028066406,8.960955,0,9,9,9,1,10,"When I am uncertain, I can't function very well. ",,
,,,,,,,,,,,,,,,,,,,,,,,,,,,,,,,,,,,,,,,,,,,,357207,26,2020-08-14_17h20.22.213,CDT_GNG_IUS12,2020.1.2,MacIntel,60,,,,,,,,,,,,,,,,,,,,,,,,,,,,,,,,,,,,,,,,,,,,,,,,3.026757813,4.01149,0,10,10,10,1,11,The smallest doubt can stop me from acting. ,,
,,,,,,,,,,,,,,,,,,,,,,,,,,,,,,,,,,,,,,,,,,,,357207,26,2020-08-14_17h20.22.213,CDT_GNG_IUS12,2020.1.2,MacIntel,60,,,,,,,,,,,,,,,,,,,,,,,,,,,,,,,,,,,,,,,,,,,,,,,,3.982480469,9.47754,0,11,11,11,1,12,I must get away from all uncertain situations. ,,
,,,,,,,,,,,,,,,,,,,,,,,,,,,,,,,,,,,,,,,,,,,,357207,26,2020-08-14_17h20.22.213,CDT_GNG_IUS12,2020.1.2,MacIntel,60,,,,,,,,,,,,,,,,,,,,,,,,,,,,,,,,,,,,,,,,,,,,,,,,,,,,,,,,,x,9.70281
