key_resp_6.keys,key_resp_6.rt,key_resp_2.keys,key_resp_2.corr,key_resp_2.rt,CDT_trials_train.thisRepN,CDT_trials_train.thisTrialN,CDT_trials_train.thisN,CDT_trials_train.thisIndex,CDT_trials_train.ran,trialnum,condit,stimamt,stim1posx,stim1posy,stim1col,stim1opa,stim2posx,stim2posy,stim2col,stim2opa,stim3posx,stim3posy,stim3col,stim3opa,stim4posx,stim4posy,stim4col,stim4opa,stim5posx,stim5posy,stim5col,stim5opa,stim6posx,stim6posy,stim6col,stim6opa,stimsizex,stimsizey,stimdur,targetposx,targetposy,targetcol,corrAns,participant,age,date,expName,psychopyVersion,OS,frameRate,key_resp_5.keys,key_resp.keys,key_resp.corr,key_resp.rt,CDT_trials.thisRepN,CDT_trials.thisTrialN,CDT_trials.thisN,CDT_trials.thisIndex,CDT_trials.ran,trialResp_Train.keys,trialResp_Train.corr,GNGtrials_train.thisRepN,GNGtrials_train.thisTrialN,GNGtrials_train.thisN,GNGtrials_train.thisIndex,GNGtrials_train.ran,orangeOpacity,blueOpacity,trialResp_Train.rt,trialResp.keys,trialResp.corr,GNG_trials_1.thisRepN,GNG_trials_1.thisTrialN,GNG_trials_1.thisN,GNG_trials_1.thisIndex,GNG_trials_1.ran,trialResp.rt,GNG_trials_2.thisRepN,GNG_trials_2.thisTrialN,GNG_trials_2.thisN,GNG_trials_2.thisIndex,GNG_trials_2.ran,GNG_trials_3.thisRepN,GNG_trials_3.thisTrialN,GNG_trials_3.thisN,GNG_trials_3.thisIndex,GNG_trials_3.ran,slider_2.response,slider_2.rt,engprof_trials.thisRepN,engprof_trials.thisTrialN,engprof_trials.thisN,engprof_trials.thisIndex,engprof_trials.ran,qpnumber,qproficiency,slider.response,slider.rt,IUS12_trials.thisRepN,IUS12_trials.thisTrialN,IUS12_trials.thisN,IUS12_trials.thisIndex,IUS12_trials.ran,qnumber,qenglish,key_resp_end.keys,key_resp_end.rt
y,3.460115,l,0,1.17956,0,0,0,0,1,1,same,4,0.273779233,-0.054755847,black,1,-0.16426754,-0.273779233,magenta,1,-0.16426754,0.16426754,orange,1,0.16426754,0.054755847,yellow,1,0.16426754,-0.054755847,cyan,0,-0.054755847,-0.16426754,blue,0,0.05,0.05,0.15,-0.16426754,0.16426754,orange,k,382063,28,2020-08-20_17h50.38.615,CDT_GNG_IUS12,2020.1.2,Win32,60,,,,,,,,,,,,,,,,,,,,,,,,,,,,,,,,,,,,,,,,,,,,,,,,,,,,,,,,,
,,l,1,1.392605,0,1,1,1,1,2,different,4,0.054755847,-0.054755847,orange,1,-0.273779233,0.273779233,magenta,1,0.273779233,0.16426754,yellow,1,-0.273779233,-0.16426754,blue,1,0.273779233,-0.054755847,red,0,-0.273779233,0.054755847,cyan,0,0.05,0.05,0.15,-0.273779233,-0.16426754,black,l,382063,28,2020-08-20_17h50.38.615,CDT_GNG_IUS12,2020.1.2,Win32,60,,,,,,,,,,,,,,,,,,,,,,,,,,,,,,,,,,,,,,,,,,,,,,,,,,,,,,,,,
,,l,0,1.135535,0,2,2,2,1,3,same,6,-0.054755847,0.273779233,green,1,0.273779233,-0.273779233,magenta,1,0.273779233,0.16426754,cyan,1,-0.054755847,-0.054755847,black,1,-0.273779233,0.16426754,orange,1,0.16426754,-0.054755847,blue,1,0.05,0.05,0.15,-0.054755847,0.273779233,green,k,382063,28,2020-08-20_17h50.38.615,CDT_GNG_IUS12,2020.1.2,Win32,60,,,,,,,,,,,,,,,,,,,,,,,,,,,,,,,,,,,,,,,,,,,,,,,,,,,,,,,,,
,,l,1,0.72593,0,3,3,3,1,4,different,6,0.16426754,-0.054755847,orange,1,-0.054755847,0.273779233,red,1,0.273779233,0.273779233,green,1,-0.054755847,-0.273779233,yellow,1,0.273779233,-0.054755847,blue,1,-0.16426754,0.16426754,black,1,0.05,0.05,0.15,0.273779233,0.273779233,cyan,l,382063,28,2020-08-20_17h50.38.615,CDT_GNG_IUS12,2020.1.2,Win32,60,,,,,,,,,,,,,,,,,,,,,,,,,,,,,,,,,,,,,,,,,,,,,,,,,,,,,,,,,
,,,,,,,,,,97,different,6,-0.273779233,-0.273779233,orange,1,0.054755847,-0.273779233,blue,1,0.16426754,0.16426754,green,1,-0.16426754,0.054755847,cyan,1,-0.16426754,-0.16426754,black,1,0.273779233,-0.16426754,yellow,1,0.05,0.05,0.15,-0.16426754,0.054755847,yellow,l,382063,28,2020-08-20_17h50.38.615,CDT_GNG_IUS12,2020.1.2,Win32,60,,l,1,0.808945,0,0,0,96,1,,,,,,,,,,,,,,,,,,,,,,,,,,,,,,,,,,,,,,,,,,,,,,,,
,,,,,,,,,,59,different,4,0.16426754,-0.16426754,red,1,-0.054755847,-0.16426754,cyan,1,0.054755847,0.16426754,yellow,1,-0.16426754,0.273779233,green,1,0.16426754,-0.054755847,orange,0,-0.16426754,-0.054755847,black,0,0.05,0.05,0.15,-0.16426754,0.273779233,black,l,382063,28,2020-08-20_17h50.38.615,CDT_GNG_IUS12,2020.1.2,Win32,60,,l,1,0.525925,0,1,1,58,1,,,,,,,,,,,,,,,,,,,,,,,,,,,,,,,,,,,,,,,,,,,,,,,,
,,,,,,,,,,101,different,6,0.273779233,0.273779233,yellow,1,0.054755847,-0.16426754,black,1,-0.054755847,0.054755847,cyan,1,-0.054755847,-0.16426754,magenta,1,0.273779233,0.054755847,green,1,0.16426754,-0.16426754,blue,1,0.05,0.05,0.15,0.273779233,0.273779233,green,l,382063,28,2020-08-20_17h50.38.615,CDT_GNG_IUS12,2020.1.2,Win32,60,,l,1,0.772795,0,2,2,100,1,,,,,,,,,,,,,,,,,,,,,,,,,,,,,,,,,,,,,,,,,,,,,,,,
,,,,,,,,,,2,same,4,0.273779233,0.054755847,magenta,1,-0.273779233,0.273779233,red,1,-0.054755847,-0.054755847,yellow,1,0.273779233,-0.273779233,blue,1,0.054755847,0.16426754,green,0,-0.16426754,0.054755847,cyan,0,0.05,0.05,0.15,0.273779233,-0.273779233,blue,k,382063,28,2020-08-20_17h50.38.615,CDT_GNG_IUS12,2020.1.2,Win32,60,,k,1,1.07554,0,3,3,1,1,,,,,,,,,,,,,,,,,,,,,,,,,,,,,,,,,,,,,,,,,,,,,,,,
,,,,,,,,,,25,same,4,0.16426754,-0.273779233,green,1,-0.16426754,-0.273779233,black,1,0.16426754,0.054755847,cyan,1,-0.273779233,0.273779233,blue,1,0.054755847,-0.273779233,yellow,0,-0.273779233,-0.273779233,red,0,0.05,0.05,0.15,-0.273779233,0.273779233,blue,k,382063,28,2020-08-20_17h50.38.615,CDT_GNG_IUS12,2020.1.2,Win32,60,,k,1,0.52435,0,4,4,24,1,,,,,,,,,,,,,,,,,,,,,,,,,,,,,,,,,,,,,,,,,,,,,,,,
,,,,,,,,,,46,different,4,-0.16426754,0.273779233,yellow,1,-0.16426754,-0.16426754,green,1,0.16426754,0.054755847,black,1,0.273779233,-0.054755847,red,1,-0.16426754,0.16426754,blue,0,-0.273779233,-0.054755847,cyan,0,0.05,0.05,0.15,0.16426754,0.054755847,cyan,l,382063,28,2020-08-20_17h50.38.615,CDT_GNG_IUS12,2020.1.2,Win32,60,,l,1,0.611665,0,5,5,45,1,,,,,,,,,,,,,,,,,,,,,,,,,,,,,,,,,,,,,,,,,,,,,,,,
,,,,,,,,,,29,same,4,0.273779233,0.054755847,magenta,1,-0.054755847,0.273779233,cyan,1,0.16426754,-0.054755847,green,1,-0.16426754,-0.054755847,black,1,0.273779233,0.16426754,orange,0,-0.16426754,0.054755847,blue,0,0.05,0.05,0.15,0.16426754,-0.054755847,green,k,382063,28,2020-08-20_17h50.38.615,CDT_GNG_IUS12,2020.1.2,Win32,60,,l,0,1.49575,0,6,6,28,1,,,,,,,,,,,,,,,,,,,,,,,,,,,,,,,,,,,,,,,,,,,,,,,,
,,,,,,,,,,45,different,4,0.054755847,0.16426754,blue,1,-0.054755847,-0.273779233,magenta,1,-0.16426754,0.16426754,black,1,0.054755847,-0.16426754,orange,1,0.273779233,0.273779233,green,0,-0.273779233,-0.16426754,cyan,0,0.05,0.05,0.15,-0.16426754,0.16426754,magenta,l,382063,28,2020-08-20_17h50.38.615,CDT_GNG_IUS12,2020.1.2,Win32,60,,l,1,1.19423,0,7,7,44,1,,,,,,,,,,,,,,,,,,,,,,,,,,,,,,,,,,,,,,,,,,,,,,,,
,,,,,,,,,,82,same,6,-0.054755847,-0.16426754,red,1,0.273779233,-0.054755847,cyan,1,0.16426754,0.273779233,blue,1,-0.054755847,0.054755847,black,1,-0.16426754,-0.16426754,yellow,1,0.273779233,-0.16426754,green,1,0.05,0.05,0.15,-0.16426754,-0.16426754,yellow,k,382063,28,2020-08-20_17h50.38.615,CDT_GNG_IUS12,2020.1.2,Win32,60,,l,0,0.97421,0,8,8,81,1,,,,,,,,,,,,,,,,,,,,,,,,,,,,,,,,,,,,,,,,,,,,,,,,
,,,,,,,,,,36,different,4,-0.16426754,-0.054755847,cyan,1,0.16426754,0.054755847,red,1,0.16426754,-0.054755847,black,1,-0.273779233,0.273779233,orange,1,-0.054755847,-0.054755847,yellow,0,0.273779233,0.273779233,green,0,0.05,0.05,0.15,0.16426754,-0.054755847,orange,l,382063,28,2020-08-20_17h50.38.615,CDT_GNG_IUS12,2020.1.2,Win32,60,,l,1,0.70809,0,9,9,35,1,,,,,,,,,,,,,,,,,,,,,,,,,,,,,,,,,,,,,,,,,,,,,,,,
,,,,,,,,,,19,same,4,-0.054755847,-0.16426754,orange,1,-0.273779233,0.273779233,red,1,0.273779233,0.054755847,yellow,1,0.273779233,-0.16426754,magenta,1,-0.273779233,-0.054755847,black,0,-0.054755847,0.273779233,blue,0,0.05,0.05,0.15,0.273779233,-0.16426754,magenta,k,382063,28,2020-08-20_17h50.38.615,CDT_GNG_IUS12,2020.1.2,Win32,60,,l,0,0.684705,0,10,10,18,1,,,,,,,,,,,,,,,,,,,,,,,,,,,,,,,,,,,,,,,,,,,,,,,,
,,,,,,,,,,38,different,4,0.273779233,-0.16426754,red,1,-0.054755847,0.16426754,blue,1,-0.273779233,-0.054755847,green,1,0.273779233,0.054755847,cyan,1,0.16426754,-0.054755847,orange,0,-0.054755847,0.054755847,yellow,0,0.05,0.05,0.15,0.273779233,0.054755847,black,l,382063,28,2020-08-20_17h50.38.615,CDT_GNG_IUS12,2020.1.2,Win32,60,,l,1,0.750635,0,11,11,37,1,,,,,,,,,,,,,,,,,,,,,,,,,,,,,,,,,,,,,,,,,,,,,,,,
,,,,,,,,,,30,same,4,0.16426754,0.16426754,blue,1,0.054755847,-0.054755847,green,1,-0.273779233,-0.16426754,black,1,-0.054755847,0.273779233,yellow,1,0.16426754,0.273779233,red,0,0.16426754,-0.16426754,magenta,0,0.05,0.05,0.15,0.054755847,-0.054755847,green,k,382063,28,2020-08-20_17h50.38.615,CDT_GNG_IUS12,2020.1.2,Win32,60,,k,1,0.948635,0,12,12,29,1,,,,,,,,,,,,,,,,,,,,,,,,,,,,,,,,,,,,,,,,,,,,,,,,
,,,,,,,,,,39,different,4,0.054755847,0.054755847,green,1,0.273779233,-0.16426754,yellow,1,-0.16426754,0.054755847,orange,1,-0.273779233,-0.054755847,red,1,0.273779233,0.054755847,blue,0,0.054755847,-0.16426754,cyan,0,0.05,0.05,0.15,-0.273779233,-0.054755847,cyan,l,382063,28,2020-08-20_17h50.38.615,CDT_GNG_IUS12,2020.1.2,Win32,60,,l,1,0.626935,0,13,13,38,1,,,,,,,,,,,,,,,,,,,,,,,,,,,,,,,,,,,,,,,,,,,,,,,,
,,,,,,,,,,91,different,6,-0.054755847,0.054755847,green,1,0.054755847,-0.16426754,cyan,1,-0.054755847,-0.054755847,black,1,0.16426754,0.273779233,yellow,1,-0.273779233,0.273779233,magenta,1,0.16426754,-0.054755847,red,1,0.05,0.05,0.15,0.16426754,-0.054755847,green,l,382063,28,2020-08-20_17h50.38.615,CDT_GNG_IUS12,2020.1.2,Win32,60,,l,1,1.20658,0,14,14,90,1,,,,,,,,,,,,,,,,,,,,,,,,,,,,,,,,,,,,,,,,,,,,,,,,
,,,,,,,,,,106,different,6,0.054755847,-0.16426754,blue,1,-0.273779233,-0.273779233,magenta,1,0.273779233,0.273779233,yellow,1,-0.273779233,0.054755847,orange,1,0.054755847,-0.054755847,green,1,-0.054755847,-0.16426754,black,1,0.05,0.05,0.15,0.054755847,-0.054755847,cyan,l,382063,28,2020-08-20_17h50.38.615,CDT_GNG_IUS12,2020.1.2,Win32,60,,l,1,0.58757,0,15,15,105,1,,,,,,,,,,,,,,,,,,,,,,,,,,,,,,,,,,,,,,,,,,,,,,,,
,,,,,,,,,,54,different,4,-0.054755847,-0.054755847,black,1,0.054755847,0.054755847,cyan,1,0.273779233,-0.16426754,green,1,-0.273779233,0.16426754,magenta,1,-0.054755847,-0.16426754,orange,0,0.054755847,0.16426754,blue,0,0.05,0.05,0.15,-0.273779233,0.16426754,orange,l,382063,28,2020-08-20_17h50.38.615,CDT_GNG_IUS12,2020.1.2,Win32,60,,l,1,0.56,0,16,16,53,1,,,,,,,,,,,,,,,,,,,,,,,,,,,,,,,,,,,,,,,,,,,,,,,,
,,,,,,,,,,5,same,4,0.273779233,-0.054755847,green,1,0.273779233,0.054755847,orange,1,-0.054755847,0.054755847,black,1,-0.054755847,-0.16426754,blue,1,0.054755847,-0.054755847,cyan,0,0.054755847,0.273779233,red,0,0.05,0.05,0.15,-0.054755847,-0.16426754,blue,k,382063,28,2020-08-20_17h50.38.615,CDT_GNG_IUS12,2020.1.2,Win32,60,,k,1,1.27049,0,17,17,4,1,,,,,,,,,,,,,,,,,,,,,,,,,,,,,,,,,,,,,,,,,,,,,,,,
,,,,,,,,,,7,same,4,-0.16426754,-0.054755847,yellow,1,0.273779233,0.16426754,magenta,1,-0.16426754,0.054755847,cyan,1,0.054755847,-0.054755847,black,1,-0.054755847,-0.054755847,orange,0,0.273779233,0.273779233,blue,0,0.05,0.05,0.15,0.054755847,-0.054755847,black,k,382063,28,2020-08-20_17h50.38.615,CDT_GNG_IUS12,2020.1.2,Win32,60,,k,1,0.48757,0,18,18,6,1,,,,,,,,,,,,,,,,,,,,,,,,,,,,,,,,,,,,,,,,,,,,,,,,
,,,,,,,,,,114,different,6,-0.16426754,0.16426754,black,1,-0.054755847,-0.273779233,orange,1,0.054755847,0.16426754,magenta,1,0.273779233,-0.16426754,green,1,-0.054755847,0.16426754,cyan,1,-0.273779233,-0.273779233,yellow,1,0.05,0.05,0.15,0.054755847,0.16426754,blue,l,382063,28,2020-08-20_17h50.38.615,CDT_GNG_IUS12,2020.1.2,Win32,60,,l,1,0.85739,0,19,19,113,1,,,,,,,,,,,,,,,,,,,,,,,,,,,,,,,,,,,,,,,,,,,,,,,,
,,,,,,,,,,27,same,4,-0.273779233,0.054755847,blue,1,-0.16426754,-0.16426754,black,1,0.16426754,-0.273779233,cyan,1,0.273779233,0.054755847,red,1,-0.054755847,0.273779233,magenta,0,-0.054755847,-0.273779233,yellow,0,0.05,0.05,0.15,0.273779233,0.054755847,red,k,382063,28,2020-08-20_17h50.38.615,CDT_GNG_IUS12,2020.1.2,Win32,60,,k,1,1.07464,0,20,20,26,1,,,,,,,,,,,,,,,,,,,,,,,,,,,,,,,,,,,,,,,,,,,,,,,,
,,,,,,,,,,55,different,4,0.273779233,0.054755847,yellow,1,0.054755847,-0.16426754,green,1,-0.273779233,-0.16426754,orange,1,-0.273779233,0.273779233,blue,1,0.273779233,0.273779233,red,0,0.273779233,-0.16426754,cyan,0,0.05,0.05,0.15,0.054755847,-0.16426754,red,l,382063,28,2020-08-20_17h50.38.615,CDT_GNG_IUS12,2020.1.2,Win32,60,,l,1,0.836945,0,21,21,54,1,,,,,,,,,,,,,,,,,,,,,,,,,,,,,,,,,,,,,,,,,,,,,,,,
,,,,,,,,,,24,same,4,0.054755847,-0.16426754,red,1,0.054755847,0.054755847,yellow,1,-0.273779233,0.16426754,orange,1,-0.273779233,-0.16426754,magenta,1,0.273779233,-0.16426754,black,0,0.273779233,0.273779233,green,0,0.05,0.05,0.15,0.054755847,-0.16426754,red,k,382063,28,2020-08-20_17h50.38.615,CDT_GNG_IUS12,2020.1.2,Win32,60,,l,0,0.79202,0,22,22,23,1,,,,,,,,,,,,,,,,,,,,,,,,,,,,,,,,,,,,,,,,,,,,,,,,
,,,,,,,,,,92,different,6,0.16426754,0.16426754,green,1,-0.054755847,-0.054755847,cyan,1,-0.054755847,0.054755847,red,1,0.16426754,-0.054755847,magenta,1,0.054755847,0.16426754,orange,1,-0.273779233,-0.16426754,yellow,1,0.05,0.05,0.15,0.16426754,0.16426754,cyan,l,382063,28,2020-08-20_17h50.38.615,CDT_GNG_IUS12,2020.1.2,Win32,60,,l,1,2.213135,0,23,23,91,1,,,,,,,,,,,,,,,,,,,,,,,,,,,,,,,,,,,,,,,,,,,,,,,,
,,,,,,,,,,90,same,6,0.16426754,-0.054755847,black,1,-0.273779233,-0.054755847,orange,1,-0.16426754,0.16426754,cyan,1,0.273779233,0.273779233,blue,1,0.054755847,-0.054755847,magenta,1,-0.273779233,-0.273779233,yellow,1,0.05,0.05,0.15,-0.273779233,-0.054755847,orange,k,382063,28,2020-08-20_17h50.38.615,CDT_GNG_IUS12,2020.1.2,Win32,60,,l,0,0.83362,0,24,24,89,1,,,,,,,,,,,,,,,,,,,,,,,,,,,,,,,,,,,,,,,,,,,,,,,,
,,,,,,,,,,87,same,6,0.273779233,0.16426754,green,1,-0.16426754,-0.054755847,black,1,-0.054755847,0.054755847,cyan,1,0.273779233,-0.054755847,blue,1,0.054755847,0.054755847,yellow,1,-0.273779233,-0.273779233,red,1,0.05,0.05,0.15,-0.273779233,-0.273779233,red,k,382063,28,2020-08-20_17h50.38.615,CDT_GNG_IUS12,2020.1.2,Win32,60,,k,1,0.85259,0,25,25,86,1,,,,,,,,,,,,,,,,,,,,,,,,,,,,,,,,,,,,,,,,,,,,,,,,
,,,,,,,,,,4,same,4,0.16426754,-0.16426754,black,1,-0.054755847,0.16426754,yellow,1,0.16426754,0.16426754,blue,1,-0.16426754,-0.16426754,green,1,0.054755847,-0.16426754,magenta,0,-0.054755847,0.273779233,orange,0,0.05,0.05,0.15,0.16426754,-0.16426754,black,k,382063,28,2020-08-20_17h50.38.615,CDT_GNG_IUS12,2020.1.2,Win32,60,,k,1,0.783705,0,26,26,3,1,,,,,,,,,,,,,,,,,,,,,,,,,,,,,,,,,,,,,,,,,,,,,,,,
,,,,,,,,,,26,same,4,0.16426754,-0.16426754,green,1,-0.054755847,0.16426754,yellow,1,-0.273779233,-0.16426754,black,1,0.054755847,0.054755847,red,1,0.16426754,-0.054755847,cyan,0,-0.273779233,0.273779233,magenta,0,0.05,0.05,0.15,-0.054755847,0.16426754,yellow,k,382063,28,2020-08-20_17h50.38.615,CDT_GNG_IUS12,2020.1.2,Win32,60,,k,1,0.66853,0,27,27,25,1,,,,,,,,,,,,,,,,,,,,,,,,,,,,,,,,,,,,,,,,,,,,,,,,
,,,,,,,,,,107,different,6,0.273779233,0.16426754,cyan,1,-0.16426754,-0.273779233,magenta,1,-0.054755847,0.054755847,black,1,0.16426754,-0.054755847,blue,1,0.16426754,0.054755847,green,1,-0.273779233,-0.16426754,yellow,1,0.05,0.05,0.15,0.16426754,0.054755847,blue,l,382063,28,2020-08-20_17h50.38.615,CDT_GNG_IUS12,2020.1.2,Win32,60,,l,1,1.03771,0,28,28,106,1,,,,,,,,,,,,,,,,,,,,,,,,,,,,,,,,,,,,,,,,,,,,,,,,
,,,,,,,,,,69,same,6,-0.054755847,-0.054755847,black,1,0.273779233,-0.054755847,orange,1,-0.273779233,0.16426754,blue,1,0.054755847,0.054755847,yellow,1,-0.16426754,-0.16426754,green,1,0.054755847,-0.16426754,magenta,1,0.05,0.05,0.15,-0.16426754,-0.16426754,green,k,382063,28,2020-08-20_17h50.38.615,CDT_GNG_IUS12,2020.1.2,Win32,60,,l,0,4.55212,0,29,29,68,1,,,,,,,,,,,,,,,,,,,,,,,,,,,,,,,,,,,,,,,,,,,,,,,,
,,,,,,,,,,70,same,6,0.16426754,0.16426754,cyan,1,0.273779233,-0.273779233,red,1,-0.16426754,0.16426754,yellow,1,-0.273779233,-0.273779233,green,1,0.16426754,0.054755847,magenta,1,0.16426754,-0.054755847,blue,1,0.05,0.05,0.15,0.273779233,-0.273779233,red,k,382063,28,2020-08-20_17h50.38.615,CDT_GNG_IUS12,2020.1.2,Win32,60,,l,0,1.967595,0,30,30,69,1,,,,,,,,,,,,,,,,,,,,,,,,,,,,,,,,,,,,,,,,,,,,,,,,
,,,,,,,,,,105,different,6,0.054755847,0.273779233,cyan,1,0.273779233,-0.16426754,magenta,1,-0.16426754,-0.054755847,yellow,1,-0.16426754,0.16426754,blue,1,0.273779233,0.16426754,orange,1,0.16426754,-0.273779233,green,1,0.05,0.05,0.15,0.16426754,-0.273779233,blue,l,382063,28,2020-08-20_17h50.38.615,CDT_GNG_IUS12,2020.1.2,Win32,60,,l,1,1.988225,0,31,31,104,1,,,,,,,,,,,,,,,,,,,,,,,,,,,,,,,,,,,,,,,,,,,,,,,,
,,,,,,,,,,40,different,4,-0.273779233,-0.273779233,magenta,1,0.054755847,-0.16426754,yellow,1,-0.16426754,0.054755847,red,1,0.273779233,0.273779233,orange,1,-0.054755847,-0.054755847,cyan,0,0.16426754,-0.16426754,green,0,0.05,0.05,0.15,0.273779233,0.273779233,black,l,382063,28,2020-08-20_17h50.38.615,CDT_GNG_IUS12,2020.1.2,Win32,60,,l,1,1.008665,0,32,32,39,1,,,,,,,,,,,,,,,,,,,,,,,,,,,,,,,,,,,,,,,,,,,,,,,,
,,,,,,,,,,3,same,4,-0.054755847,-0.054755847,yellow,1,-0.054755847,0.054755847,cyan,1,0.16426754,-0.273779233,black,1,0.273779233,0.273779233,magenta,1,-0.054755847,-0.273779233,orange,0,-0.273779233,0.054755847,green,0,0.05,0.05,0.15,0.273779233,0.273779233,magenta,k,382063,28,2020-08-20_17h50.38.615,CDT_GNG_IUS12,2020.1.2,Win32,60,,k,1,0.96458,0,33,33,2,1,,,,,,,,,,,,,,,,,,,,,,,,,,,,,,,,,,,,,,,,,,,,,,,,
,,,,,,,,,,47,different,4,-0.16426754,-0.054755847,orange,1,0.273779233,0.054755847,black,1,-0.16426754,0.16426754,red,1,0.273779233,-0.16426754,blue,1,-0.054755847,-0.273779233,green,0,0.16426754,0.16426754,yellow,0,0.05,0.05,0.15,0.273779233,0.054755847,red,l,382063,28,2020-08-20_17h50.38.615,CDT_GNG_IUS12,2020.1.2,Win32,60,,l,1,1.11713,0,34,34,46,1,,,,,,,,,,,,,,,,,,,,,,,,,,,,,,,,,,,,,,,,,,,,,,,,
,,,,,,,,,,53,different,4,-0.16426754,0.054755847,green,1,0.273779233,0.054755847,cyan,1,-0.273779233,-0.273779233,magenta,1,0.054755847,-0.16426754,black,1,-0.054755847,0.16426754,red,0,0.273779233,0.273779233,blue,0,0.05,0.05,0.15,-0.273779233,-0.273779233,black,l,382063,28,2020-08-20_17h50.38.615,CDT_GNG_IUS12,2020.1.2,Win32,60,,l,1,1.018785,0,35,35,52,1,,,,,,,,,,,,,,,,,,,,,,,,,,,,,,,,,,,,,,,,,,,,,,,,
,,,,,,,,,,8,same,4,0.16426754,-0.16426754,blue,1,-0.16426754,-0.054755847,red,1,-0.273779233,0.16426754,green,1,0.054755847,0.054755847,cyan,1,0.16426754,-0.273779233,magenta,0,-0.054755847,-0.054755847,orange,0,0.05,0.05,0.15,-0.273779233,0.16426754,green,k,382063,28,2020-08-20_17h50.38.615,CDT_GNG_IUS12,2020.1.2,Win32,60,,l,0,0.77417,0,36,36,7,1,,,,,,,,,,,,,,,,,,,,,,,,,,,,,,,,,,,,,,,,,,,,,,,,
,,,,,,,,,,50,different,4,-0.16426754,0.054755847,black,1,-0.273779233,-0.16426754,magenta,1,0.054755847,0.054755847,cyan,1,0.273779233,-0.16426754,green,1,-0.273779233,0.273779233,yellow,0,-0.16426754,-0.054755847,orange,0,0.05,0.05,0.15,-0.273779233,-0.16426754,yellow,l,382063,28,2020-08-20_17h50.38.615,CDT_GNG_IUS12,2020.1.2,Win32,60,,l,1,0.811875,0,37,37,49,1,,,,,,,,,,,,,,,,,,,,,,,,,,,,,,,,,,,,,,,,,,,,,,,,
,,,,,,,,,,83,same,6,0.054755847,-0.16426754,cyan,1,-0.16426754,-0.16426754,blue,1,0.273779233,0.054755847,magenta,1,-0.273779233,0.273779233,green,1,0.273779233,-0.16426754,orange,1,-0.054755847,-0.054755847,yellow,1,0.05,0.05,0.15,-0.054755847,-0.054755847,yellow,k,382063,28,2020-08-20_17h50.38.615,CDT_GNG_IUS12,2020.1.2,Win32,60,,k,1,0.71953,0,38,38,82,1,,,,,,,,,,,,,,,,,,,,,,,,,,,,,,,,,,,,,,,,,,,,,,,,
,,,,,,,,,,48,different,4,0.16426754,0.273779233,cyan,1,-0.054755847,-0.273779233,magenta,1,0.16426754,-0.054755847,orange,1,-0.273779233,0.273779233,blue,1,0.273779233,0.16426754,red,0,-0.054755847,-0.16426754,green,0,0.05,0.05,0.15,0.16426754,-0.054755847,red,l,382063,28,2020-08-20_17h50.38.615,CDT_GNG_IUS12,2020.1.2,Win32,60,,l,1,0.903095,0,39,39,47,1,,,,,,,,,,,,,,,,,,,,,,,,,,,,,,,,,,,,,,,,,,,,,,,,
,,,,,,,,,,15,same,4,0.054755847,-0.273779233,yellow,1,-0.273779233,-0.054755847,cyan,1,0.273779233,0.16426754,green,1,-0.16426754,0.16426754,blue,1,0.273779233,-0.054755847,magenta,0,-0.16426754,-0.054755847,orange,0,0.05,0.05,0.15,-0.273779233,-0.054755847,cyan,k,382063,28,2020-08-20_17h50.38.615,CDT_GNG_IUS12,2020.1.2,Win32,60,,k,1,1.29658,0,40,40,14,1,,,,,,,,,,,,,,,,,,,,,,,,,,,,,,,,,,,,,,,,,,,,,,,,
,,,,,,,,,,71,same,6,-0.054755847,-0.16426754,orange,1,0.273779233,0.054755847,green,1,0.16426754,-0.16426754,yellow,1,-0.054755847,0.054755847,blue,1,-0.054755847,-0.273779233,black,1,0.054755847,0.16426754,cyan,1,0.05,0.05,0.15,-0.054755847,0.054755847,blue,k,382063,28,2020-08-20_17h50.38.615,CDT_GNG_IUS12,2020.1.2,Win32,60,,k,1,0.66747,0,41,41,70,1,,,,,,,,,,,,,,,,,,,,,,,,,,,,,,,,,,,,,,,,,,,,,,,,
,,,,,,,,,,14,same,4,0.16426754,0.16426754,magenta,1,-0.16426754,0.16426754,blue,1,0.16426754,-0.16426754,green,1,-0.16426754,-0.16426754,red,1,0.16426754,0.273779233,cyan,0,-0.16426754,0.273779233,orange,0,0.05,0.05,0.15,-0.16426754,0.16426754,blue,k,382063,28,2020-08-20_17h50.38.615,CDT_GNG_IUS12,2020.1.2,Win32,60,,k,1,0.609035,0,42,42,13,1,,,,,,,,,,,,,,,,,,,,,,,,,,,,,,,,,,,,,,,,,,,,,,,,
,,,,,,,,,,20,same,4,0.273779233,0.054755847,magenta,1,0.054755847,-0.273779233,black,1,-0.054755847,0.16426754,blue,1,-0.273779233,-0.054755847,orange,1,0.054755847,0.054755847,red,0,0.054755847,-0.054755847,cyan,0,0.05,0.05,0.15,-0.054755847,0.16426754,blue,k,382063,28,2020-08-20_17h50.38.615,CDT_GNG_IUS12,2020.1.2,Win32,60,,k,1,0.406755,0,43,43,19,1,,,,,,,,,,,,,,,,,,,,,,,,,,,,,,,,,,,,,,,,,,,,,,,,
,,,,,,,,,,16,same,4,0.16426754,0.16426754,cyan,1,-0.16426754,-0.273779233,red,1,-0.16426754,0.16426754,black,1,0.273779233,-0.054755847,yellow,1,0.273779233,0.273779233,orange,0,-0.054755847,-0.273779233,blue,0,0.05,0.05,0.15,-0.16426754,-0.273779233,red,k,382063,28,2020-08-20_17h50.38.615,CDT_GNG_IUS12,2020.1.2,Win32,60,,k,1,0.628185,0,44,44,15,1,,,,,,,,,,,,,,,,,,,,,,,,,,,,,,,,,,,,,,,,,,,,,,,,
,,,,,,,,,,88,same,6,0.054755847,0.054755847,orange,1,0.054755847,-0.273779233,red,1,-0.16426754,-0.16426754,magenta,1,-0.16426754,0.273779233,yellow,1,0.16426754,0.16426754,blue,1,0.273779233,-0.16426754,cyan,1,0.05,0.05,0.15,-0.16426754,0.273779233,yellow,k,382063,28,2020-08-20_17h50.38.615,CDT_GNG_IUS12,2020.1.2,Win32,60,,k,1,0.759565,0,45,45,87,1,,,,,,,,,,,,,,,,,,,,,,,,,,,,,,,,,,,,,,,,,,,,,,,,
,,,,,,,,,,117,different,6,-0.054755847,0.054755847,black,1,0.054755847,0.273779233,magenta,1,-0.273779233,-0.273779233,yellow,1,0.054755847,-0.16426754,blue,1,-0.16426754,0.054755847,cyan,1,0.054755847,0.054755847,red,1,0.05,0.05,0.15,-0.16426754,0.054755847,black,l,382063,28,2020-08-20_17h50.38.615,CDT_GNG_IUS12,2020.1.2,Win32,60,,l,1,1.228935,0,46,46,116,1,,,,,,,,,,,,,,,,,,,,,,,,,,,,,,,,,,,,,,,,,,,,,,,,
,,,,,,,,,,41,different,4,0.054755847,-0.273779233,orange,1,-0.273779233,0.054755847,blue,1,-0.054755847,-0.16426754,yellow,1,0.273779233,0.16426754,red,1,0.273779233,-0.273779233,black,0,-0.273779233,0.273779233,magenta,0,0.05,0.05,0.15,-0.054755847,-0.16426754,black,l,382063,28,2020-08-20_17h50.38.615,CDT_GNG_IUS12,2020.1.2,Win32,60,,l,1,0.921025,0,47,47,40,1,,,,,,,,,,,,,,,,,,,,,,,,,,,,,,,,,,,,,,,,,,,,,,,,
,,,,,,,,,,74,same,6,-0.273779233,-0.273779233,magenta,1,0.16426754,0.054755847,cyan,1,-0.16426754,0.273779233,black,1,0.273779233,-0.054755847,yellow,1,-0.16426754,-0.16426754,red,1,0.054755847,0.273779233,green,1,0.05,0.05,0.15,-0.16426754,-0.16426754,red,k,382063,28,2020-08-20_17h50.38.615,CDT_GNG_IUS12,2020.1.2,Win32,60,,l,0,1.017775,0,48,48,73,1,,,,,,,,,,,,,,,,,,,,,,,,,,,,,,,,,,,,,,,,,,,,,,,,
,,,,,,,,,,33,different,4,-0.273779233,0.273779233,yellow,1,0.16426754,-0.16426754,cyan,1,-0.273779233,-0.273779233,black,1,0.054755847,0.273779233,blue,1,-0.16426754,0.273779233,green,0,0.054755847,-0.273779233,orange,0,0.05,0.05,0.15,-0.273779233,-0.273779233,cyan,l,382063,28,2020-08-20_17h50.38.615,CDT_GNG_IUS12,2020.1.2,Win32,60,,l,1,0.750825,0,49,49,32,1,,,,,,,,,,,,,,,,,,,,,,,,,,,,,,,,,,,,,,,,,,,,,,,,
,,,,,,,,,,62,same,6,0.054755847,-0.054755847,yellow,1,-0.273779233,-0.16426754,green,1,0.273779233,0.054755847,orange,1,-0.16426754,0.054755847,cyan,1,0.054755847,-0.273779233,red,1,-0.054755847,-0.054755847,blue,1,0.05,0.05,0.15,0.054755847,-0.054755847,yellow,k,382063,28,2020-08-20_17h50.38.615,CDT_GNG_IUS12,2020.1.2,Win32,60,,k,1,0.418915,0,50,50,61,1,,,,,,,,,,,,,,,,,,,,,,,,,,,,,,,,,,,,,,,,,,,,,,,,
,,,,,,,,,,67,same,6,0.273779233,-0.054755847,magenta,1,0.16426754,0.273779233,orange,1,-0.273779233,0.273779233,cyan,1,-0.16426754,-0.054755847,yellow,1,0.16426754,-0.16426754,blue,1,0.16426754,0.16426754,red,1,0.05,0.05,0.15,-0.273779233,0.273779233,cyan,k,382063,28,2020-08-20_17h50.38.615,CDT_GNG_IUS12,2020.1.2,Win32,60,,k,1,0.84683,0,51,51,66,1,,,,,,,,,,,,,,,,,,,,,,,,,,,,,,,,,,,,,,,,,,,,,,,,
,,,,,,,,,,95,different,6,-0.273779233,-0.16426754,magenta,1,0.16426754,0.273779233,green,1,-0.273779233,0.273779233,black,1,0.16426754,-0.273779233,orange,1,-0.054755847,-0.16426754,blue,1,0.16426754,0.054755847,cyan,1,0.05,0.05,0.15,0.16426754,0.273779233,black,l,382063,28,2020-08-20_17h50.38.615,CDT_GNG_IUS12,2020.1.2,Win32,60,,l,1,0.82606,0,52,52,94,1,,,,,,,,,,,,,,,,,,,,,,,,,,,,,,,,,,,,,,,,,,,,,,,,
,,,,,,,,,,108,different,6,-0.273779233,-0.054755847,magenta,1,0.054755847,0.16426754,red,1,-0.16426754,0.054755847,cyan,1,0.054755847,-0.273779233,green,1,-0.273779233,-0.16426754,orange,1,0.273779233,0.273779233,black,1,0.05,0.05,0.15,-0.273779233,-0.054755847,blue,l,382063,28,2020-08-20_17h50.38.615,CDT_GNG_IUS12,2020.1.2,Win32,60,,l,1,1.069755,0,53,53,107,1,,,,,,,,,,,,,,,,,,,,,,,,,,,,,,,,,,,,,,,,,,,,,,,,
,,,,,,,,,,81,same,6,-0.273779233,-0.273779233,green,1,-0.273779233,0.16426754,blue,1,0.054755847,-0.16426754,black,1,0.273779233,0.054755847,cyan,1,-0.16426754,-0.273779233,orange,1,-0.054755847,0.054755847,red,1,0.05,0.05,0.15,0.054755847,-0.16426754,black,k,382063,28,2020-08-20_17h50.38.615,CDT_GNG_IUS12,2020.1.2,Win32,60,,k,1,0.839435,0,54,54,80,1,,,,,,,,,,,,,,,,,,,,,,,,,,,,,,,,,,,,,,,,,,,,,,,,
,,,,,,,,,,13,same,4,0.16426754,0.273779233,orange,1,0.054755847,-0.273779233,blue,1,-0.054755847,0.054755847,magenta,1,-0.054755847,-0.16426754,black,1,0.054755847,0.16426754,yellow,0,0.16426754,-0.054755847,cyan,0,0.05,0.05,0.15,0.054755847,-0.273779233,blue,k,382063,28,2020-08-20_17h50.38.615,CDT_GNG_IUS12,2020.1.2,Win32,60,,k,1,1.0821,0,55,55,12,1,,,,,,,,,,,,,,,,,,,,,,,,,,,,,,,,,,,,,,,,,,,,,,,,
,,,,,,,,,,60,different,4,0.273779233,0.273779233,red,1,-0.273779233,-0.054755847,blue,1,-0.273779233,0.054755847,magenta,1,0.054755847,-0.273779233,black,1,0.273779233,0.054755847,orange,0,-0.054755847,-0.16426754,yellow,0,0.05,0.05,0.15,-0.273779233,0.054755847,yellow,l,382063,28,2020-08-20_17h50.38.615,CDT_GNG_IUS12,2020.1.2,Win32,60,,l,1,0.63557,0,56,56,59,1,,,,,,,,,,,,,,,,,,,,,,,,,,,,,,,,,,,,,,,,,,,,,,,,
,,,,,,,,,,102,different,6,-0.273779233,-0.273779233,magenta,1,0.054755847,0.16426754,green,1,0.16426754,-0.273779233,yellow,1,-0.16426754,0.054755847,orange,1,-0.16426754,-0.273779233,red,1,0.273779233,0.054755847,cyan,1,0.05,0.05,0.15,-0.273779233,-0.273779233,yellow,l,382063,28,2020-08-20_17h50.38.615,CDT_GNG_IUS12,2020.1.2,Win32,60,,k,0,0.70276,0,57,57,101,1,,,,,,,,,,,,,,,,,,,,,,,,,,,,,,,,,,,,,,,,,,,,,,,,
,,,,,,,,,,43,different,4,-0.16426754,-0.054755847,red,1,0.273779233,0.054755847,cyan,1,-0.16426754,0.054755847,orange,1,0.054755847,-0.054755847,blue,1,-0.054755847,-0.273779233,magenta,0,0.273779233,0.273779233,yellow,0,0.05,0.05,0.15,-0.16426754,-0.054755847,yellow,l,382063,28,2020-08-20_17h50.38.615,CDT_GNG_IUS12,2020.1.2,Win32,60,,l,1,1.046775,0,58,58,42,1,,,,,,,,,,,,,,,,,,,,,,,,,,,,,,,,,,,,,,,,,,,,,,,,
,,,,,,,,,,44,different,4,0.16426754,0.16426754,green,1,0.16426754,-0.16426754,black,1,-0.16426754,-0.054755847,cyan,1,-0.16426754,0.054755847,magenta,1,0.16426754,0.054755847,blue,0,0.054755847,-0.273779233,yellow,0,0.05,0.05,0.15,0.16426754,0.16426754,red,l,382063,28,2020-08-20_17h50.38.615,CDT_GNG_IUS12,2020.1.2,Win32,60,,l,1,3.76421,0,59,59,43,1,,,,,,,,,,,,,,,,,,,,,,,,,,,,,,,,,,,,,,,,,,,,,,,,
,,,,,,,,,,31,different,4,-0.16426754,0.16426754,blue,1,0.16426754,-0.054755847,magenta,1,-0.16426754,-0.054755847,yellow,1,0.054755847,0.273779233,black,1,-0.273779233,0.054755847,red,0,0.273779233,-0.273779233,cyan,0,0.05,0.05,0.15,-0.16426754,-0.054755847,black,l,382063,28,2020-08-20_17h50.38.615,CDT_GNG_IUS12,2020.1.2,Win32,60,,l,1,0.883795,0,60,60,30,1,,,,,,,,,,,,,,,,,,,,,,,,,,,,,,,,,,,,,,,,,,,,,,,,
,,,,,,,,,,35,different,4,-0.054755847,-0.054755847,black,1,0.054755847,0.273779233,magenta,1,-0.273779233,0.054755847,blue,1,0.273779233,-0.054755847,red,1,-0.054755847,-0.16426754,cyan,0,0.054755847,0.054755847,yellow,0,0.05,0.05,0.15,0.054755847,0.273779233,cyan,l,382063,28,2020-08-20_17h50.38.615,CDT_GNG_IUS12,2020.1.2,Win32,60,,l,1,0.80271,0,61,61,34,1,,,,,,,,,,,,,,,,,,,,,,,,,,,,,,,,,,,,,,,,,,,,,,,,
,,,,,,,,,,112,different,6,-0.273779233,-0.16426754,magenta,1,-0.054755847,0.054755847,orange,1,0.054755847,0.273779233,cyan,1,0.16426754,-0.273779233,yellow,1,-0.273779233,-0.273779233,black,1,-0.16426754,0.054755847,red,1,0.05,0.05,0.15,-0.16426754,0.054755847,orange,l,382063,28,2020-08-20_17h50.38.615,CDT_GNG_IUS12,2020.1.2,Win32,60,,l,1,0.62293,0,62,62,111,1,,,,,,,,,,,,,,,,,,,,,,,,,,,,,,,,,,,,,,,,,,,,,,,,
,,,,,,,,,,28,same,4,0.16426754,-0.273779233,yellow,1,-0.054755847,0.16426754,black,1,0.16426754,0.054755847,cyan,1,-0.273779233,-0.16426754,blue,1,0.273779233,-0.273779233,orange,0,-0.054755847,0.054755847,magenta,0,0.05,0.05,0.15,-0.054755847,0.16426754,black,k,382063,28,2020-08-20_17h50.38.615,CDT_GNG_IUS12,2020.1.2,Win32,60,,k,1,0.570935,0,63,63,27,1,,,,,,,,,,,,,,,,,,,,,,,,,,,,,,,,,,,,,,,,,,,,,,,,
,,,,,,,,,,37,different,4,0.273779233,-0.273779233,cyan,1,-0.054755847,0.054755847,orange,1,-0.054755847,-0.16426754,yellow,1,0.16426754,0.054755847,blue,1,0.054755847,-0.273779233,red,0,-0.273779233,0.16426754,green,0,0.05,0.05,0.15,-0.054755847,0.054755847,green,l,382063,28,2020-08-20_17h50.38.615,CDT_GNG_IUS12,2020.1.2,Win32,60,,l,1,0.72872,0,64,64,36,1,,,,,,,,,,,,,,,,,,,,,,,,,,,,,,,,,,,,,,,,,,,,,,,,
,,,,,,,,,,56,different,4,0.16426754,0.054755847,red,1,-0.054755847,0.16426754,orange,1,0.16426754,-0.16426754,black,1,-0.273779233,-0.054755847,yellow,1,0.16426754,0.273779233,blue,0,-0.054755847,0.273779233,magenta,0,0.05,0.05,0.15,-0.273779233,-0.054755847,green,l,382063,28,2020-08-20_17h50.38.615,CDT_GNG_IUS12,2020.1.2,Win32,60,,l,1,0.911845,0,65,65,55,1,,,,,,,,,,,,,,,,,,,,,,,,,,,,,,,,,,,,,,,,,,,,,,,,
,,,,,,,,,,6,same,4,0.273779233,0.273779233,blue,1,-0.273779233,-0.16426754,magenta,1,-0.054755847,0.054755847,green,1,0.054755847,-0.054755847,black,1,0.054755847,0.054755847,orange,0,-0.054755847,-0.054755847,red,0,0.05,0.05,0.15,-0.054755847,0.054755847,green,k,382063,28,2020-08-20_17h50.38.615,CDT_GNG_IUS12,2020.1.2,Win32,60,,k,1,0.62486,0,66,66,5,1,,,,,,,,,,,,,,,,,,,,,,,,,,,,,,,,,,,,,,,,,,,,,,,,
,,,,,,,,,,116,different,6,-0.273779233,0.16426754,green,1,-0.054755847,-0.054755847,orange,1,0.273779233,-0.273779233,cyan,1,0.054755847,0.273779233,red,1,-0.054755847,0.16426754,blue,1,-0.16426754,-0.054755847,yellow,1,0.05,0.05,0.15,-0.054755847,-0.054755847,magenta,l,382063,28,2020-08-20_17h50.38.615,CDT_GNG_IUS12,2020.1.2,Win32,60,,l,1,0.76761,0,67,67,115,1,,,,,,,,,,,,,,,,,,,,,,,,,,,,,,,,,,,,,,,,,,,,,,,,
,,,,,,,,,,89,same,6,-0.054755847,-0.273779233,cyan,1,-0.16426754,0.16426754,green,1,0.273779233,0.273779233,black,1,0.273779233,-0.273779233,orange,1,-0.273779233,-0.16426754,magenta,1,-0.16426754,0.273779233,yellow,1,0.05,0.05,0.15,-0.16426754,0.273779233,yellow,k,382063,28,2020-08-20_17h50.38.615,CDT_GNG_IUS12,2020.1.2,Win32,60,,l,0,0.650215,0,68,68,88,1,,,,,,,,,,,,,,,,,,,,,,,,,,,,,,,,,,,,,,,,,,,,,,,,
,,,,,,,,,,104,different,6,0.054755847,-0.16426754,magenta,1,0.273779233,0.273779233,yellow,1,-0.273779233,0.273779233,blue,1,-0.16426754,-0.054755847,cyan,1,0.16426754,-0.054755847,orange,1,0.273779233,0.16426754,green,1,0.05,0.05,0.15,0.054755847,-0.16426754,cyan,l,382063,28,2020-08-20_17h50.38.615,CDT_GNG_IUS12,2020.1.2,Win32,60,,l,1,0.67591,0,69,69,103,1,,,,,,,,,,,,,,,,,,,,,,,,,,,,,,,,,,,,,,,,,,,,,,,,
,,,,,,,,,,17,same,4,0.16426754,0.273779233,yellow,1,-0.054755847,0.16426754,orange,1,0.273779233,-0.054755847,cyan,1,-0.273779233,-0.054755847,green,1,0.16426754,0.16426754,blue,0,-0.054755847,0.273779233,magenta,0,0.05,0.05,0.15,0.16426754,0.273779233,yellow,k,382063,28,2020-08-20_17h50.38.615,CDT_GNG_IUS12,2020.1.2,Win32,60,,k,1,0.860705,0,70,70,16,1,,,,,,,,,,,,,,,,,,,,,,,,,,,,,,,,,,,,,,,,,,,,,,,,
,,,,,,,,,,77,same,6,0.273779233,0.273779233,black,1,-0.273779233,-0.16426754,red,1,0.16426754,-0.054755847,magenta,1,-0.054755847,0.16426754,cyan,1,0.16426754,0.273779233,orange,1,-0.16426754,-0.273779233,blue,1,0.05,0.05,0.15,-0.273779233,-0.16426754,red,k,382063,28,2020-08-20_17h50.38.615,CDT_GNG_IUS12,2020.1.2,Win32,60,,l,0,1.656595,0,71,71,76,1,,,,,,,,,,,,,,,,,,,,,,,,,,,,,,,,,,,,,,,,,,,,,,,,
,,,,,,,,,,99,different,6,0.054755847,0.16426754,orange,1,0.16426754,-0.16426754,yellow,1,-0.16426754,0.273779233,red,1,-0.273779233,-0.054755847,magenta,1,0.16426754,0.054755847,black,1,0.054755847,-0.054755847,green,1,0.05,0.05,0.15,-0.16426754,0.273779233,blue,l,382063,28,2020-08-20_17h50.38.615,CDT_GNG_IUS12,2020.1.2,Win32,60,,l,1,0.65866,0,72,72,98,1,,,,,,,,,,,,,,,,,,,,,,,,,,,,,,,,,,,,,,,,,,,,,,,,
,,,,,,,,,,34,different,4,0.16426754,0.16426754,yellow,1,0.273779233,-0.16426754,cyan,1,-0.273779233,-0.273779233,magenta,1,-0.273779233,0.16426754,green,1,0.054755847,0.054755847,black,0,0.273779233,-0.273779233,orange,0,0.05,0.05,0.15,0.16426754,0.16426754,cyan,l,382063,28,2020-08-20_17h50.38.615,CDT_GNG_IUS12,2020.1.2,Win32,60,,l,1,0.79679,0,73,73,33,1,,,,,,,,,,,,,,,,,,,,,,,,,,,,,,,,,,,,,,,,,,,,,,,,
,,,,,,,,,,93,different,6,-0.16426754,0.16426754,red,1,0.054755847,-0.054755847,black,1,-0.054755847,-0.16426754,blue,1,0.054755847,0.273779233,magenta,1,-0.054755847,0.054755847,orange,1,0.16426754,-0.054755847,cyan,1,0.05,0.05,0.15,-0.054755847,-0.16426754,black,l,382063,28,2020-08-20_17h50.38.615,CDT_GNG_IUS12,2020.1.2,Win32,60,,l,1,0.857945,0,74,74,92,1,,,,,,,,,,,,,,,,,,,,,,,,,,,,,,,,,,,,,,,,,,,,,,,,
,,,,,,,,,,63,same,6,-0.273779233,0.273779233,red,1,-0.273779233,-0.16426754,orange,1,0.054755847,-0.273779233,black,1,0.16426754,0.16426754,cyan,1,-0.054755847,0.054755847,blue,1,-0.273779233,-0.054755847,magenta,1,0.05,0.05,0.15,-0.273779233,-0.054755847,magenta,k,382063,28,2020-08-20_17h50.38.615,CDT_GNG_IUS12,2020.1.2,Win32,60,,l,0,0.643765,0,75,75,62,1,,,,,,,,,,,,,,,,,,,,,,,,,,,,,,,,,,,,,,,,,,,,,,,,
,,,,,,,,,,119,different,6,-0.273779233,0.054755847,cyan,1,-0.273779233,-0.273779233,blue,1,0.16426754,0.054755847,orange,1,0.054755847,-0.16426754,yellow,1,-0.273779233,0.273779233,black,1,-0.054755847,-0.054755847,green,1,0.05,0.05,0.15,-0.273779233,-0.273779233,cyan,l,382063,28,2020-08-20_17h50.38.615,CDT_GNG_IUS12,2020.1.2,Win32,60,,l,1,0.766255,0,76,76,118,1,,,,,,,,,,,,,,,,,,,,,,,,,,,,,,,,,,,,,,,,,,,,,,,,
,,,,,,,,,,21,same,4,0.273779233,0.273779233,black,1,-0.273779233,-0.273779233,blue,1,0.054755847,-0.16426754,yellow,1,-0.273779233,0.054755847,cyan,1,0.16426754,0.273779233,magenta,0,-0.054755847,-0.054755847,green,0,0.05,0.05,0.15,0.273779233,0.273779233,black,k,382063,28,2020-08-20_17h50.38.615,CDT_GNG_IUS12,2020.1.2,Win32,60,,k,1,0.752035,0,77,77,20,1,,,,,,,,,,,,,,,,,,,,,,,,,,,,,,,,,,,,,,,,,,,,,,,,
,,,,,,,,,,73,same,6,0.054755847,0.16426754,blue,1,-0.273779233,0.273779233,red,1,-0.273779233,-0.16426754,green,1,0.054755847,-0.054755847,orange,1,0.16426754,0.16426754,black,1,-0.054755847,0.16426754,magenta,1,0.05,0.05,0.15,-0.273779233,0.273779233,red,k,382063,28,2020-08-20_17h50.38.615,CDT_GNG_IUS12,2020.1.2,Win32,60,,l,0,0.643485,0,78,78,72,1,,,,,,,,,,,,,,,,,,,,,,,,,,,,,,,,,,,,,,,,,,,,,,,,
,,,,,,,,,,66,same,6,0.273779233,-0.273779233,cyan,1,-0.273779233,-0.054755847,black,1,-0.273779233,0.054755847,yellow,1,0.273779233,0.16426754,green,1,0.054755847,-0.16426754,orange,1,-0.273779233,-0.16426754,magenta,1,0.05,0.05,0.15,0.273779233,0.16426754,green,k,382063,28,2020-08-20_17h50.38.615,CDT_GNG_IUS12,2020.1.2,Win32,60,,l,0,0.894115,0,79,79,65,1,,,,,,,,,,,,,,,,,,,,,,,,,,,,,,,,,,,,,,,,,,,,,,,,
,,,,,,,,,,52,different,4,-0.273779233,-0.16426754,magenta,1,-0.273779233,0.054755847,green,1,0.273779233,-0.054755847,cyan,1,0.273779233,0.054755847,black,1,-0.16426754,-0.16426754,orange,0,-0.054755847,0.054755847,red,0,0.05,0.05,0.15,-0.273779233,-0.16426754,black,l,382063,28,2020-08-20_17h50.38.615,CDT_GNG_IUS12,2020.1.2,Win32,60,,l,1,0.8716,0,80,80,51,1,,,,,,,,,,,,,,,,,,,,,,,,,,,,,,,,,,,,,,,,,,,,,,,,
,,,,,,,,,,64,same,6,0.16426754,0.273779233,black,1,-0.16426754,-0.16426754,orange,1,0.16426754,-0.16426754,red,1,-0.273779233,0.054755847,magenta,1,0.054755847,0.16426754,cyan,1,-0.054755847,-0.16426754,yellow,1,0.05,0.05,0.15,0.16426754,0.273779233,black,k,382063,28,2020-08-20_17h50.38.615,CDT_GNG_IUS12,2020.1.2,Win32,60,,k,1,0.568765,0,81,81,63,1,,,,,,,,,,,,,,,,,,,,,,,,,,,,,,,,,,,,,,,,,,,,,,,,
,,,,,,,,,,11,same,4,0.273779233,0.16426754,black,1,-0.054755847,0.273779233,cyan,1,0.16426754,-0.054755847,blue,1,-0.273779233,-0.16426754,orange,1,0.054755847,0.273779233,magenta,0,-0.273779233,0.054755847,green,0,0.05,0.05,0.15,0.273779233,0.16426754,black,k,382063,28,2020-08-20_17h50.38.615,CDT_GNG_IUS12,2020.1.2,Win32,60,,k,1,0.616915,0,82,82,10,1,,,,,,,,,,,,,,,,,,,,,,,,,,,,,,,,,,,,,,,,,,,,,,,,
,,,,,,,,,,115,different,6,-0.16426754,0.273779233,magenta,1,-0.273779233,-0.054755847,blue,1,0.273779233,0.273779233,red,1,0.054755847,-0.273779233,cyan,1,-0.054755847,0.16426754,green,1,-0.273779233,-0.273779233,yellow,1,0.05,0.05,0.15,-0.273779233,-0.054755847,yellow,l,382063,28,2020-08-20_17h50.38.615,CDT_GNG_IUS12,2020.1.2,Win32,60,,l,1,0.52307,0,83,83,114,1,,,,,,,,,,,,,,,,,,,,,,,,,,,,,,,,,,,,,,,,,,,,,,,,
,,,,,,,,,,80,same,6,-0.273779233,0.16426754,orange,1,0.054755847,-0.273779233,yellow,1,0.054755847,0.273779233,green,1,-0.16426754,-0.273779233,red,1,-0.16426754,0.273779233,blue,1,0.273779233,-0.16426754,black,1,0.05,0.05,0.15,0.054755847,-0.273779233,yellow,k,382063,28,2020-08-20_17h50.38.615,CDT_GNG_IUS12,2020.1.2,Win32,60,,l,0,1.467575,0,84,84,79,1,,,,,,,,,,,,,,,,,,,,,,,,,,,,,,,,,,,,,,,,,,,,,,,,
,,,,,,,,,,111,different,6,0.273779233,0.273779233,green,1,0.054755847,-0.16426754,red,1,-0.16426754,-0.16426754,black,1,-0.16426754,0.16426754,magenta,1,0.054755847,0.054755847,blue,1,0.273779233,-0.16426754,yellow,1,0.05,0.05,0.15,0.273779233,-0.16426754,green,l,382063,28,2020-08-20_17h50.38.615,CDT_GNG_IUS12,2020.1.2,Win32,60,,l,1,0.635805,0,85,85,110,1,,,,,,,,,,,,,,,,,,,,,,,,,,,,,,,,,,,,,,,,,,,,,,,,
,,,,,,,,,,94,different,6,0.273779233,-0.273779233,green,1,-0.16426754,-0.054755847,black,1,-0.273779233,0.16426754,blue,1,0.273779233,0.054755847,cyan,1,0.16426754,-0.16426754,magenta,1,-0.054755847,-0.054755847,orange,1,0.05,0.05,0.15,0.273779233,-0.273779233,magenta,l,382063,28,2020-08-20_17h50.38.615,CDT_GNG_IUS12,2020.1.2,Win32,60,,l,1,0.60682,0,86,86,93,1,,,,,,,,,,,,,,,,,,,,,,,,,,,,,,,,,,,,,,,,,,,,,,,,
,,,,,,,,,,32,different,4,-0.054755847,-0.273779233,green,1,-0.273779233,0.16426754,black,1,0.16426754,0.16426754,cyan,1,0.273779233,-0.16426754,yellow,1,-0.054755847,-0.054755847,blue,0,-0.054755847,0.273779233,orange,0,0.05,0.05,0.15,-0.054755847,-0.273779233,red,l,382063,28,2020-08-20_17h50.38.615,CDT_GNG_IUS12,2020.1.2,Win32,60,,l,1,0.579255,0,87,87,31,1,,,,,,,,,,,,,,,,,,,,,,,,,,,,,,,,,,,,,,,,,,,,,,,,
,,,,,,,,,,96,different,6,-0.16426754,-0.16426754,green,1,-0.16426754,0.054755847,black,1,0.054755847,0.16426754,cyan,1,0.16426754,-0.273779233,yellow,1,-0.273779233,-0.273779233,blue,1,-0.054755847,0.054755847,red,1,0.05,0.05,0.15,-0.16426754,0.054755847,magenta,l,382063,28,2020-08-20_17h50.38.615,CDT_GNG_IUS12,2020.1.2,Win32,60,,l,1,0.65747,0,88,88,95,1,,,,,,,,,,,,,,,,,,,,,,,,,,,,,,,,,,,,,,,,,,,,,,,,
,,,,,,,,,,10,same,4,0.273779233,0.273779233,green,1,-0.16426754,-0.054755847,yellow,1,-0.16426754,0.16426754,cyan,1,0.273779233,-0.16426754,blue,1,0.273779233,0.054755847,orange,0,-0.273779233,-0.16426754,red,0,0.05,0.05,0.15,0.273779233,0.273779233,green,k,382063,28,2020-08-20_17h50.38.615,CDT_GNG_IUS12,2020.1.2,Win32,60,,l,0,0.691735,0,89,89,9,1,,,,,,,,,,,,,,,,,,,,,,,,,,,,,,,,,,,,,,,,,,,,,,,,
,,,,,,,,,,76,same,6,0.16426754,0.054755847,cyan,1,0.273779233,-0.273779233,red,1,-0.054755847,-0.273779233,magenta,1,-0.054755847,0.16426754,yellow,1,0.054755847,0.273779233,blue,1,0.054755847,-0.273779233,green,1,0.05,0.05,0.15,0.16426754,0.054755847,cyan,k,382063,28,2020-08-20_17h50.38.615,CDT_GNG_IUS12,2020.1.2,Win32,60,,l,0,1.244285,0,90,90,75,1,,,,,,,,,,,,,,,,,,,,,,,,,,,,,,,,,,,,,,,,,,,,,,,,
,,,,,,,,,,58,different,4,-0.16426754,0.273779233,blue,1,0.16426754,0.273779233,yellow,1,0.273779233,-0.16426754,black,1,-0.16426754,-0.054755847,cyan,1,-0.16426754,0.16426754,green,0,0.16426754,0.054755847,orange,0,0.05,0.05,0.15,0.273779233,-0.16426754,magenta,l,382063,28,2020-08-20_17h50.38.615,CDT_GNG_IUS12,2020.1.2,Win32,60,,l,1,0.82381,0,91,91,57,1,,,,,,,,,,,,,,,,,,,,,,,,,,,,,,,,,,,,,,,,,,,,,,,,
,,,,,,,,,,84,same,6,-0.273779233,-0.16426754,black,1,0.273779233,0.273779233,blue,1,-0.054755847,0.054755847,red,1,0.16426754,-0.054755847,orange,1,-0.16426754,-0.16426754,cyan,1,0.16426754,0.16426754,magenta,1,0.05,0.05,0.15,-0.16426754,-0.16426754,cyan,k,382063,28,2020-08-20_17h50.38.615,CDT_GNG_IUS12,2020.1.2,Win32,60,,l,0,1.95547,0,92,92,83,1,,,,,,,,,,,,,,,,,,,,,,,,,,,,,,,,,,,,,,,,,,,,,,,,
,,,,,,,,,,12,same,4,0.054755847,0.054755847,blue,1,-0.273779233,-0.054755847,magenta,1,-0.054755847,0.273779233,black,1,0.16426754,-0.16426754,green,1,0.16426754,0.16426754,yellow,0,-0.16426754,-0.054755847,orange,0,0.05,0.05,0.15,0.054755847,0.054755847,blue,k,382063,28,2020-08-20_17h50.38.615,CDT_GNG_IUS12,2020.1.2,Win32,60,,k,1,0.585195,0,93,93,11,1,,,,,,,,,,,,,,,,,,,,,,,,,,,,,,,,,,,,,,,,,,,,,,,,
,,,,,,,,,,42,different,4,0.273779233,0.16426754,cyan,1,-0.054755847,0.16426754,magenta,1,0.16426754,-0.054755847,green,1,-0.16426754,-0.16426754,red,1,0.16426754,0.273779233,black,0,-0.054755847,0.273779233,yellow,0,0.05,0.05,0.15,0.273779233,0.16426754,blue,l,382063,28,2020-08-20_17h50.38.615,CDT_GNG_IUS12,2020.1.2,Win32,60,,l,1,0.685355,0,94,94,41,1,,,,,,,,,,,,,,,,,,,,,,,,,,,,,,,,,,,,,,,,,,,,,,,,
,,,,,,,,,,98,different,6,-0.054755847,-0.16426754,magenta,1,0.273779233,0.273779233,green,1,0.273779233,-0.273779233,red,1,-0.16426754,0.273779233,blue,1,-0.273779233,-0.16426754,cyan,1,0.273779233,0.054755847,black,1,0.05,0.05,0.15,-0.16426754,0.273779233,cyan,l,382063,28,2020-08-20_17h50.38.615,CDT_GNG_IUS12,2020.1.2,Win32,60,,l,1,3.623965,0,95,95,97,1,,,,,,,,,,,,,,,,,,,,,,,,,,,,,,,,,,,,,,,,,,,,,,,,
,,,,,,,,,,100,different,6,0.273779233,0.16426754,blue,1,-0.054755847,0.054755847,magenta,1,-0.273779233,-0.054755847,orange,1,0.273779233,-0.273779233,red,1,0.16426754,0.054755847,green,1,-0.273779233,0.054755847,yellow,1,0.05,0.05,0.15,0.273779233,0.16426754,orange,l,382063,28,2020-08-20_17h50.38.615,CDT_GNG_IUS12,2020.1.2,Win32,60,,l,1,0.73871,0,96,96,99,1,,,,,,,,,,,,,,,,,,,,,,,,,,,,,,,,,,,,,,,,,,,,,,,,
,,,,,,,,,,79,same,6,0.054755847,-0.16426754,black,1,-0.054755847,-0.273779233,yellow,1,-0.273779233,0.273779233,red,1,0.054755847,0.054755847,magenta,1,0.16426754,-0.054755847,cyan,1,-0.16426754,-0.054755847,orange,1,0.05,0.05,0.15,0.054755847,0.054755847,magenta,k,382063,28,2020-08-20_17h50.38.615,CDT_GNG_IUS12,2020.1.2,Win32,60,,l,0,0.81019,0,97,97,78,1,,,,,,,,,,,,,,,,,,,,,,,,,,,,,,,,,,,,,,,,,,,,,,,,
,,,,,,,,,,65,same,6,-0.273779233,-0.16426754,cyan,1,-0.054755847,0.054755847,blue,1,0.054755847,-0.054755847,red,1,0.273779233,0.054755847,green,1,-0.16426754,-0.054755847,orange,1,-0.273779233,0.273779233,yellow,1,0.05,0.05,0.15,-0.273779233,-0.16426754,cyan,k,382063,28,2020-08-20_17h50.38.615,CDT_GNG_IUS12,2020.1.2,Win32,60,,l,0,0.686625,0,98,98,64,1,,,,,,,,,,,,,,,,,,,,,,,,,,,,,,,,,,,,,,,,,,,,,,,,
,,,,,,,,,,109,different,6,-0.273779233,-0.16426754,blue,1,0.054755847,-0.16426754,black,1,-0.054755847,0.054755847,cyan,1,0.054755847,0.16426754,green,1,-0.054755847,-0.054755847,yellow,1,0.16426754,-0.273779233,orange,1,0.05,0.05,0.15,-0.273779233,-0.16426754,green,l,382063,28,2020-08-20_17h50.38.615,CDT_GNG_IUS12,2020.1.2,Win32,60,,l,1,0.535145,0,99,99,108,1,,,,,,,,,,,,,,,,,,,,,,,,,,,,,,,,,,,,,,,,,,,,,,,,
,,,,,,,,,,22,same,4,-0.054755847,-0.16426754,green,1,-0.16426754,0.054755847,blue,1,0.16426754,0.16426754,yellow,1,0.273779233,-0.054755847,black,1,-0.273779233,-0.054755847,red,0,-0.054755847,0.16426754,cyan,0,0.05,0.05,0.15,0.273779233,-0.054755847,black,k,382063,28,2020-08-20_17h50.38.615,CDT_GNG_IUS12,2020.1.2,Win32,60,,k,1,0.68612,0,100,100,21,1,,,,,,,,,,,,,,,,,,,,,,,,,,,,,,,,,,,,,,,,,,,,,,,,
,,,,,,,,,,18,same,4,-0.054755847,0.273779233,black,1,-0.16426754,-0.16426754,cyan,1,0.054755847,0.16426754,red,1,0.273779233,-0.273779233,magenta,1,-0.16426754,0.273779233,orange,0,-0.054755847,-0.273779233,green,0,0.05,0.05,0.15,0.273779233,-0.273779233,magenta,k,382063,28,2020-08-20_17h50.38.615,CDT_GNG_IUS12,2020.1.2,Win32,60,,k,1,0.84809,0,101,101,17,1,,,,,,,,,,,,,,,,,,,,,,,,,,,,,,,,,,,,,,,,,,,,,,,,
,,,,,,,,,,85,same,6,-0.16426754,-0.273779233,black,1,-0.16426754,0.16426754,green,1,0.16426754,-0.054755847,blue,1,0.054755847,0.054755847,magenta,1,-0.16426754,-0.054755847,red,1,-0.054755847,0.054755847,yellow,1,0.05,0.05,0.15,-0.16426754,-0.273779233,black,k,382063,28,2020-08-20_17h50.38.615,CDT_GNG_IUS12,2020.1.2,Win32,60,,l,0,1.21746,0,102,102,84,1,,,,,,,,,,,,,,,,,,,,,,,,,,,,,,,,,,,,,,,,,,,,,,,,
,,,,,,,,,,103,different,6,-0.273779233,-0.16426754,black,1,0.273779233,-0.054755847,cyan,1,0.054755847,0.273779233,magenta,1,-0.054755847,0.16426754,orange,1,-0.16426754,-0.16426754,green,1,0.273779233,-0.16426754,red,1,0.05,0.05,0.15,-0.273779233,-0.16426754,blue,l,382063,28,2020-08-20_17h50.38.615,CDT_GNG_IUS12,2020.1.2,Win32,60,,l,1,2.57465,0,103,103,102,1,,,,,,,,,,,,,,,,,,,,,,,,,,,,,,,,,,,,,,,,,,,,,,,,
,,,,,,,,,,113,different,6,-0.273779233,0.054755847,black,1,-0.16426754,-0.16426754,blue,1,0.054755847,-0.16426754,orange,1,0.16426754,0.16426754,red,1,-0.273779233,0.273779233,green,1,-0.273779233,-0.16426754,magenta,1,0.05,0.05,0.15,-0.273779233,-0.16426754,black,l,382063,28,2020-08-20_17h50.38.615,CDT_GNG_IUS12,2020.1.2,Win32,60,,l,1,0.64405,0,104,104,112,1,,,,,,,,,,,,,,,,,,,,,,,,,,,,,,,,,,,,,,,,,,,,,,,,
,,,,,,,,,,23,same,4,0.273779233,-0.16426754,yellow,1,0.054755847,0.273779233,red,1,-0.054755847,0.054755847,black,1,-0.273779233,-0.054755847,orange,1,0.273779233,-0.054755847,green,0,0.273779233,0.054755847,magenta,0,0.05,0.05,0.15,-0.054755847,0.054755847,black,k,382063,28,2020-08-20_17h50.38.615,CDT_GNG_IUS12,2020.1.2,Win32,60,,k,1,0.535495,0,105,105,22,1,,,,,,,,,,,,,,,,,,,,,,,,,,,,,,,,,,,,,,,,,,,,,,,,
,,,,,,,,,,86,same,6,0.054755847,0.273779233,green,1,-0.054755847,0.273779233,red,1,0.16426754,-0.16426754,yellow,1,-0.054755847,-0.273779233,black,1,0.273779233,0.273779233,cyan,1,-0.273779233,0.054755847,orange,1,0.05,0.05,0.15,-0.273779233,0.054755847,orange,k,382063,28,2020-08-20_17h50.38.615,CDT_GNG_IUS12,2020.1.2,Win32,60,,l,0,0.686365,0,106,106,85,1,,,,,,,,,,,,,,,,,,,,,,,,,,,,,,,,,,,,,,,,,,,,,,,,
,,,,,,,,,,110,different,6,-0.273779233,0.273779233,black,1,0.273779233,-0.16426754,red,1,0.054755847,0.273779233,cyan,1,-0.273779233,-0.16426754,orange,1,-0.054755847,0.054755847,magenta,1,0.16426754,-0.054755847,yellow,1,0.05,0.05,0.15,0.273779233,-0.16426754,yellow,l,382063,28,2020-08-20_17h50.38.615,CDT_GNG_IUS12,2020.1.2,Win32,60,,l,1,1.03133,0,107,107,109,1,,,,,,,,,,,,,,,,,,,,,,,,,,,,,,,,,,,,,,,,,,,,,,,,
,,,,,,,,,,75,same,6,0.16426754,0.273779233,magenta,1,-0.273779233,-0.16426754,green,1,-0.273779233,0.16426754,yellow,1,0.054755847,-0.054755847,red,1,0.273779233,0.054755847,blue,1,-0.16426754,-0.054755847,cyan,1,0.05,0.05,0.15,0.054755847,-0.054755847,red,k,382063,28,2020-08-20_17h50.38.615,CDT_GNG_IUS12,2020.1.2,Win32,60,,l,0,0.818885,0,108,108,74,1,,,,,,,,,,,,,,,,,,,,,,,,,,,,,,,,,,,,,,,,,,,,,,,,
,,,,,,,,,,1,same,4,-0.16426754,-0.273779233,orange,1,0.054755847,0.16426754,yellow,1,-0.16426754,0.16426754,green,1,0.054755847,-0.054755847,red,1,-0.273779233,-0.16426754,cyan,0,0.16426754,0.16426754,blue,0,0.05,0.05,0.15,0.054755847,0.16426754,yellow,k,382063,28,2020-08-20_17h50.38.615,CDT_GNG_IUS12,2020.1.2,Win32,60,,k,1,0.838205,0,109,109,0,1,,,,,,,,,,,,,,,,,,,,,,,,,,,,,,,,,,,,,,,,,,,,,,,,
,,,,,,,,,,9,same,4,-0.16426754,0.054755847,cyan,1,0.16426754,-0.16426754,magenta,1,-0.273779233,-0.054755847,black,1,0.054755847,0.054755847,green,1,-0.273779233,0.16426754,orange,0,0.273779233,-0.273779233,red,0,0.05,0.05,0.15,-0.273779233,-0.054755847,black,k,382063,28,2020-08-20_17h50.38.615,CDT_GNG_IUS12,2020.1.2,Win32,60,,k,1,0.9775,0,110,110,8,1,,,,,,,,,,,,,,,,,,,,,,,,,,,,,,,,,,,,,,,,,,,,,,,,
,,,,,,,,,,120,different,6,0.16426754,-0.054755847,blue,1,-0.16426754,-0.273779233,cyan,1,0.16426754,0.16426754,magenta,1,-0.273779233,0.273779233,black,1,0.273779233,-0.16426754,green,1,-0.273779233,-0.16426754,orange,1,0.05,0.05,0.15,0.16426754,0.16426754,yellow,l,382063,28,2020-08-20_17h50.38.615,CDT_GNG_IUS12,2020.1.2,Win32,60,,l,1,0.917865,0,111,111,119,1,,,,,,,,,,,,,,,,,,,,,,,,,,,,,,,,,,,,,,,,,,,,,,,,
,,,,,,,,,,78,same,6,0.054755847,0.054755847,black,1,-0.054755847,0.16426754,red,1,0.273779233,-0.273779233,blue,1,-0.054755847,-0.054755847,magenta,1,0.16426754,0.054755847,yellow,1,-0.273779233,0.16426754,cyan,1,0.05,0.05,0.15,-0.054755847,0.16426754,red,k,382063,28,2020-08-20_17h50.38.615,CDT_GNG_IUS12,2020.1.2,Win32,60,,l,0,0.80268,0,112,112,77,1,,,,,,,,,,,,,,,,,,,,,,,,,,,,,,,,,,,,,,,,,,,,,,,,
,,,,,,,,,,57,different,4,-0.273779233,-0.054755847,yellow,1,0.16426754,-0.054755847,green,1,-0.273779233,0.16426754,red,1,0.273779233,0.054755847,black,1,-0.16426754,-0.054755847,orange,0,0.054755847,-0.16426754,magenta,0,0.05,0.05,0.15,0.16426754,-0.054755847,orange,l,382063,28,2020-08-20_17h50.38.615,CDT_GNG_IUS12,2020.1.2,Win32,60,,l,1,0.706895,0,113,113,56,1,,,,,,,,,,,,,,,,,,,,,,,,,,,,,,,,,,,,,,,,,,,,,,,,
,,,,,,,,,,51,different,4,-0.16426754,-0.273779233,yellow,1,0.16426754,-0.273779233,cyan,1,0.273779233,0.054755847,blue,1,-0.054755847,0.273779233,green,1,-0.16426754,-0.054755847,black,0,0.273779233,-0.273779233,red,0,0.05,0.05,0.15,0.16426754,-0.273779233,red,l,382063,28,2020-08-20_17h50.38.615,CDT_GNG_IUS12,2020.1.2,Win32,60,,l,1,0.65938,0,114,114,50,1,,,,,,,,,,,,,,,,,,,,,,,,,,,,,,,,,,,,,,,,,,,,,,,,
,,,,,,,,,,72,same,6,0.273779233,-0.16426754,blue,1,0.16426754,0.273779233,yellow,1,-0.16426754,0.273779233,magenta,1,-0.273779233,-0.054755847,orange,1,0.054755847,-0.16426754,cyan,1,0.273779233,0.054755847,black,1,0.05,0.05,0.15,-0.16426754,0.273779233,magenta,k,382063,28,2020-08-20_17h50.38.615,CDT_GNG_IUS12,2020.1.2,Win32,60,,l,0,0.6454,0,115,115,71,1,,,,,,,,,,,,,,,,,,,,,,,,,,,,,,,,,,,,,,,,,,,,,,,,
,,,,,,,,,,61,same,6,0.273779233,0.16426754,cyan,1,0.273779233,-0.273779233,blue,1,-0.16426754,-0.16426754,green,1,-0.16426754,0.273779233,black,1,0.16426754,0.054755847,red,1,0.273779233,-0.16426754,yellow,1,0.05,0.05,0.15,0.273779233,-0.16426754,yellow,k,382063,28,2020-08-20_17h50.38.615,CDT_GNG_IUS12,2020.1.2,Win32,60,,l,0,0.528245,0,116,116,60,1,,,,,,,,,,,,,,,,,,,,,,,,,,,,,,,,,,,,,,,,,,,,,,,,
,,,,,,,,,,68,same,6,0.16426754,-0.054755847,blue,1,-0.054755847,-0.16426754,orange,1,-0.16426754,0.054755847,red,1,0.16426754,0.273779233,magenta,1,0.054755847,-0.054755847,black,1,-0.273779233,-0.273779233,yellow,1,0.05,0.05,0.15,-0.054755847,-0.16426754,orange,k,382063,28,2020-08-20_17h50.38.615,CDT_GNG_IUS12,2020.1.2,Win32,60,,k,1,0.879845,0,117,117,67,1,,,,,,,,,,,,,,,,,,,,,,,,,,,,,,,,,,,,,,,,,,,,,,,,
,,,,,,,,,,49,different,4,-0.16426754,-0.273779233,black,1,0.16426754,0.16426754,red,1,-0.273779233,0.16426754,yellow,1,0.054755847,-0.273779233,green,1,-0.273779233,-0.273779233,magenta,0,0.054755847,0.273779233,blue,0,0.05,0.05,0.15,0.054755847,-0.273779233,orange,l,382063,28,2020-08-20_17h50.38.615,CDT_GNG_IUS12,2020.1.2,Win32,60,,l,1,0.6517,0,118,118,48,1,,,,,,,,,,,,,,,,,,,,,,,,,,,,,,,,,,,,,,,,,,,,,,,,
,,,,,,,,,,118,different,6,-0.16426754,-0.16426754,red,1,0.273779233,0.16426754,orange,1,-0.16426754,0.273779233,cyan,1,0.16426754,-0.273779233,black,1,-0.054755847,-0.054755847,yellow,1,0.054755847,0.054755847,green,1,0.05,0.05,0.15,-0.054755847,-0.054755847,magenta,l,382063,28,2020-08-20_17h50.38.615,CDT_GNG_IUS12,2020.1.2,Win32,60,,l,1,0.660025,0,119,119,117,1,,,,,,,,,,,,,,,,,,,,,,,,,,,,,,,,,,,,,,,,,,,,,,,,
,,,,,,,,,,,,,,,,,,,,,,,,,,,,,,,,,,,,,,,,,,,space,382063,28,2020-08-20_17h50.38.615,CDT_GNG_IUS12,2020.1.2,Win32,60,,,,,,,,,,,0,0,0,0,5,1,0,1,,,,,,,,,,,,,,,,,,,,,,,,,,,,,,,,,,,,,,,
,,,,,,,,,,,,,,,,,,,,,,,,,,,,,,,,,,,,,,,,,,,,382063,28,2020-08-20_17h50.38.615,CDT_GNG_IUS12,2020.1.2,Win32,60,,,,,,,,,,,1,0,1,1,1,1,1,0,,,,,,,,,,,,,,,,,,,,,,,,,,,,,,,,,,,,,,,
,,,,,,,,,,,,,,,,,,,,,,,,,,,,,,,,,,,,,,,,,,,,382063,28,2020-08-20_17h50.38.615,CDT_GNG_IUS12,2020.1.2,Win32,60,,,,,,,,,,,1,0,2,2,3,1,1,0,,,,,,,,,,,,,,,,,,,,,,,,,,,,,,,,,,,,,,,
,,,,,,,,,,,,,,,,,,,,,,,,,,,,,,,,,,,,,,,,,,,space,382063,28,2020-08-20_17h50.38.615,CDT_GNG_IUS12,2020.1.2,Win32,60,,,,,,,,,,space,1,0,3,3,6,1,0,1,0.30178,,,,,,,,,,,,,,,,,,,,,,,,,,,,,,,,,,,,,,
,,,,,,,,,,,,,,,,,,,,,,,,,,,,,,,,,,,,,,,,,,,,382063,28,2020-08-20_17h50.38.615,CDT_GNG_IUS12,2020.1.2,Win32,60,,,,,,,,,,,1,0,4,4,2,1,1,0,,,,,,,,,,,,,,,,,,,,,,,,,,,,,,,,,,,,,,,
,,,,,,,,,,,,,,,,,,,,,,,,,,,,,,,,,,,,,,,,,,,space,382063,28,2020-08-20_17h50.38.615,CDT_GNG_IUS12,2020.1.2,Win32,60,,,,,,,,,,space,1,0,5,5,4,1,0,1,0.351455,,,,,,,,,,,,,,,,,,,,,,,,,,,,,,,,,,,,,,
,,,,,,,,,,,,,,,,,,,,,,,,,,,,,,,,,,,,,,,,,,,space,382063,28,2020-08-20_17h50.38.615,CDT_GNG_IUS12,2020.1.2,Win32,60,,,,,,,,,,space,1,0,6,6,7,1,0,1,0.39963,,,,,,,,,,,,,,,,,,,,,,,,,,,,,,,,,,,,,,
,,,,,,,,,,,,,,,,,,,,,,,,,,,,,,,,,,,,,,,,,,,,382063,28,2020-08-20_17h50.38.615,CDT_GNG_IUS12,2020.1.2,Win32,60,,,,,,,,,,,1,0,7,7,0,1,1,0,,,,,,,,,,,,,,,,,,,,,,,,,,,,,,,,,,,,,,,
,,,,,,,,,,,,,,,,,,,,,,,,,,,,,,,,,,,,,,,,,,,,382063,28,2020-08-20_17h50.38.615,CDT_GNG_IUS12,2020.1.2,Win32,60,,,,,,,,,,,,,,,,,1,0,,,1,0,0,0,9,1,,,,,,,,,,,,,,,,,,,,,,,,,,,,,,,
,,,,,,,,,,,,,,,,,,,,,,,,,,,,,,,,,,,,,,,,,,,space,382063,28,2020-08-20_17h50.38.615,CDT_GNG_IUS12,2020.1.2,Win32,60,,,,,,,,,,,,,,,,,0,1,,space,1,0,1,1,20,1,0.349205,,,,,,,,,,,,,,,,,,,,,,,,,,,,,,
,,,,,,,,,,,,,,,,,,,,,,,,,,,,,,,,,,,,,,,,,,,space,382063,28,2020-08-20_17h50.38.615,CDT_GNG_IUS12,2020.1.2,Win32,60,,,,,,,,,,,,,,,,,0,1,,space,1,0,2,2,21,1,0.40044,,,,,,,,,,,,,,,,,,,,,,,,,,,,,,
,,,,,,,,,,,,,,,,,,,,,,,,,,,,,,,,,,,,,,,,,,,,382063,28,2020-08-20_17h50.38.615,CDT_GNG_IUS12,2020.1.2,Win32,60,,,,,,,,,,,,,,,,,1,0,,,1,0,3,3,2,1,,,,,,,,,,,,,,,,,,,,,,,,,,,,,,,
,,,,,,,,,,,,,,,,,,,,,,,,,,,,,,,,,,,,,,,,,,,space,382063,28,2020-08-20_17h50.38.615,CDT_GNG_IUS12,2020.1.2,Win32,60,,,,,,,,,,,,,,,,,0,1,,space,1,0,4,4,32,1,0.249935,,,,,,,,,,,,,,,,,,,,,,,,,,,,,,
,,,,,,,,,,,,,,,,,,,,,,,,,,,,,,,,,,,,,,,,,,,space,382063,28,2020-08-20_17h50.38.615,CDT_GNG_IUS12,2020.1.2,Win32,60,,,,,,,,,,,,,,,,,0,1,,space,1,0,5,5,31,1,0.27882,,,,,,,,,,,,,,,,,,,,,,,,,,,,,,
,,,,,,,,,,,,,,,,,,,,,,,,,,,,,,,,,,,,,,,,,,,space,382063,28,2020-08-20_17h50.38.615,CDT_GNG_IUS12,2020.1.2,Win32,60,,,,,,,,,,,,,,,,,0,1,,space,1,0,6,6,18,1,0.381575,,,,,,,,,,,,,,,,,,,,,,,,,,,,,,
,,,,,,,,,,,,,,,,,,,,,,,,,,,,,,,,,,,,,,,,,,,,382063,28,2020-08-20_17h50.38.615,CDT_GNG_IUS12,2020.1.2,Win32,60,,,,,,,,,,,,,,,,,1,0,,,1,0,7,7,8,1,,,,,,,,,,,,,,,,,,,,,,,,,,,,,,,
,,,,,,,,,,,,,,,,,,,,,,,,,,,,,,,,,,,,,,,,,,,space,382063,28,2020-08-20_17h50.38.615,CDT_GNG_IUS12,2020.1.2,Win32,60,,,,,,,,,,,,,,,,,0,1,,space,1,0,8,8,43,1,0.25291,,,,,,,,,,,,,,,,,,,,,,,,,,,,,,
,,,,,,,,,,,,,,,,,,,,,,,,,,,,,,,,,,,,,,,,,,,space,382063,28,2020-08-20_17h50.38.615,CDT_GNG_IUS12,2020.1.2,Win32,60,,,,,,,,,,,,,,,,,0,1,,space,1,0,9,9,47,1,0.254505,,,,,,,,,,,,,,,,,,,,,,,,,,,,,,
,,,,,,,,,,,,,,,,,,,,,,,,,,,,,,,,,,,,,,,,,,,space,382063,28,2020-08-20_17h50.38.615,CDT_GNG_IUS12,2020.1.2,Win32,60,,,,,,,,,,,,,,,,,0,1,,space,1,0,10,10,37,1,0.34268,,,,,,,,,,,,,,,,,,,,,,,,,,,,,,
,,,,,,,,,,,,,,,,,,,,,,,,,,,,,,,,,,,,,,,,,,,space,382063,28,2020-08-20_17h50.38.615,CDT_GNG_IUS12,2020.1.2,Win32,60,,,,,,,,,,,,,,,,,0,1,,space,1,0,11,11,17,1,0.28457,,,,,,,,,,,,,,,,,,,,,,,,,,,,,,
,,,,,,,,,,,,,,,,,,,,,,,,,,,,,,,,,,,,,,,,,,,,382063,28,2020-08-20_17h50.38.615,CDT_GNG_IUS12,2020.1.2,Win32,60,,,,,,,,,,,,,,,,,1,0,,,1,0,12,12,6,1,,,,,,,,,,,,,,,,,,,,,,,,,,,,,,,
,,,,,,,,,,,,,,,,,,,,,,,,,,,,,,,,,,,,,,,,,,,space,382063,28,2020-08-20_17h50.38.615,CDT_GNG_IUS12,2020.1.2,Win32,60,,,,,,,,,,,,,,,,,0,1,,space,1,0,13,13,41,1,0.28618,,,,,,,,,,,,,,,,,,,,,,,,,,,,,,
,,,,,,,,,,,,,,,,,,,,,,,,,,,,,,,,,,,,,,,,,,,space,382063,28,2020-08-20_17h50.38.615,CDT_GNG_IUS12,2020.1.2,Win32,60,,,,,,,,,,,,,,,,,0,1,,space,1,0,14,14,12,1,0.315805,,,,,,,,,,,,,,,,,,,,,,,,,,,,,,
,,,,,,,,,,,,,,,,,,,,,,,,,,,,,,,,,,,,,,,,,,,space,382063,28,2020-08-20_17h50.38.615,CDT_GNG_IUS12,2020.1.2,Win32,60,,,,,,,,,,,,,,,,,0,1,,space,1,0,15,15,48,1,0.341405,,,,,,,,,,,,,,,,,,,,,,,,,,,,,,
,,,,,,,,,,,,,,,,,,,,,,,,,,,,,,,,,,,,,,,,,,,,382063,28,2020-08-20_17h50.38.615,CDT_GNG_IUS12,2020.1.2,Win32,60,,,,,,,,,,,,,,,,,1,0,,,1,0,16,16,3,1,,,,,,,,,,,,,,,,,,,,,,,,,,,,,,,
,,,,,,,,,,,,,,,,,,,,,,,,,,,,,,,,,,,,,,,,,,,space,382063,28,2020-08-20_17h50.38.615,CDT_GNG_IUS12,2020.1.2,Win32,60,,,,,,,,,,,,,,,,,0,1,,space,1,0,17,17,29,1,0.24322,,,,,,,,,,,,,,,,,,,,,,,,,,,,,,
,,,,,,,,,,,,,,,,,,,,,,,,,,,,,,,,,,,,,,,,,,,space,382063,28,2020-08-20_17h50.38.615,CDT_GNG_IUS12,2020.1.2,Win32,60,,,,,,,,,,,,,,,,,0,1,,space,1,0,18,18,28,1,0.27822,,,,,,,,,,,,,,,,,,,,,,,,,,,,,,
,,,,,,,,,,,,,,,,,,,,,,,,,,,,,,,,,,,,,,,,,,,space,382063,28,2020-08-20_17h50.38.615,CDT_GNG_IUS12,2020.1.2,Win32,60,,,,,,,,,,,,,,,,,0,1,,space,1,0,19,19,25,1,0.303915,,,,,,,,,,,,,,,,,,,,,,,,,,,,,,
,,,,,,,,,,,,,,,,,,,,,,,,,,,,,,,,,,,,,,,,,,,space,382063,28,2020-08-20_17h50.38.615,CDT_GNG_IUS12,2020.1.2,Win32,60,,,,,,,,,,,,,,,,,0,1,,space,1,0,20,20,34,1,0.32615,,,,,,,,,,,,,,,,,,,,,,,,,,,,,,
,,,,,,,,,,,,,,,,,,,,,,,,,,,,,,,,,,,,,,,,,,,space,382063,28,2020-08-20_17h50.38.615,CDT_GNG_IUS12,2020.1.2,Win32,60,,,,,,,,,,,,,,,,,0,1,,space,1,0,21,21,23,1,0.31042,,,,,,,,,,,,,,,,,,,,,,,,,,,,,,
,,,,,,,,,,,,,,,,,,,,,,,,,,,,,,,,,,,,,,,,,,,space,382063,28,2020-08-20_17h50.38.615,CDT_GNG_IUS12,2020.1.2,Win32,60,,,,,,,,,,,,,,,,,0,1,,space,1,0,22,22,46,1,0.31647,,,,,,,,,,,,,,,,,,,,,,,,,,,,,,
,,,,,,,,,,,,,,,,,,,,,,,,,,,,,,,,,,,,,,,,,,,,382063,28,2020-08-20_17h50.38.615,CDT_GNG_IUS12,2020.1.2,Win32,60,,,,,,,,,,,,,,,,,1,0,,,1,0,23,23,1,1,,,,,,,,,,,,,,,,,,,,,,,,,,,,,,,
,,,,,,,,,,,,,,,,,,,,,,,,,,,,,,,,,,,,,,,,,,,space,382063,28,2020-08-20_17h50.38.615,CDT_GNG_IUS12,2020.1.2,Win32,60,,,,,,,,,,,,,,,,,0,1,,space,1,0,24,24,22,1,0.301125,,,,,,,,,,,,,,,,,,,,,,,,,,,,,,
,,,,,,,,,,,,,,,,,,,,,,,,,,,,,,,,,,,,,,,,,,,space,382063,28,2020-08-20_17h50.38.615,CDT_GNG_IUS12,2020.1.2,Win32,60,,,,,,,,,,,,,,,,,0,1,,space,1,0,25,25,33,1,0.341455,,,,,,,,,,,,,,,,,,,,,,,,,,,,,,
,,,,,,,,,,,,,,,,,,,,,,,,,,,,,,,,,,,,,,,,,,,,382063,28,2020-08-20_17h50.38.615,CDT_GNG_IUS12,2020.1.2,Win32,60,,,,,,,,,,,,,,,,,1,0,,,1,0,26,26,7,1,,,,,,,,,,,,,,,,,,,,,,,,,,,,,,,
,,,,,,,,,,,,,,,,,,,,,,,,,,,,,,,,,,,,,,,,,,,,382063,28,2020-08-20_17h50.38.615,CDT_GNG_IUS12,2020.1.2,Win32,60,,,,,,,,,,,,,,,,,1,0,,space,0,0,27,27,0,1,0.24427,,,,,,,,,,,,,,,,,,,,,,,,,,,,,,
,,,,,,,,,,,,,,,,,,,,,,,,,,,,,,,,,,,,,,,,,,,space,382063,28,2020-08-20_17h50.38.615,CDT_GNG_IUS12,2020.1.2,Win32,60,,,,,,,,,,,,,,,,,0,1,,space,1,0,28,28,49,1,0.4173,,,,,,,,,,,,,,,,,,,,,,,,,,,,,,
,,,,,,,,,,,,,,,,,,,,,,,,,,,,,,,,,,,,,,,,,,,space,382063,28,2020-08-20_17h50.38.615,CDT_GNG_IUS12,2020.1.2,Win32,60,,,,,,,,,,,,,,,,,0,1,,space,1,0,29,29,30,1,0.284655,,,,,,,,,,,,,,,,,,,,,,,,,,,,,,
,,,,,,,,,,,,,,,,,,,,,,,,,,,,,,,,,,,,,,,,,,,space,382063,28,2020-08-20_17h50.38.615,CDT_GNG_IUS12,2020.1.2,Win32,60,,,,,,,,,,,,,,,,,0,1,,space,1,0,30,30,24,1,0.35709,,,,,,,,,,,,,,,,,,,,,,,,,,,,,,
,,,,,,,,,,,,,,,,,,,,,,,,,,,,,,,,,,,,,,,,,,,space,382063,28,2020-08-20_17h50.38.615,CDT_GNG_IUS12,2020.1.2,Win32,60,,,,,,,,,,,,,,,,,0,1,,space,1,0,31,31,35,1,0.317115,,,,,,,,,,,,,,,,,,,,,,,,,,,,,,
,,,,,,,,,,,,,,,,,,,,,,,,,,,,,,,,,,,,,,,,,,,space,382063,28,2020-08-20_17h50.38.615,CDT_GNG_IUS12,2020.1.2,Win32,60,,,,,,,,,,,,,,,,,0,1,,space,1,0,32,32,10,1,0.340255,,,,,,,,,,,,,,,,,,,,,,,,,,,,,,
,,,,,,,,,,,,,,,,,,,,,,,,,,,,,,,,,,,,,,,,,,,space,382063,28,2020-08-20_17h50.38.615,CDT_GNG_IUS12,2020.1.2,Win32,60,,,,,,,,,,,,,,,,,0,1,,space,1,0,33,33,42,1,0.447875,,,,,,,,,,,,,,,,,,,,,,,,,,,,,,
,,,,,,,,,,,,,,,,,,,,,,,,,,,,,,,,,,,,,,,,,,,space,382063,28,2020-08-20_17h50.38.615,CDT_GNG_IUS12,2020.1.2,Win32,60,,,,,,,,,,,,,,,,,0,1,,space,1,0,34,34,40,1,0.333555,,,,,,,,,,,,,,,,,,,,,,,,,,,,,,
,,,,,,,,,,,,,,,,,,,,,,,,,,,,,,,,,,,,,,,,,,,space,382063,28,2020-08-20_17h50.38.615,CDT_GNG_IUS12,2020.1.2,Win32,60,,,,,,,,,,,,,,,,,0,1,,space,1,0,35,35,36,1,0.25974,,,,,,,,,,,,,,,,,,,,,,,,,,,,,,
,,,,,,,,,,,,,,,,,,,,,,,,,,,,,,,,,,,,,,,,,,,,382063,28,2020-08-20_17h50.38.615,CDT_GNG_IUS12,2020.1.2,Win32,60,,,,,,,,,,,,,,,,,1,0,,,1,0,36,36,5,1,,,,,,,,,,,,,,,,,,,,,,,,,,,,,,,
,,,,,,,,,,,,,,,,,,,,,,,,,,,,,,,,,,,,,,,,,,,space,382063,28,2020-08-20_17h50.38.615,CDT_GNG_IUS12,2020.1.2,Win32,60,,,,,,,,,,,,,,,,,0,1,,space,1,0,37,37,15,1,0.26826,,,,,,,,,,,,,,,,,,,,,,,,,,,,,,
,,,,,,,,,,,,,,,,,,,,,,,,,,,,,,,,,,,,,,,,,,,space,382063,28,2020-08-20_17h50.38.615,CDT_GNG_IUS12,2020.1.2,Win32,60,,,,,,,,,,,,,,,,,0,1,,space,1,0,38,38,19,1,0.28458,,,,,,,,,,,,,,,,,,,,,,,,,,,,,,
,,,,,,,,,,,,,,,,,,,,,,,,,,,,,,,,,,,,,,,,,,,space,382063,28,2020-08-20_17h50.38.615,CDT_GNG_IUS12,2020.1.2,Win32,60,,,,,,,,,,,,,,,,,0,1,,space,1,0,39,39,44,1,0.29968,,,,,,,,,,,,,,,,,,,,,,,,,,,,,,
,,,,,,,,,,,,,,,,,,,,,,,,,,,,,,,,,,,,,,,,,,,space,382063,28,2020-08-20_17h50.38.615,CDT_GNG_IUS12,2020.1.2,Win32,60,,,,,,,,,,,,,,,,,0,1,,space,1,0,40,40,39,1,0.27601,,,,,,,,,,,,,,,,,,,,,,,,,,,,,,
,,,,,,,,,,,,,,,,,,,,,,,,,,,,,,,,,,,,,,,,,,,space,382063,28,2020-08-20_17h50.38.615,CDT_GNG_IUS12,2020.1.2,Win32,60,,,,,,,,,,,,,,,,,0,1,,space,1,0,41,41,26,1,0.383265,,,,,,,,,,,,,,,,,,,,,,,,,,,,,,
,,,,,,,,,,,,,,,,,,,,,,,,,,,,,,,,,,,,,,,,,,,space,382063,28,2020-08-20_17h50.38.615,CDT_GNG_IUS12,2020.1.2,Win32,60,,,,,,,,,,,,,,,,,0,1,,space,1,0,42,42,27,1,0.40399,,,,,,,,,,,,,,,,,,,,,,,,,,,,,,
,,,,,,,,,,,,,,,,,,,,,,,,,,,,,,,,,,,,,,,,,,,space,382063,28,2020-08-20_17h50.38.615,CDT_GNG_IUS12,2020.1.2,Win32,60,,,,,,,,,,,,,,,,,0,1,,space,1,0,43,43,13,1,0.348415,,,,,,,,,,,,,,,,,,,,,,,,,,,,,,
,,,,,,,,,,,,,,,,,,,,,,,,,,,,,,,,,,,,,,,,,,,space,382063,28,2020-08-20_17h50.38.615,CDT_GNG_IUS12,2020.1.2,Win32,60,,,,,,,,,,,,,,,,,0,1,,space,1,0,44,44,11,1,0.352035,,,,,,,,,,,,,,,,,,,,,,,,,,,,,,
,,,,,,,,,,,,,,,,,,,,,,,,,,,,,,,,,,,,,,,,,,,space,382063,28,2020-08-20_17h50.38.615,CDT_GNG_IUS12,2020.1.2,Win32,60,,,,,,,,,,,,,,,,,0,1,,space,1,0,45,45,16,1,0.36532,,,,,,,,,,,,,,,,,,,,,,,,,,,,,,
,,,,,,,,,,,,,,,,,,,,,,,,,,,,,,,,,,,,,,,,,,,,382063,28,2020-08-20_17h50.38.615,CDT_GNG_IUS12,2020.1.2,Win32,60,,,,,,,,,,,,,,,,,1,0,,,1,0,46,46,4,1,,,,,,,,,,,,,,,,,,,,,,,,,,,,,,,
,,,,,,,,,,,,,,,,,,,,,,,,,,,,,,,,,,,,,,,,,,,space,382063,28,2020-08-20_17h50.38.615,CDT_GNG_IUS12,2020.1.2,Win32,60,,,,,,,,,,,,,,,,,0,1,,space,1,0,47,47,14,1,0.25953,,,,,,,,,,,,,,,,,,,,,,,,,,,,,,
,,,,,,,,,,,,,,,,,,,,,,,,,,,,,,,,,,,,,,,,,,,space,382063,28,2020-08-20_17h50.38.615,CDT_GNG_IUS12,2020.1.2,Win32,60,,,,,,,,,,,,,,,,,0,1,,space,1,0,48,48,45,1,0.32358,,,,,,,,,,,,,,,,,,,,,,,,,,,,,,
,,,,,,,,,,,,,,,,,,,,,,,,,,,,,,,,,,,,,,,,,,,space,382063,28,2020-08-20_17h50.38.615,CDT_GNG_IUS12,2020.1.2,Win32,60,,,,,,,,,,,,,,,,,0,1,,space,1,0,49,49,38,1,0.29229,,,,,,,,,,,,,,,,,,,,,,,,,,,,,,
,,,,,,,,,,,,,,,,,,,,,,,,,,,,,,,,,,,,,,,,,,,space,382063,28,2020-08-20_17h50.38.615,CDT_GNG_IUS12,2020.1.2,Win32,60,,,,,,,,,,,,,,,,,0,1,,space,1,,,,,,0.34519,0,0,0,32,1,,,,,,,,,,,,,,,,,,,,,,,,,
,,,,,,,,,,,,,,,,,,,,,,,,,,,,,,,,,,,,,,,,,,,,382063,28,2020-08-20_17h50.38.615,CDT_GNG_IUS12,2020.1.2,Win32,60,,,,,,,,,,,,,,,,,1,0,,,1,,,,,,,0,1,1,0,1,,,,,,,,,,,,,,,,,,,,,,,,,
,,,,,,,,,,,,,,,,,,,,,,,,,,,,,,,,,,,,,,,,,,,space,382063,28,2020-08-20_17h50.38.615,CDT_GNG_IUS12,2020.1.2,Win32,60,,,,,,,,,,,,,,,,,0,1,,space,1,,,,,,0.23005,0,2,2,45,1,,,,,,,,,,,,,,,,,,,,,,,,,
,,,,,,,,,,,,,,,,,,,,,,,,,,,,,,,,,,,,,,,,,,,,382063,28,2020-08-20_17h50.38.615,CDT_GNG_IUS12,2020.1.2,Win32,60,,,,,,,,,,,,,,,,,1,0,,,1,,,,,,,0,3,3,7,1,,,,,,,,,,,,,,,,,,,,,,,,,
,,,,,,,,,,,,,,,,,,,,,,,,,,,,,,,,,,,,,,,,,,,space,382063,28,2020-08-20_17h50.38.615,CDT_GNG_IUS12,2020.1.2,Win32,60,,,,,,,,,,,,,,,,,0,1,,space,1,,,,,,0.244155,0,4,4,21,1,,,,,,,,,,,,,,,,,,,,,,,,,
,,,,,,,,,,,,,,,,,,,,,,,,,,,,,,,,,,,,,,,,,,,space,382063,28,2020-08-20_17h50.38.615,CDT_GNG_IUS12,2020.1.2,Win32,60,,,,,,,,,,,,,,,,,0,1,,space,1,,,,,,0.30193,0,5,5,22,1,,,,,,,,,,,,,,,,,,,,,,,,,
,,,,,,,,,,,,,,,,,,,,,,,,,,,,,,,,,,,,,,,,,,,space,382063,28,2020-08-20_17h50.38.615,CDT_GNG_IUS12,2020.1.2,Win32,60,,,,,,,,,,,,,,,,,0,1,,space,1,,,,,,0.261215,0,6,6,27,1,,,,,,,,,,,,,,,,,,,,,,,,,
,,,,,,,,,,,,,,,,,,,,,,,,,,,,,,,,,,,,,,,,,,,,382063,28,2020-08-20_17h50.38.615,CDT_GNG_IUS12,2020.1.2,Win32,60,,,,,,,,,,,,,,,,,1,0,,,1,,,,,,,0,7,7,2,1,,,,,,,,,,,,,,,,,,,,,,,,,
,,,,,,,,,,,,,,,,,,,,,,,,,,,,,,,,,,,,,,,,,,,space,382063,28,2020-08-20_17h50.38.615,CDT_GNG_IUS12,2020.1.2,Win32,60,,,,,,,,,,,,,,,,,0,1,,space,1,,,,,,0.23257,0,8,8,29,1,,,,,,,,,,,,,,,,,,,,,,,,,
,,,,,,,,,,,,,,,,,,,,,,,,,,,,,,,,,,,,,,,,,,,space,382063,28,2020-08-20_17h50.38.615,CDT_GNG_IUS12,2020.1.2,Win32,60,,,,,,,,,,,,,,,,,0,1,,space,1,,,,,,0.25228,0,9,9,43,1,,,,,,,,,,,,,,,,,,,,,,,,,
,,,,,,,,,,,,,,,,,,,,,,,,,,,,,,,,,,,,,,,,,,,space,382063,28,2020-08-20_17h50.38.615,CDT_GNG_IUS12,2020.1.2,Win32,60,,,,,,,,,,,,,,,,,0,1,,space,1,,,,,,0.23784,0,10,10,41,1,,,,,,,,,,,,,,,,,,,,,,,,,
,,,,,,,,,,,,,,,,,,,,,,,,,,,,,,,,,,,,,,,,,,,space,382063,28,2020-08-20_17h50.38.615,CDT_GNG_IUS12,2020.1.2,Win32,60,,,,,,,,,,,,,,,,,0,1,,space,1,,,,,,0.277245,0,11,11,24,1,,,,,,,,,,,,,,,,,,,,,,,,,
,,,,,,,,,,,,,,,,,,,,,,,,,,,,,,,,,,,,,,,,,,,space,382063,28,2020-08-20_17h50.38.615,CDT_GNG_IUS12,2020.1.2,Win32,60,,,,,,,,,,,,,,,,,0,1,,space,1,,,,,,0.293505,0,12,12,16,1,,,,,,,,,,,,,,,,,,,,,,,,,
,,,,,,,,,,,,,,,,,,,,,,,,,,,,,,,,,,,,,,,,,,,,382063,28,2020-08-20_17h50.38.615,CDT_GNG_IUS12,2020.1.2,Win32,60,,,,,,,,,,,,,,,,,1,0,,,1,,,,,,,0,13,13,6,1,,,,,,,,,,,,,,,,,,,,,,,,,
,,,,,,,,,,,,,,,,,,,,,,,,,,,,,,,,,,,,,,,,,,,space,382063,28,2020-08-20_17h50.38.615,CDT_GNG_IUS12,2020.1.2,Win32,60,,,,,,,,,,,,,,,,,0,1,,space,1,,,,,,0.24604,0,14,14,49,1,,,,,,,,,,,,,,,,,,,,,,,,,
,,,,,,,,,,,,,,,,,,,,,,,,,,,,,,,,,,,,,,,,,,,space,382063,28,2020-08-20_17h50.38.615,CDT_GNG_IUS12,2020.1.2,Win32,60,,,,,,,,,,,,,,,,,0,1,,space,1,,,,,,0.261915,0,15,15,35,1,,,,,,,,,,,,,,,,,,,,,,,,,
,,,,,,,,,,,,,,,,,,,,,,,,,,,,,,,,,,,,,,,,,,,,382063,28,2020-08-20_17h50.38.615,CDT_GNG_IUS12,2020.1.2,Win32,60,,,,,,,,,,,,,,,,,1,0,,,1,,,,,,,0,16,16,3,1,,,,,,,,,,,,,,,,,,,,,,,,,
,,,,,,,,,,,,,,,,,,,,,,,,,,,,,,,,,,,,,,,,,,,space,382063,28,2020-08-20_17h50.38.615,CDT_GNG_IUS12,2020.1.2,Win32,60,,,,,,,,,,,,,,,,,0,1,,space,1,,,,,,0.24534,0,17,17,15,1,,,,,,,,,,,,,,,,,,,,,,,,,
,,,,,,,,,,,,,,,,,,,,,,,,,,,,,,,,,,,,,,,,,,,space,382063,28,2020-08-20_17h50.38.615,CDT_GNG_IUS12,2020.1.2,Win32,60,,,,,,,,,,,,,,,,,0,1,,space,1,,,,,,0.244545,0,18,18,11,1,,,,,,,,,,,,,,,,,,,,,,,,,
,,,,,,,,,,,,,,,,,,,,,,,,,,,,,,,,,,,,,,,,,,,,382063,28,2020-08-20_17h50.38.615,CDT_GNG_IUS12,2020.1.2,Win32,60,,,,,,,,,,,,,,,,,1,0,,space,0,,,,,,0.269465,0,19,19,9,1,,,,,,,,,,,,,,,,,,,,,,,,,
,,,,,,,,,,,,,,,,,,,,,,,,,,,,,,,,,,,,,,,,,,,space,382063,28,2020-08-20_17h50.38.615,CDT_GNG_IUS12,2020.1.2,Win32,60,,,,,,,,,,,,,,,,,0,1,,space,1,,,,,,0.317335,0,20,20,40,1,,,,,,,,,,,,,,,,,,,,,,,,,
,,,,,,,,,,,,,,,,,,,,,,,,,,,,,,,,,,,,,,,,,,,space,382063,28,2020-08-20_17h50.38.615,CDT_GNG_IUS12,2020.1.2,Win32,60,,,,,,,,,,,,,,,,,0,1,,space,1,,,,,,0.35614,0,21,21,37,1,,,,,,,,,,,,,,,,,,,,,,,,,
,,,,,,,,,,,,,,,,,,,,,,,,,,,,,,,,,,,,,,,,,,,space,382063,28,2020-08-20_17h50.38.615,CDT_GNG_IUS12,2020.1.2,Win32,60,,,,,,,,,,,,,,,,,0,1,,space,1,,,,,,0.341295,0,22,22,14,1,,,,,,,,,,,,,,,,,,,,,,,,,
,,,,,,,,,,,,,,,,,,,,,,,,,,,,,,,,,,,,,,,,,,,,382063,28,2020-08-20_17h50.38.615,CDT_GNG_IUS12,2020.1.2,Win32,60,,,,,,,,,,,,,,,,,1,0,,,1,,,,,,,0,23,23,1,1,,,,,,,,,,,,,,,,,,,,,,,,,
,,,,,,,,,,,,,,,,,,,,,,,,,,,,,,,,,,,,,,,,,,,space,382063,28,2020-08-20_17h50.38.615,CDT_GNG_IUS12,2020.1.2,Win32,60,,,,,,,,,,,,,,,,,0,1,,space,1,,,,,,0.25293,0,24,24,17,1,,,,,,,,,,,,,,,,,,,,,,,,,
,,,,,,,,,,,,,,,,,,,,,,,,,,,,,,,,,,,,,,,,,,,space,382063,28,2020-08-20_17h50.38.615,CDT_GNG_IUS12,2020.1.2,Win32,60,,,,,,,,,,,,,,,,,0,1,,space,1,,,,,,0.268535,0,25,25,33,1,,,,,,,,,,,,,,,,,,,,,,,,,
,,,,,,,,,,,,,,,,,,,,,,,,,,,,,,,,,,,,,,,,,,,,382063,28,2020-08-20_17h50.38.615,CDT_GNG_IUS12,2020.1.2,Win32,60,,,,,,,,,,,,,,,,,1,0,,,1,,,,,,,0,26,26,5,1,,,,,,,,,,,,,,,,,,,,,,,,,
,,,,,,,,,,,,,,,,,,,,,,,,,,,,,,,,,,,,,,,,,,,space,382063,28,2020-08-20_17h50.38.615,CDT_GNG_IUS12,2020.1.2,Win32,60,,,,,,,,,,,,,,,,,0,1,,space,1,,,,,,0.26938,0,27,27,38,1,,,,,,,,,,,,,,,,,,,,,,,,,
,,,,,,,,,,,,,,,,,,,,,,,,,,,,,,,,,,,,,,,,,,,,382063,28,2020-08-20_17h50.38.615,CDT_GNG_IUS12,2020.1.2,Win32,60,,,,,,,,,,,,,,,,,1,0,,,1,,,,,,,0,28,28,8,1,,,,,,,,,,,,,,,,,,,,,,,,,
,,,,,,,,,,,,,,,,,,,,,,,,,,,,,,,,,,,,,,,,,,,space,382063,28,2020-08-20_17h50.38.615,CDT_GNG_IUS12,2020.1.2,Win32,60,,,,,,,,,,,,,,,,,0,1,,space,1,,,,,,0.23536,0,29,29,34,1,,,,,,,,,,,,,,,,,,,,,,,,,
,,,,,,,,,,,,,,,,,,,,,,,,,,,,,,,,,,,,,,,,,,,space,382063,28,2020-08-20_17h50.38.615,CDT_GNG_IUS12,2020.1.2,Win32,60,,,,,,,,,,,,,,,,,0,1,,space,1,,,,,,0.276945,0,30,30,10,1,,,,,,,,,,,,,,,,,,,,,,,,,
,,,,,,,,,,,,,,,,,,,,,,,,,,,,,,,,,,,,,,,,,,,space,382063,28,2020-08-20_17h50.38.615,CDT_GNG_IUS12,2020.1.2,Win32,60,,,,,,,,,,,,,,,,,0,1,,space,1,,,,,,0.29977,0,31,31,20,1,,,,,,,,,,,,,,,,,,,,,,,,,
,,,,,,,,,,,,,,,,,,,,,,,,,,,,,,,,,,,,,,,,,,,space,382063,28,2020-08-20_17h50.38.615,CDT_GNG_IUS12,2020.1.2,Win32,60,,,,,,,,,,,,,,,,,0,1,,space,1,,,,,,0.284535,0,32,32,36,1,,,,,,,,,,,,,,,,,,,,,,,,,
,,,,,,,,,,,,,,,,,,,,,,,,,,,,,,,,,,,,,,,,,,,space,382063,28,2020-08-20_17h50.38.615,CDT_GNG_IUS12,2020.1.2,Win32,60,,,,,,,,,,,,,,,,,0,1,,space,1,,,,,,0.2914,0,33,33,19,1,,,,,,,,,,,,,,,,,,,,,,,,,
,,,,,,,,,,,,,,,,,,,,,,,,,,,,,,,,,,,,,,,,,,,space,382063,28,2020-08-20_17h50.38.615,CDT_GNG_IUS12,2020.1.2,Win32,60,,,,,,,,,,,,,,,,,0,1,,space,1,,,,,,0.315995,0,34,34,26,1,,,,,,,,,,,,,,,,,,,,,,,,,
,,,,,,,,,,,,,,,,,,,,,,,,,,,,,,,,,,,,,,,,,,,space,382063,28,2020-08-20_17h50.38.615,CDT_GNG_IUS12,2020.1.2,Win32,60,,,,,,,,,,,,,,,,,0,1,,space,1,,,,,,0.25913,0,35,35,39,1,,,,,,,,,,,,,,,,,,,,,,,,,
,,,,,,,,,,,,,,,,,,,,,,,,,,,,,,,,,,,,,,,,,,,space,382063,28,2020-08-20_17h50.38.615,CDT_GNG_IUS12,2020.1.2,Win32,60,,,,,,,,,,,,,,,,,0,1,,space,1,,,,,,0.235755,0,36,36,12,1,,,,,,,,,,,,,,,,,,,,,,,,,
,,,,,,,,,,,,,,,,,,,,,,,,,,,,,,,,,,,,,,,,,,,space,382063,28,2020-08-20_17h50.38.615,CDT_GNG_IUS12,2020.1.2,Win32,60,,,,,,,,,,,,,,,,,0,1,,space,1,,,,,,0.25177,0,37,37,47,1,,,,,,,,,,,,,,,,,,,,,,,,,
,,,,,,,,,,,,,,,,,,,,,,,,,,,,,,,,,,,,,,,,,,,space,382063,28,2020-08-20_17h50.38.615,CDT_GNG_IUS12,2020.1.2,Win32,60,,,,,,,,,,,,,,,,,0,1,,space,1,,,,,,0.22702,0,38,38,30,1,,,,,,,,,,,,,,,,,,,,,,,,,
,,,,,,,,,,,,,,,,,,,,,,,,,,,,,,,,,,,,,,,,,,,space,382063,28,2020-08-20_17h50.38.615,CDT_GNG_IUS12,2020.1.2,Win32,60,,,,,,,,,,,,,,,,,0,1,,space,1,,,,,,0.252125,0,39,39,28,1,,,,,,,,,,,,,,,,,,,,,,,,,
,,,,,,,,,,,,,,,,,,,,,,,,,,,,,,,,,,,,,,,,,,,space,382063,28,2020-08-20_17h50.38.615,CDT_GNG_IUS12,2020.1.2,Win32,60,,,,,,,,,,,,,,,,,0,1,,space,1,,,,,,0.274815,0,40,40,25,1,,,,,,,,,,,,,,,,,,,,,,,,,
,,,,,,,,,,,,,,,,,,,,,,,,,,,,,,,,,,,,,,,,,,,space,382063,28,2020-08-20_17h50.38.615,CDT_GNG_IUS12,2020.1.2,Win32,60,,,,,,,,,,,,,,,,,0,1,,space,1,,,,,,0.267835,0,41,41,46,1,,,,,,,,,,,,,,,,,,,,,,,,,
,,,,,,,,,,,,,,,,,,,,,,,,,,,,,,,,,,,,,,,,,,,space,382063,28,2020-08-20_17h50.38.615,CDT_GNG_IUS12,2020.1.2,Win32,60,,,,,,,,,,,,,,,,,0,1,,space,1,,,,,,0.275855,0,42,42,18,1,,,,,,,,,,,,,,,,,,,,,,,,,
,,,,,,,,,,,,,,,,,,,,,,,,,,,,,,,,,,,,,,,,,,,,382063,28,2020-08-20_17h50.38.615,CDT_GNG_IUS12,2020.1.2,Win32,60,,,,,,,,,,,,,,,,,1,0,,space,0,,,,,,0.28326,0,43,43,4,1,,,,,,,,,,,,,,,,,,,,,,,,,
,,,,,,,,,,,,,,,,,,,,,,,,,,,,,,,,,,,,,,,,,,,space,382063,28,2020-08-20_17h50.38.615,CDT_GNG_IUS12,2020.1.2,Win32,60,,,,,,,,,,,,,,,,,0,1,,space,1,,,,,,0.20325,0,44,44,44,1,,,,,,,,,,,,,,,,,,,,,,,,,
,,,,,,,,,,,,,,,,,,,,,,,,,,,,,,,,,,,,,,,,,,,space,382063,28,2020-08-20_17h50.38.615,CDT_GNG_IUS12,2020.1.2,Win32,60,,,,,,,,,,,,,,,,,0,1,,space,1,,,,,,0.24971,0,45,45,42,1,,,,,,,,,,,,,,,,,,,,,,,,,
,,,,,,,,,,,,,,,,,,,,,,,,,,,,,,,,,,,,,,,,,,,space,382063,28,2020-08-20_17h50.38.615,CDT_GNG_IUS12,2020.1.2,Win32,60,,,,,,,,,,,,,,,,,0,1,,space,1,,,,,,0.259815,0,46,46,31,1,,,,,,,,,,,,,,,,,,,,,,,,,
,,,,,,,,,,,,,,,,,,,,,,,,,,,,,,,,,,,,,,,,,,,space,382063,28,2020-08-20_17h50.38.615,CDT_GNG_IUS12,2020.1.2,Win32,60,,,,,,,,,,,,,,,,,0,1,,space,1,,,,,,0.28402,0,47,47,13,1,,,,,,,,,,,,,,,,,,,,,,,,,
,,,,,,,,,,,,,,,,,,,,,,,,,,,,,,,,,,,,,,,,,,,space,382063,28,2020-08-20_17h50.38.615,CDT_GNG_IUS12,2020.1.2,Win32,60,,,,,,,,,,,,,,,,,0,1,,space,1,,,,,,0.36202,0,48,48,48,1,,,,,,,,,,,,,,,,,,,,,,,,,
,,,,,,,,,,,,,,,,,,,,,,,,,,,,,,,,,,,,,,,,,,,space,382063,28,2020-08-20_17h50.38.615,CDT_GNG_IUS12,2020.1.2,Win32,60,,,,,,,,,,,,,,,,,0,1,,space,1,,,,,,0.29125,0,49,49,23,1,,,,,,,,,,,,,,,,,,,,,,,,,
,,,,,,,,,,,,,,,,,,,,,,,,,,,,,,,,,,,,,,,,,,,space,382063,28,2020-08-20_17h50.38.615,CDT_GNG_IUS12,2020.1.2,Win32,60,,,,,,,,,,,,,,,,,0,1,,space,1,,,,,,0.23813,,,,,,0,0,0,45,1,,,,,,,,,,,,,,,,,,,,
,,,,,,,,,,,,,,,,,,,,,,,,,,,,,,,,,,,,,,,,,,,space,382063,28,2020-08-20_17h50.38.615,CDT_GNG_IUS12,2020.1.2,Win32,60,,,,,,,,,,,,,,,,,0,1,,space,1,,,,,,0.232815,,,,,,0,1,1,23,1,,,,,,,,,,,,,,,,,,,,
,,,,,,,,,,,,,,,,,,,,,,,,,,,,,,,,,,,,,,,,,,,space,382063,28,2020-08-20_17h50.38.615,CDT_GNG_IUS12,2020.1.2,Win32,60,,,,,,,,,,,,,,,,,0,1,,space,1,,,,,,0.254095,,,,,,0,2,2,18,1,,,,,,,,,,,,,,,,,,,,
,,,,,,,,,,,,,,,,,,,,,,,,,,,,,,,,,,,,,,,,,,,space,382063,28,2020-08-20_17h50.38.615,CDT_GNG_IUS12,2020.1.2,Win32,60,,,,,,,,,,,,,,,,,0,1,,space,1,,,,,,0.285685,,,,,,0,3,3,42,1,,,,,,,,,,,,,,,,,,,,
,,,,,,,,,,,,,,,,,,,,,,,,,,,,,,,,,,,,,,,,,,,space,382063,28,2020-08-20_17h50.38.615,CDT_GNG_IUS12,2020.1.2,Win32,60,,,,,,,,,,,,,,,,,0,1,,space,1,,,,,,0.26317,,,,,,0,4,4,30,1,,,,,,,,,,,,,,,,,,,,
,,,,,,,,,,,,,,,,,,,,,,,,,,,,,,,,,,,,,,,,,,,space,382063,28,2020-08-20_17h50.38.615,CDT_GNG_IUS12,2020.1.2,Win32,60,,,,,,,,,,,,,,,,,0,1,,space,1,,,,,,0.28688,,,,,,0,5,5,46,1,,,,,,,,,,,,,,,,,,,,
,,,,,,,,,,,,,,,,,,,,,,,,,,,,,,,,,,,,,,,,,,,space,382063,28,2020-08-20_17h50.38.615,CDT_GNG_IUS12,2020.1.2,Win32,60,,,,,,,,,,,,,,,,,0,1,,space,1,,,,,,0.269085,,,,,,0,6,6,49,1,,,,,,,,,,,,,,,,,,,,
,,,,,,,,,,,,,,,,,,,,,,,,,,,,,,,,,,,,,,,,,,,space,382063,28,2020-08-20_17h50.38.615,CDT_GNG_IUS12,2020.1.2,Win32,60,,,,,,,,,,,,,,,,,0,1,,space,1,,,,,,0.29395,,,,,,0,7,7,40,1,,,,,,,,,,,,,,,,,,,,
,,,,,,,,,,,,,,,,,,,,,,,,,,,,,,,,,,,,,,,,,,,space,382063,28,2020-08-20_17h50.38.615,CDT_GNG_IUS12,2020.1.2,Win32,60,,,,,,,,,,,,,,,,,0,1,,space,1,,,,,,0.33468,,,,,,0,8,8,27,1,,,,,,,,,,,,,,,,,,,,
,,,,,,,,,,,,,,,,,,,,,,,,,,,,,,,,,,,,,,,,,,,space,382063,28,2020-08-20_17h50.38.615,CDT_GNG_IUS12,2020.1.2,Win32,60,,,,,,,,,,,,,,,,,0,1,,space,1,,,,,,0.325345,,,,,,0,9,9,14,1,,,,,,,,,,,,,,,,,,,,
,,,,,,,,,,,,,,,,,,,,,,,,,,,,,,,,,,,,,,,,,,,,382063,28,2020-08-20_17h50.38.615,CDT_GNG_IUS12,2020.1.2,Win32,60,,,,,,,,,,,,,,,,,1,0,,,1,,,,,,,,,,,,0,10,10,4,1,,,,,,,,,,,,,,,,,,,,
,,,,,,,,,,,,,,,,,,,,,,,,,,,,,,,,,,,,,,,,,,,space,382063,28,2020-08-20_17h50.38.615,CDT_GNG_IUS12,2020.1.2,Win32,60,,,,,,,,,,,,,,,,,0,1,,space,1,,,,,,0.10884,,,,,,0,11,11,15,1,,,,,,,,,,,,,,,,,,,,
,,,,,,,,,,,,,,,,,,,,,,,,,,,,,,,,,,,,,,,,,,,space,382063,28,2020-08-20_17h50.38.615,CDT_GNG_IUS12,2020.1.2,Win32,60,,,,,,,,,,,,,,,,,0,1,,space,1,,,,,,0.24511,,,,,,0,12,12,32,1,,,,,,,,,,,,,,,,,,,,
,,,,,,,,,,,,,,,,,,,,,,,,,,,,,,,,,,,,,,,,,,,space,382063,28,2020-08-20_17h50.38.615,CDT_GNG_IUS12,2020.1.2,Win32,60,,,,,,,,,,,,,,,,,0,1,,space,1,,,,,,0.21654,,,,,,0,13,13,39,1,,,,,,,,,,,,,,,,,,,,
,,,,,,,,,,,,,,,,,,,,,,,,,,,,,,,,,,,,,,,,,,,space,382063,28,2020-08-20_17h50.38.615,CDT_GNG_IUS12,2020.1.2,Win32,60,,,,,,,,,,,,,,,,,0,1,,space,1,,,,,,0.27706,,,,,,0,14,14,20,1,,,,,,,,,,,,,,,,,,,,
,,,,,,,,,,,,,,,,,,,,,,,,,,,,,,,,,,,,,,,,,,,space,382063,28,2020-08-20_17h50.38.615,CDT_GNG_IUS12,2020.1.2,Win32,60,,,,,,,,,,,,,,,,,0,1,,space,1,,,,,,0.24458,,,,,,0,15,15,11,1,,,,,,,,,,,,,,,,,,,,
,,,,,,,,,,,,,,,,,,,,,,,,,,,,,,,,,,,,,,,,,,,space,382063,28,2020-08-20_17h50.38.615,CDT_GNG_IUS12,2020.1.2,Win32,60,,,,,,,,,,,,,,,,,0,1,,space,1,,,,,,0.230445,,,,,,0,16,16,33,1,,,,,,,,,,,,,,,,,,,,
,,,,,,,,,,,,,,,,,,,,,,,,,,,,,,,,,,,,,,,,,,,space,382063,28,2020-08-20_17h50.38.615,CDT_GNG_IUS12,2020.1.2,Win32,60,,,,,,,,,,,,,,,,,0,1,,space,1,,,,,,0.269765,,,,,,0,17,17,21,1,,,,,,,,,,,,,,,,,,,,
,,,,,,,,,,,,,,,,,,,,,,,,,,,,,,,,,,,,,,,,,,,space,382063,28,2020-08-20_17h50.38.615,CDT_GNG_IUS12,2020.1.2,Win32,60,,,,,,,,,,,,,,,,,0,1,,space,1,,,,,,0.26048,,,,,,0,18,18,10,1,,,,,,,,,,,,,,,,,,,,
,,,,,,,,,,,,,,,,,,,,,,,,,,,,,,,,,,,,,,,,,,,space,382063,28,2020-08-20_17h50.38.615,CDT_GNG_IUS12,2020.1.2,Win32,60,,,,,,,,,,,,,,,,,0,1,,space,1,,,,,,0.37328,,,,,,0,19,19,24,1,,,,,,,,,,,,,,,,,,,,
,,,,,,,,,,,,,,,,,,,,,,,,,,,,,,,,,,,,,,,,,,,,382063,28,2020-08-20_17h50.38.615,CDT_GNG_IUS12,2020.1.2,Win32,60,,,,,,,,,,,,,,,,,1,0,,,1,,,,,,,,,,,,0,20,20,0,1,,,,,,,,,,,,,,,,,,,,
,,,,,,,,,,,,,,,,,,,,,,,,,,,,,,,,,,,,,,,,,,,space,382063,28,2020-08-20_17h50.38.615,CDT_GNG_IUS12,2020.1.2,Win32,60,,,,,,,,,,,,,,,,,0,1,,,0,,,,,,,,,,,,0,21,21,22,1,,,,,,,,,,,,,,,,,,,,
,,,,,,,,,,,,,,,,,,,,,,,,,,,,,,,,,,,,,,,,,,,space,382063,28,2020-08-20_17h50.38.615,CDT_GNG_IUS12,2020.1.2,Win32,60,,,,,,,,,,,,,,,,,0,1,,space,1,,,,,,0.1021,,,,,,0,22,22,35,1,,,,,,,,,,,,,,,,,,,,
,,,,,,,,,,,,,,,,,,,,,,,,,,,,,,,,,,,,,,,,,,,space,382063,28,2020-08-20_17h50.38.615,CDT_GNG_IUS12,2020.1.2,Win32,60,,,,,,,,,,,,,,,,,0,1,,space,1,,,,,,0.14186,,,,,,0,23,23,25,1,,,,,,,,,,,,,,,,,,,,
,,,,,,,,,,,,,,,,,,,,,,,,,,,,,,,,,,,,,,,,,,,,382063,28,2020-08-20_17h50.38.615,CDT_GNG_IUS12,2020.1.2,Win32,60,,,,,,,,,,,,,,,,,1,0,,space,0,,,,,,0.22166,,,,,,0,24,24,6,1,,,,,,,,,,,,,,,,,,,,
,,,,,,,,,,,,,,,,,,,,,,,,,,,,,,,,,,,,,,,,,,,space,382063,28,2020-08-20_17h50.38.615,CDT_GNG_IUS12,2020.1.2,Win32,60,,,,,,,,,,,,,,,,,0,1,,space,1,,,,,,0.216155,,,,,,0,25,25,44,1,,,,,,,,,,,,,,,,,,,,
,,,,,,,,,,,,,,,,,,,,,,,,,,,,,,,,,,,,,,,,,,,space,382063,28,2020-08-20_17h50.38.615,CDT_GNG_IUS12,2020.1.2,Win32,60,,,,,,,,,,,,,,,,,0,1,,space,1,,,,,,0.26958,,,,,,0,26,26,48,1,,,,,,,,,,,,,,,,,,,,
,,,,,,,,,,,,,,,,,,,,,,,,,,,,,,,,,,,,,,,,,,,space,382063,28,2020-08-20_17h50.38.615,CDT_GNG_IUS12,2020.1.2,Win32,60,,,,,,,,,,,,,,,,,0,1,,space,1,,,,,,0.30902,,,,,,0,27,27,47,1,,,,,,,,,,,,,,,,,,,,
,,,,,,,,,,,,,,,,,,,,,,,,,,,,,,,,,,,,,,,,,,,space,382063,28,2020-08-20_17h50.38.615,CDT_GNG_IUS12,2020.1.2,Win32,60,,,,,,,,,,,,,,,,,0,1,,space,1,,,,,,0.34817,,,,,,0,28,28,12,1,,,,,,,,,,,,,,,,,,,,
,,,,,,,,,,,,,,,,,,,,,,,,,,,,,,,,,,,,,,,,,,,,382063,28,2020-08-20_17h50.38.615,CDT_GNG_IUS12,2020.1.2,Win32,60,,,,,,,,,,,,,,,,,1,0,,,1,,,,,,,,,,,,0,29,29,9,1,,,,,,,,,,,,,,,,,,,,
,,,,,,,,,,,,,,,,,,,,,,,,,,,,,,,,,,,,,,,,,,,space,382063,28,2020-08-20_17h50.38.615,CDT_GNG_IUS12,2020.1.2,Win32,60,,,,,,,,,,,,,,,,,0,1,,space,1,,,,,,0.13298,,,,,,0,30,30,17,1,,,,,,,,,,,,,,,,,,,,
,,,,,,,,,,,,,,,,,,,,,,,,,,,,,,,,,,,,,,,,,,,space,382063,28,2020-08-20_17h50.38.615,CDT_GNG_IUS12,2020.1.2,Win32,60,,,,,,,,,,,,,,,,,0,1,,space,1,,,,,,0.43543,,,,,,0,31,31,19,1,,,,,,,,,,,,,,,,,,,,
,,,,,,,,,,,,,,,,,,,,,,,,,,,,,,,,,,,,,,,,,,,space,382063,28,2020-08-20_17h50.38.615,CDT_GNG_IUS12,2020.1.2,Win32,60,,,,,,,,,,,,,,,,,0,1,,space,1,,,,,,0.284815,,,,,,0,32,32,34,1,,,,,,,,,,,,,,,,,,,,
,,,,,,,,,,,,,,,,,,,,,,,,,,,,,,,,,,,,,,,,,,,space,382063,28,2020-08-20_17h50.38.615,CDT_GNG_IUS12,2020.1.2,Win32,60,,,,,,,,,,,,,,,,,0,1,,space,1,,,,,,0.27659,,,,,,0,33,33,43,1,,,,,,,,,,,,,,,,,,,,
,,,,,,,,,,,,,,,,,,,,,,,,,,,,,,,,,,,,,,,,,,,,382063,28,2020-08-20_17h50.38.615,CDT_GNG_IUS12,2020.1.2,Win32,60,,,,,,,,,,,,,,,,,1,0,,space,0,,,,,,0.29162,,,,,,0,34,34,1,1,,,,,,,,,,,,,,,,,,,,
,,,,,,,,,,,,,,,,,,,,,,,,,,,,,,,,,,,,,,,,,,,space,382063,28,2020-08-20_17h50.38.615,CDT_GNG_IUS12,2020.1.2,Win32,60,,,,,,,,,,,,,,,,,0,1,,space,1,,,,,,0.166995,,,,,,0,35,35,16,1,,,,,,,,,,,,,,,,,,,,
,,,,,,,,,,,,,,,,,,,,,,,,,,,,,,,,,,,,,,,,,,,,382063,28,2020-08-20_17h50.38.615,CDT_GNG_IUS12,2020.1.2,Win32,60,,,,,,,,,,,,,,,,,1,0,,space,0,,,,,,0.220435,,,,,,0,36,36,3,1,,,,,,,,,,,,,,,,,,,,
,,,,,,,,,,,,,,,,,,,,,,,,,,,,,,,,,,,,,,,,,,,space,382063,28,2020-08-20_17h50.38.615,CDT_GNG_IUS12,2020.1.2,Win32,60,,,,,,,,,,,,,,,,,0,1,,space,1,,,,,,0.28366,,,,,,0,37,37,37,1,,,,,,,,,,,,,,,,,,,,
,,,,,,,,,,,,,,,,,,,,,,,,,,,,,,,,,,,,,,,,,,,space,382063,28,2020-08-20_17h50.38.615,CDT_GNG_IUS12,2020.1.2,Win32,60,,,,,,,,,,,,,,,,,0,1,,space,1,,,,,,0.26805,,,,,,0,38,38,38,1,,,,,,,,,,,,,,,,,,,,
,,,,,,,,,,,,,,,,,,,,,,,,,,,,,,,,,,,,,,,,,,,,382063,28,2020-08-20_17h50.38.615,CDT_GNG_IUS12,2020.1.2,Win32,60,,,,,,,,,,,,,,,,,1,0,,space,0,,,,,,0.28302,,,,,,0,39,39,2,1,,,,,,,,,,,,,,,,,,,,
,,,,,,,,,,,,,,,,,,,,,,,,,,,,,,,,,,,,,,,,,,,space,382063,28,2020-08-20_17h50.38.615,CDT_GNG_IUS12,2020.1.2,Win32,60,,,,,,,,,,,,,,,,,0,1,,space,1,,,,,,0.166325,,,,,,0,40,40,31,1,,,,,,,,,,,,,,,,,,,,
,,,,,,,,,,,,,,,,,,,,,,,,,,,,,,,,,,,,,,,,,,,space,382063,28,2020-08-20_17h50.38.615,CDT_GNG_IUS12,2020.1.2,Win32,60,,,,,,,,,,,,,,,,,0,1,,space,1,,,,,,0.172405,,,,,,0,41,41,13,1,,,,,,,,,,,,,,,,,,,,
,,,,,,,,,,,,,,,,,,,,,,,,,,,,,,,,,,,,,,,,,,,space,382063,28,2020-08-20_17h50.38.615,CDT_GNG_IUS12,2020.1.2,Win32,60,,,,,,,,,,,,,,,,,0,1,,space,1,,,,,,0.228185,,,,,,0,42,42,29,1,,,,,,,,,,,,,,,,,,,,
,,,,,,,,,,,,,,,,,,,,,,,,,,,,,,,,,,,,,,,,,,,,382063,28,2020-08-20_17h50.38.615,CDT_GNG_IUS12,2020.1.2,Win32,60,,,,,,,,,,,,,,,,,1,0,,,1,,,,,,,,,,,,0,43,43,8,1,,,,,,,,,,,,,,,,,,,,
,,,,,,,,,,,,,,,,,,,,,,,,,,,,,,,,,,,,,,,,,,,,382063,28,2020-08-20_17h50.38.615,CDT_GNG_IUS12,2020.1.2,Win32,60,,,,,,,,,,,,,,,,,1,0,,space,0,,,,,,0.1162,,,,,,0,44,44,5,1,,,,,,,,,,,,,,,,,,,,
,,,,,,,,,,,,,,,,,,,,,,,,,,,,,,,,,,,,,,,,,,,,382063,28,2020-08-20_17h50.38.615,CDT_GNG_IUS12,2020.1.2,Win32,60,,,,,,,,,,,,,,,,,1,0,,,1,,,,,,,,,,,,0,45,45,7,1,,,,,,,,,,,,,,,,,,,,
,,,,,,,,,,,,,,,,,,,,,,,,,,,,,,,,,,,,,,,,,,,space,382063,28,2020-08-20_17h50.38.615,CDT_GNG_IUS12,2020.1.2,Win32,60,,,,,,,,,,,,,,,,,0,1,,space,1,,,,,,0.37017,,,,,,0,46,46,36,1,,,,,,,,,,,,,,,,,,,,
,,,,,,,,,,,,,,,,,,,,,,,,,,,,,,,,,,,,,,,,,,,space,382063,28,2020-08-20_17h50.38.615,CDT_GNG_IUS12,2020.1.2,Win32,60,,,,,,,,,,,,,,,,,0,1,,space,1,,,,,,0.31324,,,,,,0,47,47,28,1,,,,,,,,,,,,,,,,,,,,
,,,,,,,,,,,,,,,,,,,,,,,,,,,,,,,,,,,,,,,,,,,space,382063,28,2020-08-20_17h50.38.615,CDT_GNG_IUS12,2020.1.2,Win32,60,,,,,,,,,,,,,,,,,0,1,,space,1,,,,,,0.283615,,,,,,0,48,48,26,1,,,,,,,,,,,,,,,,,,,,
,,,,,,,,,,,,,,,,,,,,,,,,,,,,,,,,,,,,,,,,,,,space,382063,28,2020-08-20_17h50.38.615,CDT_GNG_IUS12,2020.1.2,Win32,60,,,,,,,,,,,,,,,,,0,1,,space,1,,,,,,0.28279,,,,,,0,49,49,41,1,,,,,,,,,,,,,,,,,,,,
,,,,,,,,,,,,,,,,,,,,,,,,,,,,,,,,,,,,,,,,,,,,382063,28,2020-08-20_17h50.38.615,CDT_GNG_IUS12,2020.1.2,Win32,60,,,,,,,,,,,,,,,,,,,,,,,,,,,,,,,,,,,,,,7.805555556,7.981795,0,0,0,0,1,1,"On a scale from 0 to 10, indicate your personal perception of your proficiency level for English (10 being the highest score)",,,,,,,,,,,
,,,,,,,,,,,,,,,,,,,,,,,,,,,,,,,,,,,,,,,,,,,,382063,28,2020-08-20_17h50.38.615,CDT_GNG_IUS12,2020.1.2,Win32,60,,,,,,,,,,,,,,,,,,,,,,,,,,,,,,,,,,,,,,8.101851852,0.420205,0,1,1,1,1,2,"On a scale from 0 to 10, indicate how frequently you are exposed to English (10 being 'always', 0 being 'never')",,,,,,,,,,,
,,,,,,,,,,,,,,,,,,,,,,,,,,,,,,,,,,,,,,,,,,,,382063,28,2020-08-20_17h50.38.615,CDT_GNG_IUS12,2020.1.2,Win32,60,,,,,,,,,,,,,,,,,,,,,,,,,,,,,,,,,,,,,,,,,,,,,,"On a scale from 0 to 10, indicate your personal perception of your proficiency level for English (10 being the highest score)",3.011111111,12.911765,0,0,0,0,1,1,Unforeseen events upset me greatly.,,
,,,,,,,,,,,,,,,,,,,,,,,,,,,,,,,,,,,,,,,,,,,,382063,28,2020-08-20_17h50.38.615,CDT_GNG_IUS12,2020.1.2,Win32,60,,,,,,,,,,,,,,,,,,,,,,,,,,,,,,,,,,,,,,,,,,,,,,"On a scale from 0 to 10, indicate how frequently you are exposed to English (10 being 'always', 0 being 'never')",4.022222222,4.819045,0,1,1,1,1,2,It frustrates me not having all the information I need.,,
,,,,,,,,,,,,,,,,,,,,,,,,,,,,,,,,,,,,,,,,,,,,382063,28,2020-08-20_17h50.38.615,CDT_GNG_IUS12,2020.1.2,Win32,60,,,,,,,,,,,,,,,,,,,,,,,,,,,,,,,,,,,,,,,,,,,,,,,4,8.273025,0,2,2,2,1,3,One should always look ahead so as to avoid surprises.,,
,,,,,,,,,,,,,,,,,,,,,,,,,,,,,,,,,,,,,,,,,,,,382063,28,2020-08-20_17h50.38.615,CDT_GNG_IUS12,2020.1.2,Win32,60,,,,,,,,,,,,,,,,,,,,,,,,,,,,,,,,,,,,,,,,,,,,,,,1.981481481,5.21949,0,3,3,3,1,4,"A small, unforeseen event can spoil everything, even with the best of planning. ",,
,,,,,,,,,,,,,,,,,,,,,,,,,,,,,,,,,,,,,,,,,,,,382063,28,2020-08-20_17h50.38.615,CDT_GNG_IUS12,2020.1.2,Win32,60,,,,,,,,,,,,,,,,,,,,,,,,,,,,,,,,,,,,,,,,,,,,,,,3.966666667,3.897995,0,4,4,4,1,5,I always want to know what the future has in store for me.,,
,,,,,,,,,,,,,,,,,,,,,,,,,,,,,,,,,,,,,,,,,,,,382063,28,2020-08-20_17h50.38.615,CDT_GNG_IUS12,2020.1.2,Win32,60,,,,,,,,,,,,,,,,,,,,,,,,,,,,,,,,,,,,,,,,,,,,,,,3.992592593,3.380555,0,5,5,5,1,6,I can't stand being taken by surprise.,,
,,,,,,,,,,,,,,,,,,,,,,,,,,,,,,,,,,,,,,,,,,,,382063,28,2020-08-20_17h50.38.615,CDT_GNG_IUS12,2020.1.2,Win32,60,,,,,,,,,,,,,,,,,,,,,,,,,,,,,,,,,,,,,,,,,,,,,,,4.003703704,3.142685,0,6,6,6,1,7,I should be able to organize everything in advance,,
,,,,,,,,,,,,,,,,,,,,,,,,,,,,,,,,,,,,,,,,,,,,382063,28,2020-08-20_17h50.38.615,CDT_GNG_IUS12,2020.1.2,Win32,60,,,,,,,,,,,,,,,,,,,,,,,,,,,,,,,,,,,,,,,,,,,,,,,5,4.683265,0,7,7,7,1,8,Uncertainty keeps me from living a full life.,,
,,,,,,,,,,,,,,,,,,,,,,,,,,,,,,,,,,,,,,,,,,,,382063,28,2020-08-20_17h50.38.615,CDT_GNG_IUS12,2020.1.2,Win32,60,,,,,,,,,,,,,,,,,,,,,,,,,,,,,,,,,,,,,,,,,,,,,,,3.955555556,4.344655,0,8,8,8,1,9,"When it's time to act, uncertainty paralyses me. ",,
,,,,,,,,,,,,,,,,,,,,,,,,,,,,,,,,,,,,,,,,,,,,382063,28,2020-08-20_17h50.38.615,CDT_GNG_IUS12,2020.1.2,Win32,60,,,,,,,,,,,,,,,,,,,,,,,,,,,,,,,,,,,,,,,,,,,,,,,1.896296296,10.019635,0,9,9,9,1,10,"When I am uncertain, I can't function very well. ",,
,,,,,,,,,,,,,,,,,,,,,,,,,,,,,,,,,,,,,,,,,,,,382063,28,2020-08-20_17h50.38.615,CDT_GNG_IUS12,2020.1.2,Win32,60,,,,,,,,,,,,,,,,,,,,,,,,,,,,,,,,,,,,,,,,,,,,,,,2.951851852,6.63203,0,10,10,10,1,11,The smallest doubt can stop me from acting. ,,
,,,,,,,,,,,,,,,,,,,,,,,,,,,,,,,,,,,,,,,,,,,,382063,28,2020-08-20_17h50.38.615,CDT_GNG_IUS12,2020.1.2,Win32,60,,,,,,,,,,,,,,,,,,,,,,,,,,,,,,,,,,,,,,,,,,,,,,,2.977777778,7.3242,0,11,11,11,1,12,I must get away from all uncertain situations. ,,
,,,,,,,,,,,,,,,,,,,,,,,,,,,,,,,,,,,,,,,,,,,,382063,28,2020-08-20_17h50.38.615,CDT_GNG_IUS12,2020.1.2,Win32,60,,,,,,,,,,,,,,,,,,,,,,,,,,,,,,,,,,,,,,,,,,,,,,,,,,,,,,,,x,8.18641
