key_resp_6.keys,key_resp_6.rt,Gender.keys,Gender.rt,key_resp_2.keys,key_resp_2.corr,key_resp_2.rt,CDT_trials_train.thisRepN,CDT_trials_train.thisTrialN,CDT_trials_train.thisN,CDT_trials_train.thisIndex,CDT_trials_train.ran,trialnum,condit,stimamt,stim1posx,stim1posy,stim1col,stim1opa,stim2posx,stim2posy,stim2col,stim2opa,stim3posx,stim3posy,stim3col,stim3opa,stim4posx,stim4posy,stim4col,stim4opa,stim5posx,stim5posy,stim5col,stim5opa,stim6posx,stim6posy,stim6col,stim6opa,stim7posx,stim7posy,stim7col,stim7opa,stim8posx,stim8posy,stim8col,stim8opa,stimsizex,stimsizey,stimdur,targetposx,targetposy,targetcol,corrAns,participant,age,date,expName,psychopyVersion,OS,frameRate,key_resp.keys,key_resp.corr,key_resp.rt,CDT_trials.thisRepN,CDT_trials.thisTrialN,CDT_trials.thisN,CDT_trials.thisIndex,CDT_trials.ran,trialResp_Train.keys,trialResp_Train.corr,GNGtrials_train.thisRepN,GNGtrials_train.thisTrialN,GNGtrials_train.thisN,GNGtrials_train.thisIndex,GNGtrials_train.ran,orangeOpacity,blueOpacity,trialResp_Train.rt,trialResp.keys,trialResp.corr,trialResp.rt,GNG_trials_1.thisRepN,GNG_trials_1.thisTrialN,GNG_trials_1.thisN,GNG_trials_1.thisIndex,GNG_trials_1.ran,GNG_trials_2.thisRepN,GNG_trials_2.thisTrialN,GNG_trials_2.thisN,GNG_trials_2.thisIndex,GNG_trials_2.ran,GNG_trials_3.thisRepN,GNG_trials_3.thisTrialN,GNG_trials_3.thisN,GNG_trials_3.thisIndex,GNG_trials_3.ran,slider_2.response,slider_2.rt,engprof_trials.thisRepN,engprof_trials.thisTrialN,engprof_trials.thisN,engprof_trials.thisIndex,engprof_trials.ran,qpnumber,qproficiency,slider.response,slider.rt,IUS12_trials.thisRepN,IUS12_trials.thisTrialN,IUS12_trials.thisN,IUS12_trials.thisIndex,IUS12_trials.ran,qnumber,qenglish,key_resp_end.keys,key_resp_end.rt
y,3.521805,w,2.483825,l,0,1.889035,0,0,0,0,1,1,same,4,0.14,0.14,orange,1,0.14,-0.41,blue,1,-0.14,-0.27,cyan,1,-0.41,0.14,red,1,0.14,0.41,black,0,0.27,-0.27,green,0,-0.41,-0.27,magenta,0,-0.41,0.41,yellow,0,0.05,0.05,0.15,0.14,-0.41,blue,k,501638,22,2020-08-05_13h02.02.881,CDT_GNG_IUS12,2020.1.2,MacIntel,60,,,,,,,,,,,,,,,,,,,,,,,,,,,,,,,,,,,,,,,,,,,,,,,,,,,,,,,,
,,,,l,1,1.265935,0,1,1,1,1,2,different,4,0.14,0.41,black,1,0.14,-0.41,green,1,-0.41,-0.27,orange,1,-0.27,0.41,magenta,1,0.14,0.27,red,0,0.41,-0.27,cyan,0,-0.27,-0.41,yellow,0,-0.27,0.27,blue,0,0.05,0.05,0.15,-0.27,0.41,red,l,501638,22,2020-08-05_13h02.02.881,CDT_GNG_IUS12,2020.1.2,MacIntel,60,,,,,,,,,,,,,,,,,,,,,,,,,,,,,,,,,,,,,,,,,,,,,,,,,,,,,,,,
,,,,k,1,1.103195,0,2,2,2,1,3,same,8,0.27,0.41,yellow,1,0.14,-0.41,cyan,1,-0.14,-0.27,blue,1,-0.14,0.27,green,1,0.14,0.14,red,1,0.27,-0.27,black,1,-0.27,-0.27,magenta,1,-0.27,0.14,orange,1,0.05,0.05,0.15,-0.14,0.27,green,k,501638,22,2020-08-05_13h02.02.881,CDT_GNG_IUS12,2020.1.2,MacIntel,60,,,,,,,,,,,,,,,,,,,,,,,,,,,,,,,,,,,,,,,,,,,,,,,,,,,,,,,,
,,,,l,1,1.11776,0,3,3,3,1,4,different,8,0.14,0.41,green,1,0.27,-0.14,red,1,-0.27,-0.14,black,1,-0.14,0.41,orange,1,0.41,0.27,blue,1,0.41,-0.27,magenta,1,-0.14,-0.14,cyan,1,-0.27,0.14,yellow,1,0.05,0.05,0.15,0.27,-0.14,cyan,l,501638,22,2020-08-05_13h02.02.881,CDT_GNG_IUS12,2020.1.2,MacIntel,60,,,,,,,,,,,,,,,,,,,,,,,,,,,,,,,,,,,,,,,,,,,,,,,,,,,,,,,,
,,,,,,,,,,,,87,same,8,0.27,0.14,red,1,0.14,-0.14,yellow,1,-0.27,-0.14,orange,1,-0.27,0.27,magenta,1,0.41,0.27,blue,1,0.41,-0.41,green,1,-0.27,-0.27,black,1,-0.14,0.27,cyan,1,0.05,0.05,0.15,0.41,-0.41,green,k,501638,22,2020-08-05_13h02.02.881,CDT_GNG_IUS12,2020.1.2,MacIntel,60,l,0,1.735205,0,0,0,86,1,,,,,,,,,,,,,,,,,,,,,,,,,,,,,,,,,,,,,,,,,,,,,,,,
,,,,,,,,,,,,10,same,4,0.14,0.41,magenta,1,0.41,-0.14,black,1,-0.27,-0.27,orange,1,-0.41,0.27,green,1,0.27,0.41,blue,0,0.41,-0.41,yellow,0,-0.41,-0.41,cyan,0,-0.27,0.27,red,0,0.05,0.05,0.15,0.41,-0.14,black,k,501638,22,2020-08-05_13h02.02.881,CDT_GNG_IUS12,2020.1.2,MacIntel,60,l,0,0.802785,0,1,1,9,1,,,,,,,,,,,,,,,,,,,,,,,,,,,,,,,,,,,,,,,,,,,,,,,,
,,,,,,,,,,,,77,same,8,0.41,0.41,black,1,0.14,-0.14,cyan,1,-0.27,-0.41,yellow,1,-0.14,0.27,orange,1,0.41,0.14,blue,1,0.41,-0.14,magenta,1,-0.14,-0.27,green,1,-0.27,0.14,red,1,0.05,0.05,0.15,0.41,-0.14,magenta,k,501638,22,2020-08-05_13h02.02.881,CDT_GNG_IUS12,2020.1.2,MacIntel,60,l,0,1.06245,0,2,2,76,1,,,,,,,,,,,,,,,,,,,,,,,,,,,,,,,,,,,,,,,,,,,,,,,,
,,,,,,,,,,,,27,same,4,0.27,0.27,yellow,1,0.27,-0.27,green,1,-0.27,-0.41,cyan,1,-0.14,0.41,black,1,0.14,0.41,blue,0,0.41,-0.14,red,0,-0.14,-0.14,orange,0,-0.27,0.41,magenta,0,0.05,0.05,0.15,0.27,-0.27,green,k,501638,22,2020-08-05_13h02.02.881,CDT_GNG_IUS12,2020.1.2,MacIntel,60,k,1,1.13078,0,3,3,26,1,,,,,,,,,,,,,,,,,,,,,,,,,,,,,,,,,,,,,,,,,,,,,,,,
,,,,,,,,,,,,88,same,8,0.27,0.41,red,1,0.41,-0.14,cyan,1,-0.14,-0.14,green,1,-0.41,0.41,orange,1,0.14,0.27,magenta,1,0.27,-0.27,yellow,1,-0.41,-0.41,black,1,-0.27,0.41,blue,1,0.05,0.05,0.15,-0.41,0.41,orange,k,501638,22,2020-08-05_13h02.02.881,CDT_GNG_IUS12,2020.1.2,MacIntel,60,l,0,0.96748,0,4,4,87,1,,,,,,,,,,,,,,,,,,,,,,,,,,,,,,,,,,,,,,,,,,,,,,,,
,,,,,,,,,,,,99,different,8,0.14,0.27,blue,1,0.41,-0.41,yellow,1,-0.14,-0.14,green,1,-0.41,0.14,black,1,0.41,0.27,red,1,0.27,-0.27,magenta,1,-0.27,-0.27,orange,1,-0.27,0.27,cyan,1,0.05,0.05,0.15,0.14,0.27,black,l,501638,22,2020-08-05_13h02.02.881,CDT_GNG_IUS12,2020.1.2,MacIntel,60,l,1,2.286135,0,5,5,98,1,,,,,,,,,,,,,,,,,,,,,,,,,,,,,,,,,,,,,,,,,,,,,,,,
,,,,,,,,,,,,71,same,8,0.14,0.41,red,1,0.27,-0.14,yellow,1,-0.27,-0.41,cyan,1,-0.41,0.27,blue,1,0.41,0.27,magenta,1,0.14,-0.41,orange,1,-0.14,-0.14,black,1,-0.41,0.14,green,1,0.05,0.05,0.15,-0.41,0.27,blue,k,501638,22,2020-08-05_13h02.02.881,CDT_GNG_IUS12,2020.1.2,MacIntel,60,l,0,2.1994,0,6,6,70,1,,,,,,,,,,,,,,,,,,,,,,,,,,,,,,,,,,,,,,,,,,,,,,,,
,,,,,,,,,,,,108,different,8,0.27,0.41,magenta,1,0.27,-0.14,green,1,-0.14,-0.41,yellow,1,-0.41,0.41,red,1,0.41,0.27,blue,1,0.14,-0.27,cyan,1,-0.27,-0.27,orange,1,-0.41,0.14,black,1,0.05,0.05,0.15,0.27,0.41,black,l,501638,22,2020-08-05_13h02.02.881,CDT_GNG_IUS12,2020.1.2,MacIntel,60,l,1,1.149665,0,7,7,107,1,,,,,,,,,,,,,,,,,,,,,,,,,,,,,,,,,,,,,,,,,,,,,,,,
,,,,,,,,,,,,47,different,4,0.27,0.27,magenta,1,0.41,-0.27,black,1,-0.14,-0.41,red,1,-0.14,0.41,green,1,0.41,0.41,cyan,0,0.27,-0.14,orange,0,-0.27,-0.14,blue,0,-0.27,0.14,yellow,0,0.05,0.05,0.15,0.27,0.27,blue,l,501638,22,2020-08-05_13h02.02.881,CDT_GNG_IUS12,2020.1.2,MacIntel,60,l,1,0.916815,0,8,8,46,1,,,,,,,,,,,,,,,,,,,,,,,,,,,,,,,,,,,,,,,,,,,,,,,,
,,,,,,,,,,,,4,same,4,0.41,0.27,magenta,1,0.27,-0.41,orange,1,-0.41,-0.41,red,1,-0.14,0.41,green,1,0.27,0.41,blue,0,0.14,-0.41,black,0,-0.27,-0.14,cyan,0,-0.41,0.27,yellow,0,0.05,0.05,0.15,0.27,-0.41,orange,k,501638,22,2020-08-05_13h02.02.881,CDT_GNG_IUS12,2020.1.2,MacIntel,60,l,0,1.084185,0,9,9,3,1,,,,,,,,,,,,,,,,,,,,,,,,,,,,,,,,,,,,,,,,,,,,,,,,
,,,,,,,,,,,,106,different,8,0.41,0.41,black,1,0.14,-0.41,yellow,1,-0.41,-0.14,orange,1,-0.27,0.27,blue,1,0.14,0.41,red,1,0.41,-0.27,green,1,-0.14,-0.14,cyan,1,-0.14,0.14,magenta,1,0.05,0.05,0.15,-0.41,-0.14,green,l,501638,22,2020-08-05_13h02.02.881,CDT_GNG_IUS12,2020.1.2,MacIntel,60,l,1,0.941885,0,10,10,105,1,,,,,,,,,,,,,,,,,,,,,,,,,,,,,,,,,,,,,,,,,,,,,,,,
,,,,,,,,,,,,39,different,4,0.41,0.27,green,1,0.41,-0.27,yellow,1,-0.27,-0.27,orange,1,-0.14,0.14,cyan,1,0.14,0.14,magenta,0,0.27,-0.41,blue,0,-0.14,-0.27,red,0,-0.41,0.27,black,0,0.05,0.05,0.15,-0.14,0.14,green,l,501638,22,2020-08-05_13h02.02.881,CDT_GNG_IUS12,2020.1.2,MacIntel,60,l,1,0.95791,0,11,11,38,1,,,,,,,,,,,,,,,,,,,,,,,,,,,,,,,,,,,,,,,,,,,,,,,,
,,,,,,,,,,,,17,same,4,0.41,0.27,cyan,1,0.41,-0.41,black,1,-0.14,-0.27,magenta,1,-0.14,0.41,green,1,0.14,0.14,orange,0,0.14,-0.41,yellow,0,-0.14,-0.41,red,0,-0.27,0.14,blue,0,0.05,0.05,0.15,-0.14,0.41,green,k,501638,22,2020-08-05_13h02.02.881,CDT_GNG_IUS12,2020.1.2,MacIntel,60,k,1,0.99973,0,12,12,16,1,,,,,,,,,,,,,,,,,,,,,,,,,,,,,,,,,,,,,,,,,,,,,,,,
,,,,,,,,,,,,16,same,4,0.27,0.27,magenta,1,0.14,-0.14,orange,1,-0.14,-0.41,blue,1,-0.27,0.14,red,1,0.14,0.14,black,0,0.14,-0.27,green,0,-0.27,-0.27,yellow,0,-0.27,0.27,cyan,0,0.05,0.05,0.15,-0.27,0.14,red,k,501638,22,2020-08-05_13h02.02.881,CDT_GNG_IUS12,2020.1.2,MacIntel,60,l,0,2.2998,0,13,13,15,1,,,,,,,,,,,,,,,,,,,,,,,,,,,,,,,,,,,,,,,,,,,,,,,,
,,,,,,,,,,,,53,different,4,0.14,0.27,cyan,1,0.41,-0.14,yellow,1,-0.41,-0.41,green,1,-0.14,0.41,black,1,0.41,0.27,red,0,0.14,-0.14,magenta,0,-0.27,-0.27,blue,0,-0.27,0.27,orange,0,0.05,0.05,0.15,0.14,0.27,blue,l,501638,22,2020-08-05_13h02.02.881,CDT_GNG_IUS12,2020.1.2,MacIntel,60,l,1,1.21801,0,14,14,52,1,,,,,,,,,,,,,,,,,,,,,,,,,,,,,,,,,,,,,,,,,,,,,,,,
,,,,,,,,,,,,24,same,4,0.41,0.27,green,1,0.14,-0.27,black,1,-0.27,-0.27,yellow,1,-0.14,0.14,orange,1,0.41,0.14,blue,0,0.14,-0.14,cyan,0,-0.41,-0.14,red,0,-0.27,0.41,magenta,0,0.05,0.05,0.15,-0.14,0.14,orange,k,501638,22,2020-08-05_13h02.02.881,CDT_GNG_IUS12,2020.1.2,MacIntel,60,k,1,1.318,0,15,15,23,1,,,,,,,,,,,,,,,,,,,,,,,,,,,,,,,,,,,,,,,,,,,,,,,,
,,,,,,,,,,,,118,different,8,0.14,0.14,red,1,0.27,-0.27,yellow,1,-0.27,-0.14,orange,1,-0.41,0.41,magenta,1,0.27,0.27,cyan,1,0.14,-0.41,green,1,-0.27,-0.41,blue,1,-0.41,0.14,black,1,0.05,0.05,0.15,-0.27,-0.41,black,l,501638,22,2020-08-05_13h02.02.881,CDT_GNG_IUS12,2020.1.2,MacIntel,60,l,1,0.98494,0,16,16,117,1,,,,,,,,,,,,,,,,,,,,,,,,,,,,,,,,,,,,,,,,,,,,,,,,
,,,,,,,,,,,,49,different,4,0.27,0.14,green,1,0.41,-0.14,yellow,1,-0.27,-0.41,red,1,-0.14,0.14,cyan,1,0.14,0.14,blue,0,0.27,-0.27,black,0,-0.14,-0.41,orange,0,-0.41,0.14,magenta,0,0.05,0.05,0.15,0.27,0.14,yellow,l,501638,22,2020-08-05_13h02.02.881,CDT_GNG_IUS12,2020.1.2,MacIntel,60,l,1,1.221915,0,17,17,48,1,,,,,,,,,,,,,,,,,,,,,,,,,,,,,,,,,,,,,,,,,,,,,,,,
,,,,,,,,,,,,109,different,8,0.41,0.14,yellow,1,0.27,-0.27,cyan,1,-0.14,-0.27,magenta,1,-0.27,0.14,orange,1,0.41,0.41,green,1,0.27,-0.41,red,1,-0.27,-0.41,black,1,-0.27,0.41,blue,1,0.05,0.05,0.15,0.27,-0.27,green,l,501638,22,2020-08-05_13h02.02.881,CDT_GNG_IUS12,2020.1.2,MacIntel,60,l,1,1.02401,0,18,18,108,1,,,,,,,,,,,,,,,,,,,,,,,,,,,,,,,,,,,,,,,,,,,,,,,,
,,,,,,,,,,,,19,same,4,0.27,0.41,blue,1,0.14,-0.41,red,1,-0.14,-0.27,black,1,-0.14,0.27,magenta,1,0.27,0.14,yellow,0,0.27,-0.14,orange,0,-0.14,-0.41,green,0,-0.14,0.14,cyan,0,0.05,0.05,0.15,0.27,0.41,blue,k,501638,22,2020-08-05_13h02.02.881,CDT_GNG_IUS12,2020.1.2,MacIntel,60,k,1,1.1392,0,19,19,18,1,,,,,,,,,,,,,,,,,,,,,,,,,,,,,,,,,,,,,,,,,,,,,,,,
,,,,,,,,,,,,52,different,4,0.27,0.41,cyan,1,0.14,-0.14,orange,1,-0.41,-0.14,black,1,-0.27,0.41,blue,1,0.14,0.27,magenta,0,0.27,-0.14,green,0,-0.27,-0.14,red,0,-0.14,0.41,yellow,0,0.05,0.05,0.15,0.14,-0.14,green,l,501638,22,2020-08-05_13h02.02.881,CDT_GNG_IUS12,2020.1.2,MacIntel,60,l,1,1.83178,0,20,20,51,1,,,,,,,,,,,,,,,,,,,,,,,,,,,,,,,,,,,,,,,,,,,,,,,,
,,,,,,,,,,,,98,different,8,0.41,0.27,black,1,0.14,-0.27,yellow,1,-0.14,-0.27,cyan,1,-0.27,0.14,red,1,0.27,0.27,green,1,0.41,-0.41,magenta,1,-0.41,-0.14,blue,1,-0.41,0.41,orange,1,0.05,0.05,0.15,0.41,0.27,red,l,501638,22,2020-08-05_13h02.02.881,CDT_GNG_IUS12,2020.1.2,MacIntel,60,l,1,0.904465,0,21,21,97,1,,,,,,,,,,,,,,,,,,,,,,,,,,,,,,,,,,,,,,,,,,,,,,,,
,,,,,,,,,,,,91,different,8,0.27,0.27,red,1,0.41,-0.14,orange,1,-0.14,-0.27,green,1,-0.27,0.27,yellow,1,0.14,0.27,cyan,1,0.14,-0.14,black,1,-0.41,-0.41,blue,1,-0.14,0.41,magenta,1,0.05,0.05,0.15,-0.14,0.41,yellow,l,501638,22,2020-08-05_13h02.02.881,CDT_GNG_IUS12,2020.1.2,MacIntel,60,l,1,0.99965,0,22,22,90,1,,,,,,,,,,,,,,,,,,,,,,,,,,,,,,,,,,,,,,,,,,,,,,,,
,,,,,,,,,,,,41,different,4,0.41,0.41,green,1,0.27,-0.41,orange,1,-0.27,-0.41,black,1,-0.27,0.41,magenta,1,0.14,0.41,cyan,0,0.41,-0.27,blue,0,-0.14,-0.27,red,0,-0.27,0.14,yellow,0,0.05,0.05,0.15,-0.27,-0.41,cyan,l,501638,22,2020-08-05_13h02.02.881,CDT_GNG_IUS12,2020.1.2,MacIntel,60,l,1,1.000385,0,23,23,40,1,,,,,,,,,,,,,,,,,,,,,,,,,,,,,,,,,,,,,,,,,,,,,,,,
,,,,,,,,,,,,45,different,4,0.14,0.14,red,1,0.27,-0.27,black,1,-0.41,-0.27,cyan,1,-0.41,0.27,blue,1,0.27,0.27,magenta,0,0.14,-0.41,orange,0,-0.14,-0.14,green,0,-0.27,0.14,yellow,0,0.05,0.05,0.15,0.14,0.14,blue,l,501638,22,2020-08-05_13h02.02.881,CDT_GNG_IUS12,2020.1.2,MacIntel,60,l,1,0.76867,0,24,24,44,1,,,,,,,,,,,,,,,,,,,,,,,,,,,,,,,,,,,,,,,,,,,,,,,,
,,,,,,,,,,,,40,different,4,0.41,0.41,magenta,1,0.41,-0.27,cyan,1,-0.27,-0.41,yellow,1,-0.14,0.41,black,1,0.27,0.27,blue,0,0.41,-0.41,green,0,-0.14,-0.27,red,0,-0.27,0.27,orange,0,0.05,0.05,0.15,-0.27,-0.41,orange,l,501638,22,2020-08-05_13h02.02.881,CDT_GNG_IUS12,2020.1.2,MacIntel,60,l,1,0.76879,0,25,25,39,1,,,,,,,,,,,,,,,,,,,,,,,,,,,,,,,,,,,,,,,,,,,,,,,,
,,,,,,,,,,,,114,different,8,0.41,0.41,yellow,1,0.14,-0.41,red,1,-0.41,-0.41,blue,1,-0.27,0.14,cyan,1,0.41,0.27,black,1,0.27,-0.41,green,1,-0.14,-0.41,orange,1,-0.14,0.41,magenta,1,0.05,0.05,0.15,-0.14,0.41,orange,l,501638,22,2020-08-05_13h02.02.881,CDT_GNG_IUS12,2020.1.2,MacIntel,60,l,1,0.70058,0,26,26,113,1,,,,,,,,,,,,,,,,,,,,,,,,,,,,,,,,,,,,,,,,,,,,,,,,
,,,,,,,,,,,,20,same,4,0.27,0.14,cyan,1,0.14,-0.14,orange,1,-0.27,-0.27,green,1,-0.41,0.27,yellow,1,0.14,0.41,black,0,0.41,-0.41,red,0,-0.27,-0.41,magenta,0,-0.27,0.27,blue,0,0.05,0.05,0.15,-0.27,-0.27,green,k,501638,22,2020-08-05_13h02.02.881,CDT_GNG_IUS12,2020.1.2,MacIntel,60,k,1,2.250005,0,27,27,19,1,,,,,,,,,,,,,,,,,,,,,,,,,,,,,,,,,,,,,,,,,,,,,,,,
,,,,,,,,,,,,6,same,4,0.41,0.27,orange,1,0.41,-0.14,magenta,1,-0.14,-0.27,black,1,-0.27,0.41,cyan,1,0.14,0.41,red,0,0.14,-0.41,blue,0,-0.14,-0.14,green,0,-0.41,0.41,yellow,0,0.05,0.05,0.15,-0.14,-0.27,black,k,501638,22,2020-08-05_13h02.02.881,CDT_GNG_IUS12,2020.1.2,MacIntel,60,k,1,1.18341,0,28,28,5,1,,,,,,,,,,,,,,,,,,,,,,,,,,,,,,,,,,,,,,,,,,,,,,,,
,,,,,,,,,,,,26,same,4,0.14,0.14,black,1,0.14,-0.14,red,1,-0.41,-0.14,yellow,1,-0.14,0.41,orange,1,0.27,0.14,blue,0,0.14,-0.27,magenta,0,-0.27,-0.41,green,0,-0.14,0.27,cyan,0,0.05,0.05,0.15,-0.41,-0.14,yellow,k,501638,22,2020-08-05_13h02.02.881,CDT_GNG_IUS12,2020.1.2,MacIntel,60,l,0,1.050975,0,29,29,25,1,,,,,,,,,,,,,,,,,,,,,,,,,,,,,,,,,,,,,,,,,,,,,,,,
,,,,,,,,,,,,69,same,8,0.27,0.14,magenta,1,0.27,-0.41,yellow,1,-0.14,-0.41,green,1,-0.14,0.41,orange,1,0.14,0.41,red,1,0.14,-0.27,black,1,-0.14,-0.27,blue,1,-0.27,0.14,cyan,1,0.05,0.05,0.15,0.14,-0.27,black,k,501638,22,2020-08-05_13h02.02.881,CDT_GNG_IUS12,2020.1.2,MacIntel,60,l,0,0.749375,0,30,30,68,1,,,,,,,,,,,,,,,,,,,,,,,,,,,,,,,,,,,,,,,,,,,,,,,,
,,,,,,,,,,,,32,different,4,0.41,0.27,orange,1,0.41,-0.41,green,1,-0.14,-0.14,cyan,1,-0.41,0.41,red,1,0.27,0.41,black,0,0.27,-0.41,magenta,0,-0.27,-0.14,blue,0,-0.14,0.14,yellow,0,0.05,0.05,0.15,-0.14,-0.14,blue,l,501638,22,2020-08-05_13h02.02.881,CDT_GNG_IUS12,2020.1.2,MacIntel,60,k,0,7.398725,0,31,31,31,1,,,,,,,,,,,,,,,,,,,,,,,,,,,,,,,,,,,,,,,,,,,,,,,,
,,,,,,,,,,,,81,same,8,0.27,0.14,yellow,1,0.41,-0.14,blue,1,-0.41,-0.14,green,1,-0.41,0.14,orange,1,0.14,0.41,red,1,0.14,-0.27,magenta,1,-0.14,-0.27,cyan,1,-0.14,0.14,black,1,0.05,0.05,0.15,-0.41,0.14,orange,k,501638,22,2020-08-05_13h02.02.881,CDT_GNG_IUS12,2020.1.2,MacIntel,60,l,0,0.85108,0,32,32,80,1,,,,,,,,,,,,,,,,,,,,,,,,,,,,,,,,,,,,,,,,,,,,,,,,
,,,,,,,,,,,,37,different,4,0.41,0.41,yellow,1,0.27,-0.14,black,1,-0.14,-0.14,orange,1,-0.41,0.14,green,1,0.14,0.14,cyan,0,0.27,-0.41,blue,0,-0.14,-0.27,magenta,0,-0.14,0.14,red,0,0.05,0.05,0.15,0.41,0.41,red,l,501638,22,2020-08-05_13h02.02.881,CDT_GNG_IUS12,2020.1.2,MacIntel,60,l,1,0.63307,0,33,33,36,1,,,,,,,,,,,,,,,,,,,,,,,,,,,,,,,,,,,,,,,,,,,,,,,,
,,,,,,,,,,,,63,same,8,0.27,0.27,magenta,1,0.27,-0.27,yellow,1,-0.27,-0.14,orange,1,-0.14,0.14,green,1,0.41,0.27,blue,1,0.41,-0.27,cyan,1,-0.41,-0.41,red,1,-0.41,0.27,black,1,0.05,0.05,0.15,0.27,0.27,magenta,k,501638,22,2020-08-05_13h02.02.881,CDT_GNG_IUS12,2020.1.2,MacIntel,60,l,0,0.865165,0,34,34,62,1,,,,,,,,,,,,,,,,,,,,,,,,,,,,,,,,,,,,,,,,,,,,,,,,
,,,,,,,,,,,,102,different,8,0.14,0.27,yellow,1,0.14,-0.41,green,1,-0.41,-0.27,red,1,-0.14,0.41,orange,1,0.41,0.41,magenta,1,0.27,-0.41,blue,1,-0.27,-0.41,cyan,1,-0.27,0.27,black,1,0.05,0.05,0.15,-0.27,0.27,yellow,l,501638,22,2020-08-05_13h02.02.881,CDT_GNG_IUS12,2020.1.2,MacIntel,60,l,1,0.84353,0,35,35,101,1,,,,,,,,,,,,,,,,,,,,,,,,,,,,,,,,,,,,,,,,,,,,,,,,
,,,,,,,,,,,,107,different,8,0.27,0.41,green,1,0.27,-0.41,cyan,1,-0.41,-0.41,black,1,-0.14,0.41,blue,1,0.14,0.14,red,1,0.27,-0.27,yellow,1,-0.14,-0.41,magenta,1,-0.14,0.14,orange,1,0.05,0.05,0.15,-0.14,0.14,black,l,501638,22,2020-08-05_13h02.02.881,CDT_GNG_IUS12,2020.1.2,MacIntel,60,l,1,0.78326,0,36,36,106,1,,,,,,,,,,,,,,,,,,,,,,,,,,,,,,,,,,,,,,,,,,,,,,,,
,,,,,,,,,,,,30,same,4,0.14,0.41,black,1,0.41,-0.27,yellow,1,-0.14,-0.27,green,1,-0.41,0.14,orange,1,0.41,0.27,blue,0,0.14,-0.41,magenta,0,-0.27,-0.27,cyan,0,-0.41,0.41,red,0,0.05,0.05,0.15,0.14,0.41,black,k,501638,22,2020-08-05_13h02.02.881,CDT_GNG_IUS12,2020.1.2,MacIntel,60,k,1,0.700055,0,37,37,29,1,,,,,,,,,,,,,,,,,,,,,,,,,,,,,,,,,,,,,,,,,,,,,,,,
,,,,,,,,,,,,78,same,8,0.41,0.14,green,1,0.14,-0.27,magenta,1,-0.41,-0.27,blue,1,-0.41,0.41,black,1,0.41,0.27,cyan,1,0.41,-0.14,orange,1,-0.14,-0.41,yellow,1,-0.14,0.41,red,1,0.05,0.05,0.15,-0.41,-0.27,blue,k,501638,22,2020-08-05_13h02.02.881,CDT_GNG_IUS12,2020.1.2,MacIntel,60,l,0,0.667215,0,38,38,77,1,,,,,,,,,,,,,,,,,,,,,,,,,,,,,,,,,,,,,,,,,,,,,,,,
,,,,,,,,,,,,111,different,8,0.27,0.14,red,1,0.41,-0.27,green,1,-0.27,-0.14,yellow,1,-0.14,0.14,orange,1,0.41,0.41,black,1,0.27,-0.27,cyan,1,-0.27,-0.41,blue,1,-0.27,0.14,magenta,1,0.05,0.05,0.15,-0.27,-0.41,red,l,501638,22,2020-08-05_13h02.02.881,CDT_GNG_IUS12,2020.1.2,MacIntel,60,l,1,0.79993,0,39,39,110,1,,,,,,,,,,,,,,,,,,,,,,,,,,,,,,,,,,,,,,,,,,,,,,,,
,,,,,,,,,,,,75,same,8,0.41,0.27,blue,1,0.41,-0.41,black,1,-0.41,-0.41,red,1,-0.27,0.14,magenta,1,0.27,0.14,yellow,1,0.27,-0.27,cyan,1,-0.14,-0.27,green,1,-0.41,0.27,orange,1,0.05,0.05,0.15,-0.14,-0.27,green,k,501638,22,2020-08-05_13h02.02.881,CDT_GNG_IUS12,2020.1.2,MacIntel,60,l,0,0.683925,0,40,40,74,1,,,,,,,,,,,,,,,,,,,,,,,,,,,,,,,,,,,,,,,,,,,,,,,,
,,,,,,,,,,,,96,different,8,0.14,0.14,yellow,1,0.14,-0.41,black,1,-0.27,-0.27,orange,1,-0.14,0.41,blue,1,0.14,0.27,magenta,1,0.41,-0.27,cyan,1,-0.41,-0.41,red,1,-0.41,0.41,green,1,0.05,0.05,0.15,0.41,-0.27,magenta,l,501638,22,2020-08-05_13h02.02.881,CDT_GNG_IUS12,2020.1.2,MacIntel,60,l,1,0.71732,0,41,41,95,1,,,,,,,,,,,,,,,,,,,,,,,,,,,,,,,,,,,,,,,,,,,,,,,,
,,,,,,,,,,,,72,same,8,0.27,0.41,blue,1,0.41,-0.27,magenta,1,-0.41,-0.41,yellow,1,-0.27,0.41,black,1,0.41,0.41,cyan,1,0.27,-0.41,green,1,-0.41,-0.27,orange,1,-0.14,0.27,red,1,0.05,0.05,0.15,-0.14,0.27,red,k,501638,22,2020-08-05_13h02.02.881,CDT_GNG_IUS12,2020.1.2,MacIntel,60,l,0,0.717865,0,42,42,71,1,,,,,,,,,,,,,,,,,,,,,,,,,,,,,,,,,,,,,,,,,,,,,,,,
,,,,,,,,,,,,65,same,8,0.41,0.41,blue,1,0.27,-0.41,yellow,1,-0.27,-0.41,red,1,-0.41,0.27,cyan,1,0.14,0.27,black,1,0.27,-0.27,orange,1,-0.41,-0.41,magenta,1,-0.41,0.41,green,1,0.05,0.05,0.15,0.27,-0.27,orange,k,501638,22,2020-08-05_13h02.02.881,CDT_GNG_IUS12,2020.1.2,MacIntel,60,l,0,0.556045,0,43,43,64,1,,,,,,,,,,,,,,,,,,,,,,,,,,,,,,,,,,,,,,,,,,,,,,,,
,,,,,,,,,,,,14,same,4,0.27,0.41,cyan,1,0.27,-0.41,black,1,-0.27,-0.27,yellow,1,-0.27,0.27,green,1,0.41,0.41,blue,0,0.14,-0.27,red,0,-0.14,-0.14,orange,0,-0.41,0.41,magenta,0,0.05,0.05,0.15,0.27,-0.41,black,k,501638,22,2020-08-05_13h02.02.881,CDT_GNG_IUS12,2020.1.2,MacIntel,60,l,0,0.6638,0,44,44,13,1,,,,,,,,,,,,,,,,,,,,,,,,,,,,,,,,,,,,,,,,,,,,,,,,
,,,,,,,,,,,,95,different,8,0.41,0.41,black,1,0.14,-0.14,cyan,1,-0.14,-0.41,orange,1,-0.14,0.27,blue,1,0.41,0.27,magenta,1,0.14,-0.41,green,1,-0.27,-0.27,red,1,-0.41,0.14,yellow,1,0.05,0.05,0.15,-0.14,0.27,green,l,501638,22,2020-08-05_13h02.02.881,CDT_GNG_IUS12,2020.1.2,MacIntel,60,l,1,1.21392,0,45,45,94,1,,,,,,,,,,,,,,,,,,,,,,,,,,,,,,,,,,,,,,,,,,,,,,,,
,,,,,,,,,,,,60,different,4,0.41,0.14,cyan,1,0.14,-0.41,green,1,-0.41,-0.41,yellow,1,-0.41,0.41,magenta,1,0.14,0.14,orange,0,0.41,-0.41,red,0,-0.14,-0.41,black,0,-0.27,0.27,blue,0,0.05,0.05,0.15,0.41,0.14,blue,l,501638,22,2020-08-05_13h02.02.881,CDT_GNG_IUS12,2020.1.2,MacIntel,60,l,1,0.60019,0,46,46,59,1,,,,,,,,,,,,,,,,,,,,,,,,,,,,,,,,,,,,,,,,,,,,,,,,
,,,,,,,,,,,,74,same,8,0.41,0.41,blue,1,0.14,-0.14,orange,1,-0.27,-0.41,cyan,1,-0.27,0.41,yellow,1,0.41,0.27,black,1,0.41,-0.41,red,1,-0.14,-0.27,magenta,1,-0.27,0.14,green,1,0.05,0.05,0.15,0.41,0.27,black,k,501638,22,2020-08-05_13h02.02.881,CDT_GNG_IUS12,2020.1.2,MacIntel,60,l,0,0.769485,0,47,47,73,1,,,,,,,,,,,,,,,,,,,,,,,,,,,,,,,,,,,,,,,,,,,,,,,,
,,,,,,,,,,,,79,same,8,0.27,0.14,green,1,0.41,-0.14,yellow,1,-0.27,-0.41,orange,1,-0.14,0.14,black,1,0.41,0.27,cyan,1,0.14,-0.14,red,1,-0.14,-0.27,blue,1,-0.27,0.41,magenta,1,0.05,0.05,0.15,0.41,0.27,cyan,k,501638,22,2020-08-05_13h02.02.881,CDT_GNG_IUS12,2020.1.2,MacIntel,60,k,1,0.651015,0,48,48,78,1,,,,,,,,,,,,,,,,,,,,,,,,,,,,,,,,,,,,,,,,,,,,,,,,
,,,,,,,,,,,,57,different,4,0.14,0.41,black,1,0.14,-0.14,blue,1,-0.41,-0.14,red,1,-0.41,0.14,orange,1,0.41,0.41,magenta,0,0.41,-0.14,cyan,0,-0.14,-0.27,yellow,0,-0.27,0.41,green,0,0.05,0.05,0.15,-0.41,0.14,blue,l,501638,22,2020-08-05_13h02.02.881,CDT_GNG_IUS12,2020.1.2,MacIntel,60,k,0,0.819045,0,49,49,56,1,,,,,,,,,,,,,,,,,,,,,,,,,,,,,,,,,,,,,,,,,,,,,,,,
,,,,,,,,,,,,103,different,8,0.14,0.14,black,1,0.14,-0.27,cyan,1,-0.41,-0.41,green,1,-0.41,0.27,red,1,0.27,0.41,orange,1,0.27,-0.27,blue,1,-0.41,-0.14,magenta,1,-0.41,0.41,yellow,1,0.05,0.05,0.15,0.27,-0.27,magenta,l,501638,22,2020-08-05_13h02.02.881,CDT_GNG_IUS12,2020.1.2,MacIntel,60,l,1,0.699965,0,50,50,102,1,,,,,,,,,,,,,,,,,,,,,,,,,,,,,,,,,,,,,,,,,,,,,,,,
,,,,,,,,,,,,112,different,8,0.27,0.41,magenta,1,0.14,-0.41,green,1,-0.14,-0.14,black,1,-0.27,0.27,cyan,1,0.41,0.41,red,1,0.14,-0.27,blue,1,-0.41,-0.14,orange,1,-0.14,0.14,yellow,1,0.05,0.05,0.15,0.41,0.41,blue,l,501638,22,2020-08-05_13h02.02.881,CDT_GNG_IUS12,2020.1.2,MacIntel,60,l,1,1.47136,0,51,51,111,1,,,,,,,,,,,,,,,,,,,,,,,,,,,,,,,,,,,,,,,,,,,,,,,,
,,,,,,,,,,,,34,different,4,0.14,0.14,cyan,1,0.14,-0.14,magenta,1,-0.41,-0.41,black,1,-0.41,0.14,yellow,1,0.27,0.27,orange,0,0.14,-0.41,green,0,-0.41,-0.14,red,0,-0.14,0.14,blue,0,0.05,0.05,0.15,0.14,-0.14,cyan,l,501638,22,2020-08-05_13h02.02.881,CDT_GNG_IUS12,2020.1.2,MacIntel,60,l,1,1.63274,0,52,52,33,1,,,,,,,,,,,,,,,,,,,,,,,,,,,,,,,,,,,,,,,,,,,,,,,,
,,,,,,,,,,,,8,same,4,0.27,0.41,orange,1,0.41,-0.14,cyan,1,-0.14,-0.41,green,1,-0.14,0.41,black,1,0.41,0.41,blue,0,0.27,-0.41,yellow,0,-0.41,-0.27,red,0,-0.41,0.41,magenta,0,0.05,0.05,0.15,-0.14,-0.41,green,k,501638,22,2020-08-05_13h02.02.881,CDT_GNG_IUS12,2020.1.2,MacIntel,60,l,0,1.06651,0,53,53,7,1,,,,,,,,,,,,,,,,,,,,,,,,,,,,,,,,,,,,,,,,,,,,,,,,
,,,,,,,,,,,,58,different,4,0.14,0.41,blue,1,0.14,-0.14,black,1,-0.14,-0.14,yellow,1,-0.27,0.41,magenta,1,0.27,0.41,red,0,0.14,-0.27,cyan,0,-0.41,-0.27,orange,0,-0.27,0.27,green,0,0.05,0.05,0.15,0.14,0.41,yellow,l,501638,22,2020-08-05_13h02.02.881,CDT_GNG_IUS12,2020.1.2,MacIntel,60,l,1,0.79743,0,54,54,57,1,,,,,,,,,,,,,,,,,,,,,,,,,,,,,,,,,,,,,,,,,,,,,,,,
,,,,,,,,,,,,64,same,8,0.41,0.14,green,1,0.14,-0.41,cyan,1,-0.14,-0.14,yellow,1,-0.14,0.27,red,1,0.27,0.14,blue,1,0.27,-0.27,magenta,1,-0.14,-0.27,orange,1,-0.14,0.41,black,1,0.05,0.05,0.15,-0.14,0.27,red,k,501638,22,2020-08-05_13h02.02.881,CDT_GNG_IUS12,2020.1.2,MacIntel,60,l,0,0.71887,0,55,55,63,1,,,,,,,,,,,,,,,,,,,,,,,,,,,,,,,,,,,,,,,,,,,,,,,,
,,,,,,,,,,,,51,different,4,0.41,0.41,yellow,1,0.14,-0.27,red,1,-0.14,-0.27,cyan,1,-0.41,0.14,orange,1,0.14,0.41,green,0,0.27,-0.41,black,0,-0.27,-0.14,blue,0,-0.41,0.27,magenta,0,0.05,0.05,0.15,0.41,0.41,red,l,501638,22,2020-08-05_13h02.02.881,CDT_GNG_IUS12,2020.1.2,MacIntel,60,l,1,0.650785,0,56,56,50,1,,,,,,,,,,,,,,,,,,,,,,,,,,,,,,,,,,,,,,,,,,,,,,,,
,,,,,,,,,,,,28,same,4,0.41,0.41,magenta,1,0.27,-0.14,blue,1,-0.14,-0.14,red,1,-0.14,0.41,orange,1,0.14,0.14,black,0,0.41,-0.14,green,0,-0.27,-0.14,yellow,0,-0.14,0.27,cyan,0,0.05,0.05,0.15,0.27,-0.14,blue,k,501638,22,2020-08-05_13h02.02.881,CDT_GNG_IUS12,2020.1.2,MacIntel,60,l,0,0.63362,0,57,57,27,1,,,,,,,,,,,,,,,,,,,,,,,,,,,,,,,,,,,,,,,,,,,,,,,,
,,,,,,,,,,,,2,same,4,0.27,0.41,magenta,1,0.41,-0.14,red,1,-0.27,-0.14,orange,1,-0.27,0.14,blue,1,0.14,0.14,cyan,0,0.14,-0.14,green,0,-0.14,-0.14,black,0,-0.14,0.41,yellow,0,0.05,0.05,0.15,-0.27,-0.14,orange,k,501638,22,2020-08-05_13h02.02.881,CDT_GNG_IUS12,2020.1.2,MacIntel,60,l,0,0.53628,0,58,58,1,1,,,,,,,,,,,,,,,,,,,,,,,,,,,,,,,,,,,,,,,,,,,,,,,,
,,,,,,,,,,,,73,same,8,0.14,0.14,blue,1,0.14,-0.41,yellow,1,-0.41,-0.41,red,1,-0.41,0.27,orange,1,0.27,0.41,magenta,1,0.14,-0.27,green,1,-0.41,-0.27,black,1,-0.27,0.27,cyan,1,0.05,0.05,0.15,0.27,0.41,magenta,k,501638,22,2020-08-05_13h02.02.881,CDT_GNG_IUS12,2020.1.2,MacIntel,60,k,1,1.034045,0,59,59,72,1,,,,,,,,,,,,,,,,,,,,,,,,,,,,,,,,,,,,,,,,,,,,,,,,
,,,,,,,,,,,,55,different,4,0.14,0.14,black,1,0.41,-0.14,cyan,1,-0.27,-0.27,magenta,1,-0.14,0.41,blue,1,0.27,0.14,yellow,0,0.14,-0.27,red,0,-0.27,-0.41,orange,0,-0.27,0.41,green,0,0.05,0.05,0.15,0.14,0.14,yellow,l,501638,22,2020-08-05_13h02.02.881,CDT_GNG_IUS12,2020.1.2,MacIntel,60,l,1,0.56862,0,60,60,54,1,,,,,,,,,,,,,,,,,,,,,,,,,,,,,,,,,,,,,,,,,,,,,,,,
,,,,,,,,,,,,70,same,8,0.41,0.41,black,1,0.14,-0.27,red,1,-0.41,-0.41,magenta,1,-0.27,0.41,green,1,0.27,0.14,yellow,1,0.41,-0.41,orange,1,-0.27,-0.14,blue,1,-0.27,0.27,cyan,1,0.05,0.05,0.15,0.14,-0.27,red,k,501638,22,2020-08-05_13h02.02.881,CDT_GNG_IUS12,2020.1.2,MacIntel,60,l,0,0.917005,0,61,61,69,1,,,,,,,,,,,,,,,,,,,,,,,,,,,,,,,,,,,,,,,,,,,,,,,,
,,,,,,,,,,,,90,same,8,0.27,0.14,orange,1,0.14,-0.27,green,1,-0.14,-0.41,magenta,1,-0.14,0.27,cyan,1,0.41,0.41,blue,1,0.14,-0.14,black,1,-0.14,-0.14,yellow,1,-0.27,0.27,red,1,0.05,0.05,0.15,0.14,-0.14,black,k,501638,22,2020-08-05_13h02.02.881,CDT_GNG_IUS12,2020.1.2,MacIntel,60,l,0,0.72818,0,62,62,89,1,,,,,,,,,,,,,,,,,,,,,,,,,,,,,,,,,,,,,,,,,,,,,,,,
,,,,,,,,,,,,48,different,4,0.14,0.27,red,1,0.27,-0.14,yellow,1,-0.27,-0.41,magenta,1,-0.41,0.14,green,1,0.14,0.14,orange,0,0.41,-0.14,cyan,0,-0.27,-0.27,black,0,-0.41,0.41,blue,0,0.05,0.05,0.15,0.14,0.27,blue,l,501638,22,2020-08-05_13h02.02.881,CDT_GNG_IUS12,2020.1.2,MacIntel,60,l,1,0.55889,0,63,63,47,1,,,,,,,,,,,,,,,,,,,,,,,,,,,,,,,,,,,,,,,,,,,,,,,,
,,,,,,,,,,,,104,different,8,0.41,0.41,cyan,1,0.41,-0.41,blue,1,-0.27,-0.14,green,1,-0.27,0.14,orange,1,0.14,0.41,red,1,0.27,-0.27,yellow,1,-0.41,-0.27,magenta,1,-0.14,0.41,black,1,0.05,0.05,0.15,-0.14,0.41,magenta,l,501638,22,2020-08-05_13h02.02.881,CDT_GNG_IUS12,2020.1.2,MacIntel,60,l,1,0.524595,0,64,64,103,1,,,,,,,,,,,,,,,,,,,,,,,,,,,,,,,,,,,,,,,,,,,,,,,,
,,,,,,,,,,,,23,same,4,0.41,0.14,cyan,1,0.14,-0.27,magenta,1,-0.14,-0.27,red,1,-0.14,0.27,green,1,0.41,0.27,blue,0,0.14,-0.41,yellow,0,-0.41,-0.27,orange,0,-0.27,0.41,black,0,0.05,0.05,0.15,-0.14,0.27,green,k,501638,22,2020-08-05_13h02.02.881,CDT_GNG_IUS12,2020.1.2,MacIntel,60,k,1,0.94722,0,65,65,22,1,,,,,,,,,,,,,,,,,,,,,,,,,,,,,,,,,,,,,,,,,,,,,,,,
,,,,,,,,,,,,117,different,8,0.14,0.41,black,1,0.14,-0.41,cyan,1,-0.41,-0.27,magenta,1,-0.27,0.41,yellow,1,0.41,0.27,orange,1,0.41,-0.14,red,1,-0.27,-0.27,green,1,-0.14,0.14,blue,1,0.05,0.05,0.15,0.41,-0.14,black,l,501638,22,2020-08-05_13h02.02.881,CDT_GNG_IUS12,2020.1.2,MacIntel,60,l,1,0.7011,0,66,66,116,1,,,,,,,,,,,,,,,,,,,,,,,,,,,,,,,,,,,,,,,,,,,,,,,,
,,,,,,,,,,,,7,same,4,0.41,0.41,yellow,1,0.41,-0.41,blue,1,-0.14,-0.41,black,1,-0.14,0.14,magenta,1,0.27,0.41,red,0,0.41,-0.27,green,0,-0.41,-0.14,cyan,0,-0.14,0.27,orange,0,0.05,0.05,0.15,-0.14,0.14,magenta,k,501638,22,2020-08-05_13h02.02.881,CDT_GNG_IUS12,2020.1.2,MacIntel,60,k,1,0.803035,0,67,67,6,1,,,,,,,,,,,,,,,,,,,,,,,,,,,,,,,,,,,,,,,,,,,,,,,,
,,,,,,,,,,,,44,different,4,0.27,0.27,black,1,0.41,-0.14,red,1,-0.41,-0.27,magenta,1,-0.14,0.14,green,1,0.41,0.41,cyan,0,0.14,-0.14,yellow,0,-0.27,-0.41,blue,0,-0.27,0.14,orange,0,0.05,0.05,0.15,0.41,-0.14,magenta,l,501638,22,2020-08-05_13h02.02.881,CDT_GNG_IUS12,2020.1.2,MacIntel,60,l,1,0.83407,0,68,68,43,1,,,,,,,,,,,,,,,,,,,,,,,,,,,,,,,,,,,,,,,,,,,,,,,,
,,,,,,,,,,,,105,different,8,0.41,0.27,cyan,1,0.14,-0.14,magenta,1,-0.27,-0.14,blue,1,-0.41,0.41,yellow,1,0.41,0.41,red,1,0.14,-0.41,green,1,-0.27,-0.27,orange,1,-0.27,0.41,black,1,0.05,0.05,0.15,0.41,0.27,orange,l,501638,22,2020-08-05_13h02.02.881,CDT_GNG_IUS12,2020.1.2,MacIntel,60,l,1,0.83327,0,69,69,104,1,,,,,,,,,,,,,,,,,,,,,,,,,,,,,,,,,,,,,,,,,,,,,,,,
,,,,,,,,,,,,11,same,4,0.27,0.14,red,1,0.14,-0.14,cyan,1,-0.27,-0.41,blue,1,-0.27,0.14,yellow,1,0.27,0.27,green,0,0.41,-0.27,black,0,-0.41,-0.41,magenta,0,-0.41,0.14,orange,0,0.05,0.05,0.15,-0.27,-0.41,blue,k,501638,22,2020-08-05_13h02.02.881,CDT_GNG_IUS12,2020.1.2,MacIntel,60,l,0,1.200225,0,70,70,10,1,,,,,,,,,,,,,,,,,,,,,,,,,,,,,,,,,,,,,,,,,,,,,,,,
,,,,,,,,,,,,31,different,4,0.27,0.41,orange,1,0.14,-0.14,black,1,-0.41,-0.41,yellow,1,-0.41,0.27,cyan,1,0.27,0.14,green,0,0.41,-0.27,blue,0,-0.14,-0.41,red,0,-0.41,0.14,magenta,0,0.05,0.05,0.15,-0.41,0.27,yellow,l,501638,22,2020-08-05_13h02.02.881,CDT_GNG_IUS12,2020.1.2,MacIntel,60,l,1,0.745625,0,71,71,30,1,,,,,,,,,,,,,,,,,,,,,,,,,,,,,,,,,,,,,,,,,,,,,,,,
,,,,,,,,,,,,9,same,4,0.27,0.27,red,1,0.14,-0.27,orange,1,-0.14,-0.41,yellow,1,-0.27,0.41,blue,1,0.41,0.41,green,0,0.41,-0.41,cyan,0,-0.27,-0.41,magenta,0,-0.27,0.27,black,0,0.05,0.05,0.15,0.27,0.27,red,k,501638,22,2020-08-05_13h02.02.881,CDT_GNG_IUS12,2020.1.2,MacIntel,60,k,1,0.712435,0,72,72,8,1,,,,,,,,,,,,,,,,,,,,,,,,,,,,,,,,,,,,,,,,,,,,,,,,
,,,,,,,,,,,,113,different,8,0.41,0.27,magenta,1,0.27,-0.27,red,1,-0.41,-0.41,yellow,1,-0.14,0.27,green,1,0.41,0.14,orange,1,0.14,-0.41,blue,1,-0.14,-0.41,black,1,-0.41,0.27,cyan,1,0.05,0.05,0.15,0.41,0.14,yellow,l,501638,22,2020-08-05_13h02.02.881,CDT_GNG_IUS12,2020.1.2,MacIntel,60,l,1,0.70716,0,73,73,112,1,,,,,,,,,,,,,,,,,,,,,,,,,,,,,,,,,,,,,,,,,,,,,,,,
,,,,,,,,,,,,5,same,4,0.27,0.27,blue,1,0.14,-0.14,orange,1,-0.27,-0.27,black,1,-0.27,0.41,magenta,1,0.27,0.41,green,0,0.14,-0.41,cyan,0,-0.27,-0.41,yellow,0,-0.27,0.14,red,0,0.05,0.05,0.15,0.14,-0.14,orange,k,501638,22,2020-08-05_13h02.02.881,CDT_GNG_IUS12,2020.1.2,MacIntel,60,l,0,0.619035,0,74,74,4,1,,,,,,,,,,,,,,,,,,,,,,,,,,,,,,,,,,,,,,,,,,,,,,,,
,,,,,,,,,,,,93,different,8,0.14,0.41,blue,1,0.14,-0.27,red,1,-0.41,-0.14,magenta,1,-0.14,0.27,black,1,0.41,0.27,yellow,1,0.41,-0.14,orange,1,-0.27,-0.14,green,1,-0.14,0.41,cyan,1,0.05,0.05,0.15,0.41,-0.14,blue,l,501638,22,2020-08-05_13h02.02.881,CDT_GNG_IUS12,2020.1.2,MacIntel,60,l,1,0.950165,0,75,75,92,1,,,,,,,,,,,,,,,,,,,,,,,,,,,,,,,,,,,,,,,,,,,,,,,,
,,,,,,,,,,,,116,different,8,0.27,0.14,green,1,0.41,-0.14,black,1,-0.27,-0.41,magenta,1,-0.41,0.14,cyan,1,0.41,0.41,blue,1,0.41,-0.27,yellow,1,-0.41,-0.27,red,1,-0.27,0.14,orange,1,0.05,0.05,0.15,0.41,-0.27,magenta,l,501638,22,2020-08-05_13h02.02.881,CDT_GNG_IUS12,2020.1.2,MacIntel,60,l,1,0.483585,0,76,76,115,1,,,,,,,,,,,,,,,,,,,,,,,,,,,,,,,,,,,,,,,,,,,,,,,,
,,,,,,,,,,,,1,same,4,0.14,0.14,magenta,1,0.27,-0.14,blue,1,-0.27,-0.14,black,1,-0.27,0.27,green,1,0.41,0.41,red,0,0.27,-0.27,cyan,0,-0.14,-0.14,yellow,0,-0.27,0.41,orange,0,0.05,0.05,0.15,0.14,0.14,magenta,k,501638,22,2020-08-05_13h02.02.881,CDT_GNG_IUS12,2020.1.2,MacIntel,60,k,1,0.484745,0,77,77,0,1,,,,,,,,,,,,,,,,,,,,,,,,,,,,,,,,,,,,,,,,,,,,,,,,
,,,,,,,,,,,,36,different,4,0.41,0.27,magenta,1,0.27,-0.14,orange,1,-0.41,-0.41,yellow,1,-0.14,0.14,blue,1,0.14,0.41,green,0,0.27,-0.27,black,0,-0.41,-0.27,cyan,0,-0.41,0.41,red,0,0.05,0.05,0.15,0.27,-0.14,black,l,501638,22,2020-08-05_13h02.02.881,CDT_GNG_IUS12,2020.1.2,MacIntel,60,l,1,0.78322,0,78,78,35,1,,,,,,,,,,,,,,,,,,,,,,,,,,,,,,,,,,,,,,,,,,,,,,,,
,,,,,,,,,,,,68,same,8,0.14,0.27,green,1,0.41,-0.27,magenta,1,-0.14,-0.27,cyan,1,-0.41,0.14,red,1,0.41,0.14,yellow,1,0.27,-0.14,blue,1,-0.14,-0.41,orange,1,-0.14,0.14,black,1,0.05,0.05,0.15,0.27,-0.14,blue,k,501638,22,2020-08-05_13h02.02.881,CDT_GNG_IUS12,2020.1.2,MacIntel,60,l,0,0.534465,0,79,79,67,1,,,,,,,,,,,,,,,,,,,,,,,,,,,,,,,,,,,,,,,,,,,,,,,,
,,,,,,,,,,,,15,same,4,0.41,0.14,magenta,1,0.41,-0.27,blue,1,-0.27,-0.14,yellow,1,-0.14,0.41,green,1,0.41,0.27,red,0,0.14,-0.14,orange,0,-0.14,-0.14,cyan,0,-0.27,0.27,black,0,0.05,0.05,0.15,-0.14,0.41,green,k,501638,22,2020-08-05_13h02.02.881,CDT_GNG_IUS12,2020.1.2,MacIntel,60,k,1,1.617765,0,80,80,14,1,,,,,,,,,,,,,,,,,,,,,,,,,,,,,,,,,,,,,,,,,,,,,,,,
,,,,,,,,,,,,50,different,4,0.41,0.14,black,1,0.14,-0.14,blue,1,-0.41,-0.41,red,1,-0.27,0.14,green,1,0.14,0.41,cyan,0,0.41,-0.14,magenta,0,-0.14,-0.27,yellow,0,-0.27,0.41,orange,0,0.05,0.05,0.15,-0.41,-0.41,orange,l,501638,22,2020-08-05_13h02.02.881,CDT_GNG_IUS12,2020.1.2,MacIntel,60,l,1,0.683645,0,81,81,49,1,,,,,,,,,,,,,,,,,,,,,,,,,,,,,,,,,,,,,,,,,,,,,,,,
,,,,,,,,,,,,115,different,8,0.14,0.27,green,1,0.27,-0.41,orange,1,-0.14,-0.14,yellow,1,-0.27,0.41,magenta,1,0.27,0.14,blue,1,0.14,-0.27,red,1,-0.41,-0.14,cyan,1,-0.41,0.14,black,1,0.05,0.05,0.15,0.14,-0.27,cyan,l,501638,22,2020-08-05_13h02.02.881,CDT_GNG_IUS12,2020.1.2,MacIntel,60,k,0,0.52917,0,82,82,114,1,,,,,,,,,,,,,,,,,,,,,,,,,,,,,,,,,,,,,,,,,,,,,,,,
,,,,,,,,,,,,120,different,8,0.41,0.41,blue,1,0.14,-0.14,magenta,1,-0.27,-0.27,cyan,1,-0.27,0.41,orange,1,0.27,0.41,yellow,1,0.14,-0.41,red,1,-0.14,-0.27,green,1,-0.14,0.41,black,1,0.05,0.05,0.15,-0.14,0.41,orange,l,501638,22,2020-08-05_13h02.02.881,CDT_GNG_IUS12,2020.1.2,MacIntel,60,l,1,0.80408,0,83,83,119,1,,,,,,,,,,,,,,,,,,,,,,,,,,,,,,,,,,,,,,,,,,,,,,,,
,,,,,,,,,,,,3,same,4,0.27,0.14,green,1,0.27,-0.27,orange,1,-0.27,-0.41,yellow,1,-0.41,0.41,magenta,1,0.14,0.41,black,0,0.14,-0.41,red,0,-0.27,-0.14,cyan,0,-0.14,0.14,blue,0,0.05,0.05,0.15,-0.27,-0.41,yellow,k,501638,22,2020-08-05_13h02.02.881,CDT_GNG_IUS12,2020.1.2,MacIntel,60,k,1,1.24993,0,84,84,2,1,,,,,,,,,,,,,,,,,,,,,,,,,,,,,,,,,,,,,,,,,,,,,,,,
,,,,,,,,,,,,59,different,4,0.27,0.41,black,1,0.41,-0.14,blue,1,-0.27,-0.27,cyan,1,-0.14,0.41,green,1,0.14,0.27,red,0,0.41,-0.41,magenta,0,-0.14,-0.27,orange,0,-0.41,0.27,yellow,0,0.05,0.05,0.15,0.27,0.41,yellow,l,501638,22,2020-08-05_13h02.02.881,CDT_GNG_IUS12,2020.1.2,MacIntel,60,l,1,1.183845,0,85,85,58,1,,,,,,,,,,,,,,,,,,,,,,,,,,,,,,,,,,,,,,,,,,,,,,,,
,,,,,,,,,,,,67,same,8,0.14,0.27,yellow,1,0.27,-0.14,magenta,1,-0.27,-0.27,black,1,-0.41,0.41,blue,1,0.41,0.14,cyan,1,0.14,-0.14,red,1,-0.41,-0.14,orange,1,-0.41,0.27,green,1,0.05,0.05,0.15,-0.27,-0.27,black,k,501638,22,2020-08-05_13h02.02.881,CDT_GNG_IUS12,2020.1.2,MacIntel,60,l,0,0.91754,0,86,86,66,1,,,,,,,,,,,,,,,,,,,,,,,,,,,,,,,,,,,,,,,,,,,,,,,,
,,,,,,,,,,,,97,different,8,0.27,0.27,blue,1,0.14,-0.27,orange,1,-0.14,-0.14,black,1,-0.27,0.14,cyan,1,0.14,0.14,magenta,1,0.27,-0.41,yellow,1,-0.27,-0.41,green,1,-0.41,0.14,red,1,0.05,0.05,0.15,-0.27,0.14,black,l,501638,22,2020-08-05_13h02.02.881,CDT_GNG_IUS12,2020.1.2,MacIntel,60,l,1,0.650855,0,87,87,96,1,,,,,,,,,,,,,,,,,,,,,,,,,,,,,,,,,,,,,,,,,,,,,,,,
,,,,,,,,,,,,46,different,4,0.14,0.14,red,1,0.14,-0.14,green,1,-0.14,-0.41,orange,1,-0.27,0.41,blue,1,0.41,0.27,cyan,0,0.14,-0.27,magenta,0,-0.14,-0.14,black,0,-0.41,0.27,yellow,0,0.05,0.05,0.15,-0.14,-0.41,blue,l,501638,22,2020-08-05_13h02.02.881,CDT_GNG_IUS12,2020.1.2,MacIntel,60,l,1,0.801355,0,88,88,45,1,,,,,,,,,,,,,,,,,,,,,,,,,,,,,,,,,,,,,,,,,,,,,,,,
,,,,,,,,,,,,82,same,8,0.27,0.41,yellow,1,0.14,-0.14,magenta,1,-0.14,-0.14,orange,1,-0.14,0.41,black,1,0.14,0.41,red,1,0.27,-0.14,green,1,-0.27,-0.27,cyan,1,-0.41,0.41,blue,1,0.05,0.05,0.15,0.14,-0.14,magenta,k,501638,22,2020-08-05_13h02.02.881,CDT_GNG_IUS12,2020.1.2,MacIntel,60,l,0,1.40287,0,89,89,81,1,,,,,,,,,,,,,,,,,,,,,,,,,,,,,,,,,,,,,,,,,,,,,,,,
,,,,,,,,,,,,12,same,4,0.14,0.41,red,1,0.14,-0.41,green,1,-0.41,-0.41,black,1,-0.27,0.27,cyan,1,0.27,0.41,magenta,0,0.41,-0.14,orange,0,-0.27,-0.41,yellow,0,-0.41,0.27,blue,0,0.05,0.05,0.15,-0.41,-0.41,black,k,501638,22,2020-08-05_13h02.02.881,CDT_GNG_IUS12,2020.1.2,MacIntel,60,l,0,0.73643,0,90,90,11,1,,,,,,,,,,,,,,,,,,,,,,,,,,,,,,,,,,,,,,,,,,,,,,,,
,,,,,,,,,,,,89,same,8,0.14,0.14,blue,1,0.14,-0.27,orange,1,-0.14,-0.27,yellow,1,-0.41,0.27,red,1,0.27,0.27,cyan,1,0.14,-0.14,green,1,-0.14,-0.41,magenta,1,-0.41,0.41,black,1,0.05,0.05,0.15,0.14,-0.27,orange,k,501638,22,2020-08-05_13h02.02.881,CDT_GNG_IUS12,2020.1.2,MacIntel,60,l,0,0.568265,0,91,91,88,1,,,,,,,,,,,,,,,,,,,,,,,,,,,,,,,,,,,,,,,,,,,,,,,,
,,,,,,,,,,,,35,different,4,0.27,0.41,orange,1,0.41,-0.14,cyan,1,-0.27,-0.27,green,1,-0.14,0.27,yellow,1,0.41,0.27,black,0,0.41,-0.41,magenta,0,-0.14,-0.14,blue,0,-0.27,0.14,red,0,0.05,0.05,0.15,-0.14,0.27,blue,l,501638,22,2020-08-05_13h02.02.881,CDT_GNG_IUS12,2020.1.2,MacIntel,60,l,1,0.50032,0,92,92,34,1,,,,,,,,,,,,,,,,,,,,,,,,,,,,,,,,,,,,,,,,,,,,,,,,
,,,,,,,,,,,,42,different,4,0.41,0.41,green,1,0.14,-0.14,red,1,-0.27,-0.14,cyan,1,-0.27,0.27,blue,1,0.27,0.27,orange,0,0.14,-0.27,black,0,-0.27,-0.41,yellow,0,-0.27,0.41,magenta,0,0.05,0.05,0.15,-0.27,0.27,red,l,501638,22,2020-08-05_13h02.02.881,CDT_GNG_IUS12,2020.1.2,MacIntel,60,l,1,0.55159,0,93,93,41,1,,,,,,,,,,,,,,,,,,,,,,,,,,,,,,,,,,,,,,,,,,,,,,,,
,,,,,,,,,,,,86,same,8,0.41,0.27,magenta,1,0.14,-0.14,green,1,-0.14,-0.41,orange,1,-0.14,0.41,red,1,0.27,0.14,black,1,0.14,-0.41,cyan,1,-0.41,-0.27,yellow,1,-0.27,0.14,blue,1,0.05,0.05,0.15,0.14,-0.41,cyan,k,501638,22,2020-08-05_13h02.02.881,CDT_GNG_IUS12,2020.1.2,MacIntel,60,l,0,0.68362,0,94,94,85,1,,,,,,,,,,,,,,,,,,,,,,,,,,,,,,,,,,,,,,,,,,,,,,,,
,,,,,,,,,,,,76,same,8,0.14,0.27,orange,1,0.41,-0.14,cyan,1,-0.27,-0.27,blue,1,-0.14,0.14,black,1,0.27,0.41,green,1,0.27,-0.14,red,1,-0.27,-0.14,yellow,1,-0.27,0.27,magenta,1,0.05,0.05,0.15,0.41,-0.14,cyan,k,501638,22,2020-08-05_13h02.02.881,CDT_GNG_IUS12,2020.1.2,MacIntel,60,k,1,1.10053,0,95,95,75,1,,,,,,,,,,,,,,,,,,,,,,,,,,,,,,,,,,,,,,,,,,,,,,,,
,,,,,,,,,,,,18,same,4,0.41,0.27,orange,1,0.14,-0.27,blue,1,-0.27,-0.41,yellow,1,-0.41,0.27,magenta,1,0.14,0.41,red,0,0.14,-0.14,black,0,-0.41,-0.27,green,0,-0.41,0.41,cyan,0,0.05,0.05,0.15,0.14,-0.27,blue,k,501638,22,2020-08-05_13h02.02.881,CDT_GNG_IUS12,2020.1.2,MacIntel,60,l,0,0.51777,0,96,96,17,1,,,,,,,,,,,,,,,,,,,,,,,,,,,,,,,,,,,,,,,,,,,,,,,,
,,,,,,,,,,,,21,same,4,0.41,0.27,magenta,1,0.27,-0.41,black,1,-0.27,-0.14,orange,1,-0.41,0.41,green,1,0.27,0.14,yellow,0,0.27,-0.14,cyan,0,-0.27,-0.27,red,0,-0.41,0.27,blue,0,0.05,0.05,0.15,0.27,-0.41,black,k,501638,22,2020-08-05_13h02.02.881,CDT_GNG_IUS12,2020.1.2,MacIntel,60,l,0,1.167045,0,97,97,20,1,,,,,,,,,,,,,,,,,,,,,,,,,,,,,,,,,,,,,,,,,,,,,,,,
,,,,,,,,,,,,62,same,8,0.41,0.14,red,1,0.14,-0.27,cyan,1,-0.41,-0.27,orange,1,-0.27,0.27,magenta,1,0.14,0.27,green,1,0.14,-0.14,blue,1,-0.27,-0.41,black,1,-0.41,0.14,yellow,1,0.05,0.05,0.15,-0.27,0.27,magenta,k,501638,22,2020-08-05_13h02.02.881,CDT_GNG_IUS12,2020.1.2,MacIntel,60,k,1,3.683165,0,98,98,61,1,,,,,,,,,,,,,,,,,,,,,,,,,,,,,,,,,,,,,,,,,,,,,,,,
,,,,,,,,,,,,56,different,4,0.27,0.14,yellow,1,0.41,-0.14,blue,1,-0.14,-0.27,green,1,-0.41,0.14,cyan,1,0.14,0.14,magenta,0,0.41,-0.41,red,0,-0.41,-0.14,orange,0,-0.41,0.27,black,0,0.05,0.05,0.15,-0.14,-0.27,magenta,l,501638,22,2020-08-05_13h02.02.881,CDT_GNG_IUS12,2020.1.2,MacIntel,60,l,1,1.50822,0,99,99,55,1,,,,,,,,,,,,,,,,,,,,,,,,,,,,,,,,,,,,,,,,,,,,,,,,
,,,,,,,,,,,,22,same,4,0.41,0.27,green,1,0.27,-0.14,black,1,-0.27,-0.41,cyan,1,-0.41,0.14,blue,1,0.14,0.14,magenta,0,0.41,-0.41,orange,0,-0.14,-0.27,red,0,-0.41,0.41,yellow,0,0.05,0.05,0.15,0.27,-0.14,black,k,501638,22,2020-08-05_13h02.02.881,CDT_GNG_IUS12,2020.1.2,MacIntel,60,l,0,0.854595,0,100,100,21,1,,,,,,,,,,,,,,,,,,,,,,,,,,,,,,,,,,,,,,,,,,,,,,,,
,,,,,,,,,,,,13,same,4,0.41,0.41,black,1,0.14,-0.14,red,1,-0.14,-0.14,orange,1,-0.14,0.14,cyan,1,0.14,0.14,green,0,0.27,-0.27,magenta,0,-0.27,-0.14,yellow,0,-0.14,0.41,blue,0,0.05,0.05,0.15,0.41,0.41,black,k,501638,22,2020-08-05_13h02.02.881,CDT_GNG_IUS12,2020.1.2,MacIntel,60,l,0,2.349625,0,101,101,12,1,,,,,,,,,,,,,,,,,,,,,,,,,,,,,,,,,,,,,,,,,,,,,,,,
,,,,,,,,,,,,100,different,8,0.41,0.27,black,1,0.41,-0.27,red,1,-0.14,-0.27,magenta,1,-0.14,0.27,orange,1,0.14,0.27,blue,1,0.27,-0.14,yellow,1,-0.41,-0.14,cyan,1,-0.41,0.14,green,1,0.05,0.05,0.15,0.41,0.27,orange,l,501638,22,2020-08-05_13h02.02.881,CDT_GNG_IUS12,2020.1.2,MacIntel,60,l,1,1.28365,0,102,102,99,1,,,,,,,,,,,,,,,,,,,,,,,,,,,,,,,,,,,,,,,,,,,,,,,,
,,,,,,,,,,,,80,same,8,0.41,0.14,red,1,0.41,-0.14,blue,1,-0.41,-0.41,black,1,-0.41,0.14,green,1,0.14,0.41,orange,1,0.27,-0.41,cyan,1,-0.41,-0.14,magenta,1,-0.41,0.41,yellow,1,0.05,0.05,0.15,0.27,-0.41,cyan,k,501638,22,2020-08-05_13h02.02.881,CDT_GNG_IUS12,2020.1.2,MacIntel,60,l,0,0.76825,0,103,103,79,1,,,,,,,,,,,,,,,,,,,,,,,,,,,,,,,,,,,,,,,,,,,,,,,,
,,,,,,,,,,,,25,same,4,0.41,0.27,cyan,1,0.27,-0.27,yellow,1,-0.41,-0.14,black,1,-0.14,0.27,blue,1,0.41,0.14,green,0,0.14,-0.41,magenta,0,-0.41,-0.41,orange,0,-0.27,0.41,red,0,0.05,0.05,0.15,0.27,-0.27,yellow,k,501638,22,2020-08-05_13h02.02.881,CDT_GNG_IUS12,2020.1.2,MacIntel,60,k,1,0.987615,0,104,104,24,1,,,,,,,,,,,,,,,,,,,,,,,,,,,,,,,,,,,,,,,,,,,,,,,,
,,,,,,,,,,,,101,different,8,0.14,0.27,magenta,1,0.14,-0.27,cyan,1,-0.41,-0.14,yellow,1,-0.41,0.14,black,1,0.14,0.41,red,1,0.41,-0.41,blue,1,-0.14,-0.41,green,1,-0.27,0.27,orange,1,0.05,0.05,0.15,-0.41,0.14,magenta,l,501638,22,2020-08-05_13h02.02.881,CDT_GNG_IUS12,2020.1.2,MacIntel,60,l,1,1.266945,0,105,105,100,1,,,,,,,,,,,,,,,,,,,,,,,,,,,,,,,,,,,,,,,,,,,,,,,,
,,,,,,,,,,,,110,different,8,0.41,0.14,orange,1,0.27,-0.27,black,1,-0.14,-0.27,blue,1,-0.27,0.27,cyan,1,0.27,0.41,magenta,1,0.27,-0.41,red,1,-0.27,-0.41,yellow,1,-0.27,0.41,green,1,0.05,0.05,0.15,-0.27,-0.41,red,l,501638,22,2020-08-05_13h02.02.881,CDT_GNG_IUS12,2020.1.2,MacIntel,60,l,1,0.721255,0,106,106,109,1,,,,,,,,,,,,,,,,,,,,,,,,,,,,,,,,,,,,,,,,,,,,,,,,
,,,,,,,,,,,,83,same,8,0.14,0.27,yellow,1,0.27,-0.41,orange,1,-0.27,-0.41,green,1,-0.41,0.14,cyan,1,0.41,0.27,blue,1,0.14,-0.14,magenta,1,-0.14,-0.14,red,1,-0.41,0.41,black,1,0.05,0.05,0.15,-0.41,0.41,black,k,501638,22,2020-08-05_13h02.02.881,CDT_GNG_IUS12,2020.1.2,MacIntel,60,l,0,0.68428,0,107,107,82,1,,,,,,,,,,,,,,,,,,,,,,,,,,,,,,,,,,,,,,,,,,,,,,,,
,,,,,,,,,,,,92,different,8,0.27,0.27,yellow,1,0.14,-0.27,green,1,-0.41,-0.14,blue,1,-0.41,0.41,red,1,0.14,0.27,magenta,1,0.27,-0.14,cyan,1,-0.14,-0.14,orange,1,-0.27,0.27,black,1,0.05,0.05,0.15,-0.41,-0.14,magenta,l,501638,22,2020-08-05_13h02.02.881,CDT_GNG_IUS12,2020.1.2,MacIntel,60,l,1,0.860655,0,108,108,91,1,,,,,,,,,,,,,,,,,,,,,,,,,,,,,,,,,,,,,,,,,,,,,,,,
,,,,,,,,,,,,33,different,4,0.27,0.41,magenta,1,0.41,-0.41,red,1,-0.27,-0.41,yellow,1,-0.14,0.41,black,1,0.14,0.41,blue,0,0.14,-0.41,orange,0,-0.41,-0.14,cyan,0,-0.41,0.27,green,0,0.05,0.05,0.15,0.27,0.41,black,l,501638,22,2020-08-05_13h02.02.881,CDT_GNG_IUS12,2020.1.2,MacIntel,60,l,1,0.991835,0,109,109,32,1,,,,,,,,,,,,,,,,,,,,,,,,,,,,,,,,,,,,,,,,,,,,,,,,
,,,,,,,,,,,,85,same,8,0.14,0.41,green,1,0.14,-0.41,magenta,1,-0.41,-0.14,black,1,-0.14,0.27,blue,1,0.27,0.27,orange,1,0.41,-0.41,red,1,-0.27,-0.14,cyan,1,-0.41,0.27,yellow,1,0.05,0.05,0.15,0.27,0.27,orange,k,501638,22,2020-08-05_13h02.02.881,CDT_GNG_IUS12,2020.1.2,MacIntel,60,l,0,0.583485,0,110,110,84,1,,,,,,,,,,,,,,,,,,,,,,,,,,,,,,,,,,,,,,,,,,,,,,,,
,,,,,,,,,,,,38,different,4,0.27,0.27,black,1,0.14,-0.27,green,1,-0.14,-0.27,magenta,1,-0.41,0.14,blue,1,0.14,0.41,orange,0,0.27,-0.41,yellow,0,-0.41,-0.14,cyan,0,-0.27,0.41,red,0,0.05,0.05,0.15,-0.14,-0.27,orange,l,501638,22,2020-08-05_13h02.02.881,CDT_GNG_IUS12,2020.1.2,MacIntel,60,l,1,1.01668,0,111,111,37,1,,,,,,,,,,,,,,,,,,,,,,,,,,,,,,,,,,,,,,,,,,,,,,,,
,,,,,,,,,,,,119,different,8,0.27,0.27,green,1,0.27,-0.14,orange,1,-0.41,-0.41,cyan,1,-0.27,0.27,blue,1,0.41,0.27,black,1,0.14,-0.41,red,1,-0.14,-0.41,yellow,1,-0.41,0.27,magenta,1,0.05,0.05,0.15,-0.41,0.27,cyan,l,501638,22,2020-08-05_13h02.02.881,CDT_GNG_IUS12,2020.1.2,MacIntel,60,l,1,0.816365,0,112,112,118,1,,,,,,,,,,,,,,,,,,,,,,,,,,,,,,,,,,,,,,,,,,,,,,,,
,,,,,,,,,,,,66,same,8,0.27,0.27,magenta,1,0.14,-0.41,green,1,-0.27,-0.14,yellow,1,-0.14,0.27,orange,1,0.41,0.41,red,1,0.14,-0.14,cyan,1,-0.14,-0.27,black,1,-0.27,0.41,blue,1,0.05,0.05,0.15,0.41,0.41,red,k,501638,22,2020-08-05_13h02.02.881,CDT_GNG_IUS12,2020.1.2,MacIntel,60,l,0,0.834055,0,113,113,65,1,,,,,,,,,,,,,,,,,,,,,,,,,,,,,,,,,,,,,,,,,,,,,,,,
,,,,,,,,,,,,84,same,8,0.27,0.14,magenta,1,0.14,-0.14,yellow,1,-0.14,-0.14,blue,1,-0.27,0.27,red,1,0.41,0.14,cyan,1,0.41,-0.27,orange,1,-0.14,-0.27,black,1,-0.41,0.14,green,1,0.05,0.05,0.15,-0.27,0.27,red,k,501638,22,2020-08-05_13h02.02.881,CDT_GNG_IUS12,2020.1.2,MacIntel,60,k,1,0.751565,0,114,114,83,1,,,,,,,,,,,,,,,,,,,,,,,,,,,,,,,,,,,,,,,,,,,,,,,,
,,,,,,,,,,,,94,different,8,0.41,0.27,yellow,1,0.41,-0.27,blue,1,-0.41,-0.14,magenta,1,-0.41,0.27,orange,1,0.41,0.41,red,1,0.41,-0.41,green,1,-0.14,-0.14,black,1,-0.41,0.14,cyan,1,0.05,0.05,0.15,-0.41,0.14,black,l,501638,22,2020-08-05_13h02.02.881,CDT_GNG_IUS12,2020.1.2,MacIntel,60,l,1,1.01609,0,115,115,93,1,,,,,,,,,,,,,,,,,,,,,,,,,,,,,,,,,,,,,,,,,,,,,,,,
,,,,,,,,,,,,61,same,8,0.41,0.41,orange,1,0.41,-0.41,magenta,1,-0.27,-0.41,blue,1,-0.14,0.27,yellow,1,0.14,0.41,red,1,0.14,-0.27,black,1,-0.41,-0.41,cyan,1,-0.27,0.14,green,1,0.05,0.05,0.15,-0.27,-0.41,blue,k,501638,22,2020-08-05_13h02.02.881,CDT_GNG_IUS12,2020.1.2,MacIntel,60,l,0,1.71986,0,116,116,60,1,,,,,,,,,,,,,,,,,,,,,,,,,,,,,,,,,,,,,,,,,,,,,,,,
,,,,,,,,,,,,29,same,4,0.14,0.27,black,1,0.41,-0.14,blue,1,-0.41,-0.14,magenta,1,-0.27,0.27,green,1,0.27,0.27,yellow,0,0.41,-0.41,orange,0,-0.41,-0.27,cyan,0,-0.14,0.14,red,0,0.05,0.05,0.15,0.41,-0.14,blue,k,501638,22,2020-08-05_13h02.02.881,CDT_GNG_IUS12,2020.1.2,MacIntel,60,l,0,0.846015,0,117,117,28,1,,,,,,,,,,,,,,,,,,,,,,,,,,,,,,,,,,,,,,,,,,,,,,,,
,,,,,,,,,,,,43,different,4,0.27,0.27,red,1,0.14,-0.27,orange,1,-0.41,-0.14,green,1,-0.27,0.27,cyan,1,0.41,0.41,black,0,0.27,-0.14,magenta,0,-0.41,-0.41,yellow,0,-0.41,0.41,blue,0,0.05,0.05,0.15,-0.41,-0.14,magenta,l,501638,22,2020-08-05_13h02.02.881,CDT_GNG_IUS12,2020.1.2,MacIntel,60,k,0,1.143285,0,118,118,42,1,,,,,,,,,,,,,,,,,,,,,,,,,,,,,,,,,,,,,,,,,,,,,,,,
,,,,,,,,,,,,54,different,4,0.14,0.14,yellow,1,0.41,-0.41,magenta,1,-0.14,-0.41,black,1,-0.14,0.27,orange,1,0.41,0.27,cyan,0,0.41,-0.27,red,0,-0.27,-0.14,green,0,-0.27,0.27,blue,0,0.05,0.05,0.15,0.41,-0.41,cyan,l,501638,22,2020-08-05_13h02.02.881,CDT_GNG_IUS12,2020.1.2,MacIntel,60,l,1,0.81762,0,119,119,53,1,,,,,,,,,,,,,,,,,,,,,,,,,,,,,,,,,,,,,,,,,,,,,,,,
,,,,,,,,,,,,,,,,,,,,,,,,,,,,,,,,,,,,,,,,,,,,,,,,,,,,,,501638,22,2020-08-05_13h02.02.881,CDT_GNG_IUS12,2020.1.2,MacIntel,60,,,,,,,,,,1,0,0,0,0,1,1,0,,,,,,,,,,,,,,,,,,,,,,,,,,,,,,,,,,,,,,,
,,,,,,,,,,,,,,,,,,,,,,,,,,,,,,,,,,,,,,,,,,,,,,,,,,,,,space,501638,22,2020-08-05_13h02.02.881,CDT_GNG_IUS12,2020.1.2,MacIntel,60,,,,,,,,,space,1,0,1,1,4,1,0,1,0.384085,,,,,,,,,,,,,,,,,,,,,,,,,,,,,,,,,,,,,,
,,,,,,,,,,,,,,,,,,,,,,,,,,,,,,,,,,,,,,,,,,,,,,,,,,,,,,501638,22,2020-08-05_13h02.02.881,CDT_GNG_IUS12,2020.1.2,MacIntel,60,,,,,,,,,,1,0,2,2,3,1,1,0,,,,,,,,,,,,,,,,,,,,,,,,,,,,,,,,,,,,,,,
,,,,,,,,,,,,,,,,,,,,,,,,,,,,,,,,,,,,,,,,,,,,,,,,,,,,,space,501638,22,2020-08-05_13h02.02.881,CDT_GNG_IUS12,2020.1.2,MacIntel,60,,,,,,,,,space,1,0,3,3,7,1,0,1,0.65141,,,,,,,,,,,,,,,,,,,,,,,,,,,,,,,,,,,,,,
,,,,,,,,,,,,,,,,,,,,,,,,,,,,,,,,,,,,,,,,,,,,,,,,,,,,,space,501638,22,2020-08-05_13h02.02.881,CDT_GNG_IUS12,2020.1.2,MacIntel,60,,,,,,,,,space,1,0,4,4,6,1,0,1,0.534885,,,,,,,,,,,,,,,,,,,,,,,,,,,,,,,,,,,,,,
,,,,,,,,,,,,,,,,,,,,,,,,,,,,,,,,,,,,,,,,,,,,,,,,,,,,,space,501638,22,2020-08-05_13h02.02.881,CDT_GNG_IUS12,2020.1.2,MacIntel,60,,,,,,,,,space,1,0,5,5,5,1,0,1,0.43339,,,,,,,,,,,,,,,,,,,,,,,,,,,,,,,,,,,,,,
,,,,,,,,,,,,,,,,,,,,,,,,,,,,,,,,,,,,,,,,,,,,,,,,,,,,,,501638,22,2020-08-05_13h02.02.881,CDT_GNG_IUS12,2020.1.2,MacIntel,60,,,,,,,,,,1,0,6,6,2,1,1,0,,,,,,,,,,,,,,,,,,,,,,,,,,,,,,,,,,,,,,,
,,,,,,,,,,,,,,,,,,,,,,,,,,,,,,,,,,,,,,,,,,,,,,,,,,,,,,501638,22,2020-08-05_13h02.02.881,CDT_GNG_IUS12,2020.1.2,MacIntel,60,,,,,,,,,,1,0,7,7,1,1,1,0,,,,,,,,,,,,,,,,,,,,,,,,,,,,,,,,,,,,,,,
,,,,,,,,,,,,,,,,,,,,,,,,,,,,,,,,,,,,,,,,,,,,,,,,,,,,,space,501638,22,2020-08-05_13h02.02.881,CDT_GNG_IUS12,2020.1.2,MacIntel,60,,,,,,,,,,,,,,,,0,1,,space,1,0.326125,0,0,0,48,1,,,,,,,,,,,,,,,,,,,,,,,,,,,,,,
,,,,,,,,,,,,,,,,,,,,,,,,,,,,,,,,,,,,,,,,,,,,,,,,,,,,,space,501638,22,2020-08-05_13h02.02.881,CDT_GNG_IUS12,2020.1.2,MacIntel,60,,,,,,,,,,,,,,,,0,1,,,0,,0,1,1,11,1,,,,,,,,,,,,,,,,,,,,,,,,,,,,,,
,,,,,,,,,,,,,,,,,,,,,,,,,,,,,,,,,,,,,,,,,,,,,,,,,,,,,,501638,22,2020-08-05_13h02.02.881,CDT_GNG_IUS12,2020.1.2,MacIntel,60,,,,,,,,,,,,,,,,1,0,,space,0,0.083415,0,2,2,1,1,,,,,,,,,,,,,,,,,,,,,,,,,,,,,,
,,,,,,,,,,,,,,,,,,,,,,,,,,,,,,,,,,,,,,,,,,,,,,,,,,,,,space,501638,22,2020-08-05_13h02.02.881,CDT_GNG_IUS12,2020.1.2,MacIntel,60,,,,,,,,,,,,,,,,0,1,,,0,,0,3,3,21,1,,,,,,,,,,,,,,,,,,,,,,,,,,,,,,
,,,,,,,,,,,,,,,,,,,,,,,,,,,,,,,,,,,,,,,,,,,,,,,,,,,,,space,501638,22,2020-08-05_13h02.02.881,CDT_GNG_IUS12,2020.1.2,MacIntel,60,,,,,,,,,,,,,,,,0,1,,,0,,0,4,4,46,1,,,,,,,,,,,,,,,,,,,,,,,,,,,,,,
,,,,,,,,,,,,,,,,,,,,,,,,,,,,,,,,,,,,,,,,,,,,,,,,,,,,,space,501638,22,2020-08-05_13h02.02.881,CDT_GNG_IUS12,2020.1.2,MacIntel,60,,,,,,,,,,,,,,,,0,1,,space,1,0.083255,0,5,5,47,1,,,,,,,,,,,,,,,,,,,,,,,,,,,,,,
,,,,,,,,,,,,,,,,,,,,,,,,,,,,,,,,,,,,,,,,,,,,,,,,,,,,,space,501638,22,2020-08-05_13h02.02.881,CDT_GNG_IUS12,2020.1.2,MacIntel,60,,,,,,,,,,,,,,,,0,1,,space,1,0.221325,0,6,6,31,1,,,,,,,,,,,,,,,,,,,,,,,,,,,,,,
,,,,,,,,,,,,,,,,,,,,,,,,,,,,,,,,,,,,,,,,,,,,,,,,,,,,,,501638,22,2020-08-05_13h02.02.881,CDT_GNG_IUS12,2020.1.2,MacIntel,60,,,,,,,,,,,,,,,,1,0,,,1,,0,7,7,8,1,,,,,,,,,,,,,,,,,,,,,,,,,,,,,,
,,,,,,,,,,,,,,,,,,,,,,,,,,,,,,,,,,,,,,,,,,,,,,,,,,,,,space,501638,22,2020-08-05_13h02.02.881,CDT_GNG_IUS12,2020.1.2,MacIntel,60,,,,,,,,,,,,,,,,0,1,,space,1,0.21763,0,8,8,45,1,,,,,,,,,,,,,,,,,,,,,,,,,,,,,,
,,,,,,,,,,,,,,,,,,,,,,,,,,,,,,,,,,,,,,,,,,,,,,,,,,,,,space,501638,22,2020-08-05_13h02.02.881,CDT_GNG_IUS12,2020.1.2,MacIntel,60,,,,,,,,,,,,,,,,0,1,,space,1,0.316745,0,9,9,15,1,,,,,,,,,,,,,,,,,,,,,,,,,,,,,,
,,,,,,,,,,,,,,,,,,,,,,,,,,,,,,,,,,,,,,,,,,,,,,,,,,,,,space,501638,22,2020-08-05_13h02.02.881,CDT_GNG_IUS12,2020.1.2,MacIntel,60,,,,,,,,,,,,,,,,0,1,,space,1,0.315815,0,10,10,35,1,,,,,,,,,,,,,,,,,,,,,,,,,,,,,,
,,,,,,,,,,,,,,,,,,,,,,,,,,,,,,,,,,,,,,,,,,,,,,,,,,,,,space,501638,22,2020-08-05_13h02.02.881,CDT_GNG_IUS12,2020.1.2,MacIntel,60,,,,,,,,,,,,,,,,0,1,,space,1,0.31768,0,11,11,16,1,,,,,,,,,,,,,,,,,,,,,,,,,,,,,,
,,,,,,,,,,,,,,,,,,,,,,,,,,,,,,,,,,,,,,,,,,,,,,,,,,,,,space,501638,22,2020-08-05_13h02.02.881,CDT_GNG_IUS12,2020.1.2,MacIntel,60,,,,,,,,,,,,,,,,0,1,,space,1,0.30395,0,12,12,43,1,,,,,,,,,,,,,,,,,,,,,,,,,,,,,,
,,,,,,,,,,,,,,,,,,,,,,,,,,,,,,,,,,,,,,,,,,,,,,,,,,,,,space,501638,22,2020-08-05_13h02.02.881,CDT_GNG_IUS12,2020.1.2,MacIntel,60,,,,,,,,,,,,,,,,0,1,,space,1,0.33469,0,13,13,32,1,,,,,,,,,,,,,,,,,,,,,,,,,,,,,,
,,,,,,,,,,,,,,,,,,,,,,,,,,,,,,,,,,,,,,,,,,,,,,,,,,,,,,501638,22,2020-08-05_13h02.02.881,CDT_GNG_IUS12,2020.1.2,MacIntel,60,,,,,,,,,,,,,,,,1,0,,,1,,0,14,14,4,1,,,,,,,,,,,,,,,,,,,,,,,,,,,,,,
,,,,,,,,,,,,,,,,,,,,,,,,,,,,,,,,,,,,,,,,,,,,,,,,,,,,,space,501638,22,2020-08-05_13h02.02.881,CDT_GNG_IUS12,2020.1.2,MacIntel,60,,,,,,,,,,,,,,,,0,1,,space,1,0.233595,0,15,15,10,1,,,,,,,,,,,,,,,,,,,,,,,,,,,,,,
,,,,,,,,,,,,,,,,,,,,,,,,,,,,,,,,,,,,,,,,,,,,,,,,,,,,,space,501638,22,2020-08-05_13h02.02.881,CDT_GNG_IUS12,2020.1.2,MacIntel,60,,,,,,,,,,,,,,,,0,1,,space,1,0.34994,0,16,16,20,1,,,,,,,,,,,,,,,,,,,,,,,,,,,,,,
,,,,,,,,,,,,,,,,,,,,,,,,,,,,,,,,,,,,,,,,,,,,,,,,,,,,,,501638,22,2020-08-05_13h02.02.881,CDT_GNG_IUS12,2020.1.2,MacIntel,60,,,,,,,,,,,,,,,,1,0,,,1,,0,17,17,9,1,,,,,,,,,,,,,,,,,,,,,,,,,,,,,,
,,,,,,,,,,,,,,,,,,,,,,,,,,,,,,,,,,,,,,,,,,,,,,,,,,,,,space,501638,22,2020-08-05_13h02.02.881,CDT_GNG_IUS12,2020.1.2,MacIntel,60,,,,,,,,,,,,,,,,0,1,,space,1,0.25663,0,18,18,23,1,,,,,,,,,,,,,,,,,,,,,,,,,,,,,,
,,,,,,,,,,,,,,,,,,,,,,,,,,,,,,,,,,,,,,,,,,,,,,,,,,,,,space,501638,22,2020-08-05_13h02.02.881,CDT_GNG_IUS12,2020.1.2,MacIntel,60,,,,,,,,,,,,,,,,0,1,,space,1,0.24786,0,19,19,42,1,,,,,,,,,,,,,,,,,,,,,,,,,,,,,,
,,,,,,,,,,,,,,,,,,,,,,,,,,,,,,,,,,,,,,,,,,,,,,,,,,,,,,501638,22,2020-08-05_13h02.02.881,CDT_GNG_IUS12,2020.1.2,MacIntel,60,,,,,,,,,,,,,,,,1,0,,,1,,0,20,20,0,1,,,,,,,,,,,,,,,,,,,,,,,,,,,,,,
,,,,,,,,,,,,,,,,,,,,,,,,,,,,,,,,,,,,,,,,,,,,,,,,,,,,,space,501638,22,2020-08-05_13h02.02.881,CDT_GNG_IUS12,2020.1.2,MacIntel,60,,,,,,,,,,,,,,,,0,1,,space,1,0.245875,0,21,21,18,1,,,,,,,,,,,,,,,,,,,,,,,,,,,,,,
,,,,,,,,,,,,,,,,,,,,,,,,,,,,,,,,,,,,,,,,,,,,,,,,,,,,,space,501638,22,2020-08-05_13h02.02.881,CDT_GNG_IUS12,2020.1.2,MacIntel,60,,,,,,,,,,,,,,,,0,1,,space,1,0.298515,0,22,22,26,1,,,,,,,,,,,,,,,,,,,,,,,,,,,,,,
,,,,,,,,,,,,,,,,,,,,,,,,,,,,,,,,,,,,,,,,,,,,,,,,,,,,,space,501638,22,2020-08-05_13h02.02.881,CDT_GNG_IUS12,2020.1.2,MacIntel,60,,,,,,,,,,,,,,,,0,1,,space,1,0.346395,0,23,23,30,1,,,,,,,,,,,,,,,,,,,,,,,,,,,,,,
,,,,,,,,,,,,,,,,,,,,,,,,,,,,,,,,,,,,,,,,,,,,,,,,,,,,,space,501638,22,2020-08-05_13h02.02.881,CDT_GNG_IUS12,2020.1.2,MacIntel,60,,,,,,,,,,,,,,,,0,1,,space,1,0.41855,0,24,24,49,1,,,,,,,,,,,,,,,,,,,,,,,,,,,,,,
,,,,,,,,,,,,,,,,,,,,,,,,,,,,,,,,,,,,,,,,,,,,,,,,,,,,,space,501638,22,2020-08-05_13h02.02.881,CDT_GNG_IUS12,2020.1.2,MacIntel,60,,,,,,,,,,,,,,,,0,1,,space,1,0.553235,0,25,25,41,1,,,,,,,,,,,,,,,,,,,,,,,,,,,,,,
,,,,,,,,,,,,,,,,,,,,,,,,,,,,,,,,,,,,,,,,,,,,,,,,,,,,,,501638,22,2020-08-05_13h02.02.881,CDT_GNG_IUS12,2020.1.2,MacIntel,60,,,,,,,,,,,,,,,,1,0,,,1,,0,26,26,6,1,,,,,,,,,,,,,,,,,,,,,,,,,,,,,,
,,,,,,,,,,,,,,,,,,,,,,,,,,,,,,,,,,,,,,,,,,,,,,,,,,,,,space,501638,22,2020-08-05_13h02.02.881,CDT_GNG_IUS12,2020.1.2,MacIntel,60,,,,,,,,,,,,,,,,0,1,,space,1,0.222155,0,27,27,22,1,,,,,,,,,,,,,,,,,,,,,,,,,,,,,,
,,,,,,,,,,,,,,,,,,,,,,,,,,,,,,,,,,,,,,,,,,,,,,,,,,,,,space,501638,22,2020-08-05_13h02.02.881,CDT_GNG_IUS12,2020.1.2,MacIntel,60,,,,,,,,,,,,,,,,0,1,,space,1,0.29766,0,28,28,17,1,,,,,,,,,,,,,,,,,,,,,,,,,,,,,,
,,,,,,,,,,,,,,,,,,,,,,,,,,,,,,,,,,,,,,,,,,,,,,,,,,,,,,501638,22,2020-08-05_13h02.02.881,CDT_GNG_IUS12,2020.1.2,MacIntel,60,,,,,,,,,,,,,,,,1,0,,space,0,0.325315,0,29,29,2,1,,,,,,,,,,,,,,,,,,,,,,,,,,,,,,
,,,,,,,,,,,,,,,,,,,,,,,,,,,,,,,,,,,,,,,,,,,,,,,,,,,,,,501638,22,2020-08-05_13h02.02.881,CDT_GNG_IUS12,2020.1.2,MacIntel,60,,,,,,,,,,,,,,,,1,0,,,1,,0,30,30,3,1,,,,,,,,,,,,,,,,,,,,,,,,,,,,,,
,,,,,,,,,,,,,,,,,,,,,,,,,,,,,,,,,,,,,,,,,,,,,,,,,,,,,space,501638,22,2020-08-05_13h02.02.881,CDT_GNG_IUS12,2020.1.2,MacIntel,60,,,,,,,,,,,,,,,,0,1,,,0,,0,31,31,39,1,,,,,,,,,,,,,,,,,,,,,,,,,,,,,,
,,,,,,,,,,,,,,,,,,,,,,,,,,,,,,,,,,,,,,,,,,,,,,,,,,,,,space,501638,22,2020-08-05_13h02.02.881,CDT_GNG_IUS12,2020.1.2,MacIntel,60,,,,,,,,,,,,,,,,0,1,,space,1,0.201585,0,32,32,14,1,,,,,,,,,,,,,,,,,,,,,,,,,,,,,,
,,,,,,,,,,,,,,,,,,,,,,,,,,,,,,,,,,,,,,,,,,,,,,,,,,,,,space,501638,22,2020-08-05_13h02.02.881,CDT_GNG_IUS12,2020.1.2,MacIntel,60,,,,,,,,,,,,,,,,0,1,,space,1,0.28364,0,33,33,37,1,,,,,,,,,,,,,,,,,,,,,,,,,,,,,,
,,,,,,,,,,,,,,,,,,,,,,,,,,,,,,,,,,,,,,,,,,,,,,,,,,,,,,501638,22,2020-08-05_13h02.02.881,CDT_GNG_IUS12,2020.1.2,MacIntel,60,,,,,,,,,,,,,,,,1,0,,space,0,0.5008,0,34,34,7,1,,,,,,,,,,,,,,,,,,,,,,,,,,,,,,
,,,,,,,,,,,,,,,,,,,,,,,,,,,,,,,,,,,,,,,,,,,,,,,,,,,,,space,501638,22,2020-08-05_13h02.02.881,CDT_GNG_IUS12,2020.1.2,MacIntel,60,,,,,,,,,,,,,,,,0,1,,,0,,0,35,35,28,1,,,,,,,,,,,,,,,,,,,,,,,,,,,,,,
,,,,,,,,,,,,,,,,,,,,,,,,,,,,,,,,,,,,,,,,,,,,,,,,,,,,,space,501638,22,2020-08-05_13h02.02.881,CDT_GNG_IUS12,2020.1.2,MacIntel,60,,,,,,,,,,,,,,,,0,1,,space,1,0.3016,0,36,36,13,1,,,,,,,,,,,,,,,,,,,,,,,,,,,,,,
,,,,,,,,,,,,,,,,,,,,,,,,,,,,,,,,,,,,,,,,,,,,,,,,,,,,,space,501638,22,2020-08-05_13h02.02.881,CDT_GNG_IUS12,2020.1.2,MacIntel,60,,,,,,,,,,,,,,,,0,1,,space,1,0.35297,0,37,37,27,1,,,,,,,,,,,,,,,,,,,,,,,,,,,,,,
,,,,,,,,,,,,,,,,,,,,,,,,,,,,,,,,,,,,,,,,,,,,,,,,,,,,,space,501638,22,2020-08-05_13h02.02.881,CDT_GNG_IUS12,2020.1.2,MacIntel,60,,,,,,,,,,,,,,,,0,1,,space,1,0.466655,0,38,38,29,1,,,,,,,,,,,,,,,,,,,,,,,,,,,,,,
,,,,,,,,,,,,,,,,,,,,,,,,,,,,,,,,,,,,,,,,,,,,,,,,,,,,,space,501638,22,2020-08-05_13h02.02.881,CDT_GNG_IUS12,2020.1.2,MacIntel,60,,,,,,,,,,,,,,,,0,1,,,0,,0,39,39,25,1,,,,,,,,,,,,,,,,,,,,,,,,,,,,,,
,,,,,,,,,,,,,,,,,,,,,,,,,,,,,,,,,,,,,,,,,,,,,,,,,,,,,space,501638,22,2020-08-05_13h02.02.881,CDT_GNG_IUS12,2020.1.2,MacIntel,60,,,,,,,,,,,,,,,,0,1,,space,1,0.001,0,40,40,19,1,,,,,,,,,,,,,,,,,,,,,,,,,,,,,,
,,,,,,,,,,,,,,,,,,,,,,,,,,,,,,,,,,,,,,,,,,,,,,,,,,,,,space,501638,22,2020-08-05_13h02.02.881,CDT_GNG_IUS12,2020.1.2,MacIntel,60,,,,,,,,,,,,,,,,0,1,,space,1,0.266415,0,41,41,33,1,,,,,,,,,,,,,,,,,,,,,,,,,,,,,,
,,,,,,,,,,,,,,,,,,,,,,,,,,,,,,,,,,,,,,,,,,,,,,,,,,,,,space,501638,22,2020-08-05_13h02.02.881,CDT_GNG_IUS12,2020.1.2,MacIntel,60,,,,,,,,,,,,,,,,0,1,,space,1,0.34969,0,42,42,34,1,,,,,,,,,,,,,,,,,,,,,,,,,,,,,,
,,,,,,,,,,,,,,,,,,,,,,,,,,,,,,,,,,,,,,,,,,,,,,,,,,,,,space,501638,22,2020-08-05_13h02.02.881,CDT_GNG_IUS12,2020.1.2,MacIntel,60,,,,,,,,,,,,,,,,0,1,,space,1,0.483275,0,43,43,38,1,,,,,,,,,,,,,,,,,,,,,,,,,,,,,,
,,,,,,,,,,,,,,,,,,,,,,,,,,,,,,,,,,,,,,,,,,,,,,,,,,,,,space,501638,22,2020-08-05_13h02.02.881,CDT_GNG_IUS12,2020.1.2,MacIntel,60,,,,,,,,,,,,,,,,0,1,,space,1,0.46573,0,44,44,40,1,,,,,,,,,,,,,,,,,,,,,,,,,,,,,,
,,,,,,,,,,,,,,,,,,,,,,,,,,,,,,,,,,,,,,,,,,,,,,,,,,,,,space,501638,22,2020-08-05_13h02.02.881,CDT_GNG_IUS12,2020.1.2,MacIntel,60,,,,,,,,,,,,,,,,0,1,,,0,,0,45,45,44,1,,,,,,,,,,,,,,,,,,,,,,,,,,,,,,
,,,,,,,,,,,,,,,,,,,,,,,,,,,,,,,,,,,,,,,,,,,,,,,,,,,,,space,501638,22,2020-08-05_13h02.02.881,CDT_GNG_IUS12,2020.1.2,MacIntel,60,,,,,,,,,,,,,,,,0,1,,space,1,0.185635,0,46,46,36,1,,,,,,,,,,,,,,,,,,,,,,,,,,,,,,
,,,,,,,,,,,,,,,,,,,,,,,,,,,,,,,,,,,,,,,,,,,,,,,,,,,,,,501638,22,2020-08-05_13h02.02.881,CDT_GNG_IUS12,2020.1.2,MacIntel,60,,,,,,,,,,,,,,,,1,0,,space,0,0.3024,0,47,47,5,1,,,,,,,,,,,,,,,,,,,,,,,,,,,,,,
,,,,,,,,,,,,,,,,,,,,,,,,,,,,,,,,,,,,,,,,,,,,,,,,,,,,,space,501638,22,2020-08-05_13h02.02.881,CDT_GNG_IUS12,2020.1.2,MacIntel,60,,,,,,,,,,,,,,,,0,1,,,0,,0,48,48,24,1,,,,,,,,,,,,,,,,,,,,,,,,,,,,,,
,,,,,,,,,,,,,,,,,,,,,,,,,,,,,,,,,,,,,,,,,,,,,,,,,,,,,space,501638,22,2020-08-05_13h02.02.881,CDT_GNG_IUS12,2020.1.2,MacIntel,60,,,,,,,,,,,,,,,,0,1,,space,1,0.26788,0,49,49,12,1,,,,,,,,,,,,,,,,,,,,,,,,,,,,,,
,,,,,,,,,,,,,,,,,,,,,,,,,,,,,,,,,,,,,,,,,,,,,,,,,,,,,,501638,22,2020-08-05_13h02.02.881,CDT_GNG_IUS12,2020.1.2,MacIntel,60,,,,,,,,,,,,,,,,1,0,,,1,,,,,,,0,0,0,5,1,,,,,,,,,,,,,,,,,,,,,,,,,
,,,,,,,,,,,,,,,,,,,,,,,,,,,,,,,,,,,,,,,,,,,,,,,,,,,,,,501638,22,2020-08-05_13h02.02.881,CDT_GNG_IUS12,2020.1.2,MacIntel,60,,,,,,,,,,,,,,,,1,0,,,1,,,,,,,0,1,1,7,1,,,,,,,,,,,,,,,,,,,,,,,,,
,,,,,,,,,,,,,,,,,,,,,,,,,,,,,,,,,,,,,,,,,,,,,,,,,,,,,space,501638,22,2020-08-05_13h02.02.881,CDT_GNG_IUS12,2020.1.2,MacIntel,60,,,,,,,,,,,,,,,,0,1,,,0,,,,,,,0,2,2,27,1,,,,,,,,,,,,,,,,,,,,,,,,,
,,,,,,,,,,,,,,,,,,,,,,,,,,,,,,,,,,,,,,,,,,,,,,,,,,,,,space,501638,22,2020-08-05_13h02.02.881,CDT_GNG_IUS12,2020.1.2,MacIntel,60,,,,,,,,,,,,,,,,0,1,,space,1,0.12222,,,,,,0,3,3,15,1,,,,,,,,,,,,,,,,,,,,,,,,,
,,,,,,,,,,,,,,,,,,,,,,,,,,,,,,,,,,,,,,,,,,,,,,,,,,,,,space,501638,22,2020-08-05_13h02.02.881,CDT_GNG_IUS12,2020.1.2,MacIntel,60,,,,,,,,,,,,,,,,0,1,,space,1,0.066175,,,,,,0,4,4,26,1,,,,,,,,,,,,,,,,,,,,,,,,,
,,,,,,,,,,,,,,,,,,,,,,,,,,,,,,,,,,,,,,,,,,,,,,,,,,,,,space,501638,22,2020-08-05_13h02.02.881,CDT_GNG_IUS12,2020.1.2,MacIntel,60,,,,,,,,,,,,,,,,0,1,,space,1,0.037695,,,,,,0,5,5,34,1,,,,,,,,,,,,,,,,,,,,,,,,,
,,,,,,,,,,,,,,,,,,,,,,,,,,,,,,,,,,,,,,,,,,,,,,,,,,,,,space,501638,22,2020-08-05_13h02.02.881,CDT_GNG_IUS12,2020.1.2,MacIntel,60,,,,,,,,,,,,,,,,0,1,,space,1,0.03334,,,,,,0,6,6,45,1,,,,,,,,,,,,,,,,,,,,,,,,,
,,,,,,,,,,,,,,,,,,,,,,,,,,,,,,,,,,,,,,,,,,,,,,,,,,,,,space,501638,22,2020-08-05_13h02.02.881,CDT_GNG_IUS12,2020.1.2,MacIntel,60,,,,,,,,,,,,,,,,0,1,,space,1,0.266945,,,,,,0,7,7,49,1,,,,,,,,,,,,,,,,,,,,,,,,,
,,,,,,,,,,,,,,,,,,,,,,,,,,,,,,,,,,,,,,,,,,,,,,,,,,,,,space,501638,22,2020-08-05_13h02.02.881,CDT_GNG_IUS12,2020.1.2,MacIntel,60,,,,,,,,,,,,,,,,0,1,,space,1,0.232885,,,,,,0,8,8,30,1,,,,,,,,,,,,,,,,,,,,,,,,,
,,,,,,,,,,,,,,,,,,,,,,,,,,,,,,,,,,,,,,,,,,,,,,,,,,,,,space,501638,22,2020-08-05_13h02.02.881,CDT_GNG_IUS12,2020.1.2,MacIntel,60,,,,,,,,,,,,,,,,0,1,,space,1,0.28279,,,,,,0,9,9,47,1,,,,,,,,,,,,,,,,,,,,,,,,,
,,,,,,,,,,,,,,,,,,,,,,,,,,,,,,,,,,,,,,,,,,,,,,,,,,,,,space,501638,22,2020-08-05_13h02.02.881,CDT_GNG_IUS12,2020.1.2,MacIntel,60,,,,,,,,,,,,,,,,0,1,,space,1,0.331245,,,,,,0,10,10,13,1,,,,,,,,,,,,,,,,,,,,,,,,,
,,,,,,,,,,,,,,,,,,,,,,,,,,,,,,,,,,,,,,,,,,,,,,,,,,,,,space,501638,22,2020-08-05_13h02.02.881,CDT_GNG_IUS12,2020.1.2,MacIntel,60,,,,,,,,,,,,,,,,0,1,,space,1,0.317175,,,,,,0,11,11,24,1,,,,,,,,,,,,,,,,,,,,,,,,,
,,,,,,,,,,,,,,,,,,,,,,,,,,,,,,,,,,,,,,,,,,,,,,,,,,,,,space,501638,22,2020-08-05_13h02.02.881,CDT_GNG_IUS12,2020.1.2,MacIntel,60,,,,,,,,,,,,,,,,0,1,,space,1,0.319625,,,,,,0,12,12,17,1,,,,,,,,,,,,,,,,,,,,,,,,,
,,,,,,,,,,,,,,,,,,,,,,,,,,,,,,,,,,,,,,,,,,,,,,,,,,,,,,501638,22,2020-08-05_13h02.02.881,CDT_GNG_IUS12,2020.1.2,MacIntel,60,,,,,,,,,,,,,,,,1,0,,,1,,,,,,,0,13,13,8,1,,,,,,,,,,,,,,,,,,,,,,,,,
,,,,,,,,,,,,,,,,,,,,,,,,,,,,,,,,,,,,,,,,,,,,,,,,,,,,,space,501638,22,2020-08-05_13h02.02.881,CDT_GNG_IUS12,2020.1.2,MacIntel,60,,,,,,,,,,,,,,,,0,1,,space,1,0.250055,,,,,,0,14,14,38,1,,,,,,,,,,,,,,,,,,,,,,,,,
,,,,,,,,,,,,,,,,,,,,,,,,,,,,,,,,,,,,,,,,,,,,,,,,,,,,,space,501638,22,2020-08-05_13h02.02.881,CDT_GNG_IUS12,2020.1.2,MacIntel,60,,,,,,,,,,,,,,,,0,1,,space,1,0.20027,,,,,,0,15,15,39,1,,,,,,,,,,,,,,,,,,,,,,,,,
,,,,,,,,,,,,,,,,,,,,,,,,,,,,,,,,,,,,,,,,,,,,,,,,,,,,,space,501638,22,2020-08-05_13h02.02.881,CDT_GNG_IUS12,2020.1.2,MacIntel,60,,,,,,,,,,,,,,,,0,1,,space,1,0.23438,,,,,,0,16,16,33,1,,,,,,,,,,,,,,,,,,,,,,,,,
,,,,,,,,,,,,,,,,,,,,,,,,,,,,,,,,,,,,,,,,,,,,,,,,,,,,,,501638,22,2020-08-05_13h02.02.881,CDT_GNG_IUS12,2020.1.2,MacIntel,60,,,,,,,,,,,,,,,,1,0,,space,0,0.10007,,,,,,0,17,17,9,1,,,,,,,,,,,,,,,,,,,,,,,,,
,,,,,,,,,,,,,,,,,,,,,,,,,,,,,,,,,,,,,,,,,,,,,,,,,,,,,space,501638,22,2020-08-05_13h02.02.881,CDT_GNG_IUS12,2020.1.2,MacIntel,60,,,,,,,,,,,,,,,,0,1,,,0,,,,,,,0,18,18,36,1,,,,,,,,,,,,,,,,,,,,,,,,,
,,,,,,,,,,,,,,,,,,,,,,,,,,,,,,,,,,,,,,,,,,,,,,,,,,,,,space,501638,22,2020-08-05_13h02.02.881,CDT_GNG_IUS12,2020.1.2,MacIntel,60,,,,,,,,,,,,,,,,0,1,,space,1,0.23603,,,,,,0,19,19,43,1,,,,,,,,,,,,,,,,,,,,,,,,,
,,,,,,,,,,,,,,,,,,,,,,,,,,,,,,,,,,,,,,,,,,,,,,,,,,,,,,501638,22,2020-08-05_13h02.02.881,CDT_GNG_IUS12,2020.1.2,MacIntel,60,,,,,,,,,,,,,,,,1,0,,space,0,0.232935,,,,,,0,20,20,0,1,,,,,,,,,,,,,,,,,,,,,,,,,
,,,,,,,,,,,,,,,,,,,,,,,,,,,,,,,,,,,,,,,,,,,,,,,,,,,,,,501638,22,2020-08-05_13h02.02.881,CDT_GNG_IUS12,2020.1.2,MacIntel,60,,,,,,,,,,,,,,,,1,0,,,1,,,,,,,0,21,21,2,1,,,,,,,,,,,,,,,,,,,,,,,,,
,,,,,,,,,,,,,,,,,,,,,,,,,,,,,,,,,,,,,,,,,,,,,,,,,,,,,,501638,22,2020-08-05_13h02.02.881,CDT_GNG_IUS12,2020.1.2,MacIntel,60,,,,,,,,,,,,,,,,1,0,,,1,,,,,,,0,22,22,1,1,,,,,,,,,,,,,,,,,,,,,,,,,
,,,,,,,,,,,,,,,,,,,,,,,,,,,,,,,,,,,,,,,,,,,,,,,,,,,,,space,501638,22,2020-08-05_13h02.02.881,CDT_GNG_IUS12,2020.1.2,MacIntel,60,,,,,,,,,,,,,,,,0,1,,space,1,0.35016,,,,,,0,23,23,19,1,,,,,,,,,,,,,,,,,,,,,,,,,
,,,,,,,,,,,,,,,,,,,,,,,,,,,,,,,,,,,,,,,,,,,,,,,,,,,,,space,501638,22,2020-08-05_13h02.02.881,CDT_GNG_IUS12,2020.1.2,MacIntel,60,,,,,,,,,,,,,,,,0,1,,space,1,0.2674,,,,,,0,24,24,10,1,,,,,,,,,,,,,,,,,,,,,,,,,
,,,,,,,,,,,,,,,,,,,,,,,,,,,,,,,,,,,,,,,,,,,,,,,,,,,,,space,501638,22,2020-08-05_13h02.02.881,CDT_GNG_IUS12,2020.1.2,MacIntel,60,,,,,,,,,,,,,,,,0,1,,space,1,0.284045,,,,,,0,25,25,46,1,,,,,,,,,,,,,,,,,,,,,,,,,
,,,,,,,,,,,,,,,,,,,,,,,,,,,,,,,,,,,,,,,,,,,,,,,,,,,,,space,501638,22,2020-08-05_13h02.02.881,CDT_GNG_IUS12,2020.1.2,MacIntel,60,,,,,,,,,,,,,,,,0,1,,space,1,0.28426,,,,,,0,26,26,37,1,,,,,,,,,,,,,,,,,,,,,,,,,
,,,,,,,,,,,,,,,,,,,,,,,,,,,,,,,,,,,,,,,,,,,,,,,,,,,,,space,501638,22,2020-08-05_13h02.02.881,CDT_GNG_IUS12,2020.1.2,MacIntel,60,,,,,,,,,,,,,,,,0,1,,space,1,0.30525,,,,,,0,27,27,48,1,,,,,,,,,,,,,,,,,,,,,,,,,
,,,,,,,,,,,,,,,,,,,,,,,,,,,,,,,,,,,,,,,,,,,,,,,,,,,,,,501638,22,2020-08-05_13h02.02.881,CDT_GNG_IUS12,2020.1.2,MacIntel,60,,,,,,,,,,,,,,,,1,0,,,1,,,,,,,0,28,28,3,1,,,,,,,,,,,,,,,,,,,,,,,,,
,,,,,,,,,,,,,,,,,,,,,,,,,,,,,,,,,,,,,,,,,,,,,,,,,,,,,space,501638,22,2020-08-05_13h02.02.881,CDT_GNG_IUS12,2020.1.2,MacIntel,60,,,,,,,,,,,,,,,,0,1,,space,1,0.00104,,,,,,0,29,29,20,1,,,,,,,,,,,,,,,,,,,,,,,,,
,,,,,,,,,,,,,,,,,,,,,,,,,,,,,,,,,,,,,,,,,,,,,,,,,,,,,space,501638,22,2020-08-05_13h02.02.881,CDT_GNG_IUS12,2020.1.2,MacIntel,60,,,,,,,,,,,,,,,,0,1,,space,1,0.017705,,,,,,0,30,30,16,1,,,,,,,,,,,,,,,,,,,,,,,,,
,,,,,,,,,,,,,,,,,,,,,,,,,,,,,,,,,,,,,,,,,,,,,,,,,,,,,space,501638,22,2020-08-05_13h02.02.881,CDT_GNG_IUS12,2020.1.2,MacIntel,60,,,,,,,,,,,,,,,,0,1,,space,1,0.054595,,,,,,0,31,31,23,1,,,,,,,,,,,,,,,,,,,,,,,,,
,,,,,,,,,,,,,,,,,,,,,,,,,,,,,,,,,,,,,,,,,,,,,,,,,,,,,space,501638,22,2020-08-05_13h02.02.881,CDT_GNG_IUS12,2020.1.2,MacIntel,60,,,,,,,,,,,,,,,,0,1,,space,1,0.08488,,,,,,0,32,32,12,1,,,,,,,,,,,,,,,,,,,,,,,,,
,,,,,,,,,,,,,,,,,,,,,,,,,,,,,,,,,,,,,,,,,,,,,,,,,,,,,,501638,22,2020-08-05_13h02.02.881,CDT_GNG_IUS12,2020.1.2,MacIntel,60,,,,,,,,,,,,,,,,1,0,,space,0,0.083495,,,,,,0,33,33,4,1,,,,,,,,,,,,,,,,,,,,,,,,,
,,,,,,,,,,,,,,,,,,,,,,,,,,,,,,,,,,,,,,,,,,,,,,,,,,,,,,501638,22,2020-08-05_13h02.02.881,CDT_GNG_IUS12,2020.1.2,MacIntel,60,,,,,,,,,,,,,,,,1,0,,,1,,,,,,,0,34,34,6,1,,,,,,,,,,,,,,,,,,,,,,,,,
,,,,,,,,,,,,,,,,,,,,,,,,,,,,,,,,,,,,,,,,,,,,,,,,,,,,,space,501638,22,2020-08-05_13h02.02.881,CDT_GNG_IUS12,2020.1.2,MacIntel,60,,,,,,,,,,,,,,,,0,1,,space,1,0.367105,,,,,,0,35,35,32,1,,,,,,,,,,,,,,,,,,,,,,,,,
,,,,,,,,,,,,,,,,,,,,,,,,,,,,,,,,,,,,,,,,,,,,,,,,,,,,,space,501638,22,2020-08-05_13h02.02.881,CDT_GNG_IUS12,2020.1.2,MacIntel,60,,,,,,,,,,,,,,,,0,1,,space,1,0.25005,,,,,,0,36,36,31,1,,,,,,,,,,,,,,,,,,,,,,,,,
,,,,,,,,,,,,,,,,,,,,,,,,,,,,,,,,,,,,,,,,,,,,,,,,,,,,,space,501638,22,2020-08-05_13h02.02.881,CDT_GNG_IUS12,2020.1.2,MacIntel,60,,,,,,,,,,,,,,,,0,1,,space,1,0.282555,,,,,,0,37,37,35,1,,,,,,,,,,,,,,,,,,,,,,,,,
,,,,,,,,,,,,,,,,,,,,,,,,,,,,,,,,,,,,,,,,,,,,,,,,,,,,,space,501638,22,2020-08-05_13h02.02.881,CDT_GNG_IUS12,2020.1.2,MacIntel,60,,,,,,,,,,,,,,,,0,1,,space,1,0.28368,,,,,,0,38,38,18,1,,,,,,,,,,,,,,,,,,,,,,,,,
,,,,,,,,,,,,,,,,,,,,,,,,,,,,,,,,,,,,,,,,,,,,,,,,,,,,,space,501638,22,2020-08-05_13h02.02.881,CDT_GNG_IUS12,2020.1.2,MacIntel,60,,,,,,,,,,,,,,,,0,1,,space,1,0.317455,,,,,,0,39,39,40,1,,,,,,,,,,,,,,,,,,,,,,,,,
,,,,,,,,,,,,,,,,,,,,,,,,,,,,,,,,,,,,,,,,,,,,,,,,,,,,,space,501638,22,2020-08-05_13h02.02.881,CDT_GNG_IUS12,2020.1.2,MacIntel,60,,,,,,,,,,,,,,,,0,1,,space,1,0.300935,,,,,,0,40,40,29,1,,,,,,,,,,,,,,,,,,,,,,,,,
,,,,,,,,,,,,,,,,,,,,,,,,,,,,,,,,,,,,,,,,,,,,,,,,,,,,,space,501638,22,2020-08-05_13h02.02.881,CDT_GNG_IUS12,2020.1.2,MacIntel,60,,,,,,,,,,,,,,,,0,1,,space,1,0.33421,,,,,,0,41,41,25,1,,,,,,,,,,,,,,,,,,,,,,,,,
,,,,,,,,,,,,,,,,,,,,,,,,,,,,,,,,,,,,,,,,,,,,,,,,,,,,,space,501638,22,2020-08-05_13h02.02.881,CDT_GNG_IUS12,2020.1.2,MacIntel,60,,,,,,,,,,,,,,,,0,1,,space,1,0.283655,,,,,,0,42,42,42,1,,,,,,,,,,,,,,,,,,,,,,,,,
,,,,,,,,,,,,,,,,,,,,,,,,,,,,,,,,,,,,,,,,,,,,,,,,,,,,,space,501638,22,2020-08-05_13h02.02.881,CDT_GNG_IUS12,2020.1.2,MacIntel,60,,,,,,,,,,,,,,,,0,1,,space,1,0.337665,,,,,,0,43,43,11,1,,,,,,,,,,,,,,,,,,,,,,,,,
,,,,,,,,,,,,,,,,,,,,,,,,,,,,,,,,,,,,,,,,,,,,,,,,,,,,,space,501638,22,2020-08-05_13h02.02.881,CDT_GNG_IUS12,2020.1.2,MacIntel,60,,,,,,,,,,,,,,,,0,1,,space,1,0.307495,,,,,,0,44,44,41,1,,,,,,,,,,,,,,,,,,,,,,,,,
,,,,,,,,,,,,,,,,,,,,,,,,,,,,,,,,,,,,,,,,,,,,,,,,,,,,,space,501638,22,2020-08-05_13h02.02.881,CDT_GNG_IUS12,2020.1.2,MacIntel,60,,,,,,,,,,,,,,,,0,1,,space,1,0.309175,,,,,,0,45,45,21,1,,,,,,,,,,,,,,,,,,,,,,,,,
,,,,,,,,,,,,,,,,,,,,,,,,,,,,,,,,,,,,,,,,,,,,,,,,,,,,,space,501638,22,2020-08-05_13h02.02.881,CDT_GNG_IUS12,2020.1.2,MacIntel,60,,,,,,,,,,,,,,,,0,1,,space,1,0.309165,,,,,,0,46,46,14,1,,,,,,,,,,,,,,,,,,,,,,,,,
,,,,,,,,,,,,,,,,,,,,,,,,,,,,,,,,,,,,,,,,,,,,,,,,,,,,,space,501638,22,2020-08-05_13h02.02.881,CDT_GNG_IUS12,2020.1.2,MacIntel,60,,,,,,,,,,,,,,,,0,1,,space,1,0.32735,,,,,,0,47,47,22,1,,,,,,,,,,,,,,,,,,,,,,,,,
,,,,,,,,,,,,,,,,,,,,,,,,,,,,,,,,,,,,,,,,,,,,,,,,,,,,,space,501638,22,2020-08-05_13h02.02.881,CDT_GNG_IUS12,2020.1.2,MacIntel,60,,,,,,,,,,,,,,,,0,1,,space,1,0.32473,,,,,,0,48,48,28,1,,,,,,,,,,,,,,,,,,,,,,,,,
,,,,,,,,,,,,,,,,,,,,,,,,,,,,,,,,,,,,,,,,,,,,,,,,,,,,,space,501638,22,2020-08-05_13h02.02.881,CDT_GNG_IUS12,2020.1.2,MacIntel,60,,,,,,,,,,,,,,,,0,1,,space,1,0.357245,,,,,,0,49,49,44,1,,,,,,,,,,,,,,,,,,,,,,,,,
,,,,,,,,,,,,,,,,,,,,,,,,,,,,,,,,,,,,,,,,,,,,,,,,,,,,,space,501638,22,2020-08-05_13h02.02.881,CDT_GNG_IUS12,2020.1.2,MacIntel,60,,,,,,,,,,,,,,,,0,1,,space,1,0.309295,,,,,,,,,,,0,0,0,26,1,,,,,,,,,,,,,,,,,,,,
,,,,,,,,,,,,,,,,,,,,,,,,,,,,,,,,,,,,,,,,,,,,,,,,,,,,,space,501638,22,2020-08-05_13h02.02.881,CDT_GNG_IUS12,2020.1.2,MacIntel,60,,,,,,,,,,,,,,,,0,1,,space,1,0.27038,,,,,,,,,,,0,1,1,43,1,,,,,,,,,,,,,,,,,,,,
,,,,,,,,,,,,,,,,,,,,,,,,,,,,,,,,,,,,,,,,,,,,,,,,,,,,,space,501638,22,2020-08-05_13h02.02.881,CDT_GNG_IUS12,2020.1.2,MacIntel,60,,,,,,,,,,,,,,,,0,1,,space,1,0.283815,,,,,,,,,,,0,2,2,28,1,,,,,,,,,,,,,,,,,,,,
,,,,,,,,,,,,,,,,,,,,,,,,,,,,,,,,,,,,,,,,,,,,,,,,,,,,,,501638,22,2020-08-05_13h02.02.881,CDT_GNG_IUS12,2020.1.2,MacIntel,60,,,,,,,,,,,,,,,,1,0,,,1,,,,,,,,,,,,0,3,3,2,1,,,,,,,,,,,,,,,,,,,,
,,,,,,,,,,,,,,,,,,,,,,,,,,,,,,,,,,,,,,,,,,,,,,,,,,,,,space,501638,22,2020-08-05_13h02.02.881,CDT_GNG_IUS12,2020.1.2,MacIntel,60,,,,,,,,,,,,,,,,0,1,,space,1,0.13436,,,,,,,,,,,0,4,4,35,1,,,,,,,,,,,,,,,,,,,,
,,,,,,,,,,,,,,,,,,,,,,,,,,,,,,,,,,,,,,,,,,,,,,,,,,,,,space,501638,22,2020-08-05_13h02.02.881,CDT_GNG_IUS12,2020.1.2,MacIntel,60,,,,,,,,,,,,,,,,0,1,,space,1,0.10078,,,,,,,,,,,0,5,5,16,1,,,,,,,,,,,,,,,,,,,,
,,,,,,,,,,,,,,,,,,,,,,,,,,,,,,,,,,,,,,,,,,,,,,,,,,,,,,501638,22,2020-08-05_13h02.02.881,CDT_GNG_IUS12,2020.1.2,MacIntel,60,,,,,,,,,,,,,,,,1,0,,space,0,0.06658,,,,,,,,,,,0,6,6,0,1,,,,,,,,,,,,,,,,,,,,
,,,,,,,,,,,,,,,,,,,,,,,,,,,,,,,,,,,,,,,,,,,,,,,,,,,,,space,501638,22,2020-08-05_13h02.02.881,CDT_GNG_IUS12,2020.1.2,MacIntel,60,,,,,,,,,,,,,,,,0,1,,,0,,,,,,,,,,,,0,7,7,31,1,,,,,,,,,,,,,,,,,,,,
,,,,,,,,,,,,,,,,,,,,,,,,,,,,,,,,,,,,,,,,,,,,,,,,,,,,,space,501638,22,2020-08-05_13h02.02.881,CDT_GNG_IUS12,2020.1.2,MacIntel,60,,,,,,,,,,,,,,,,0,1,,space,1,0.001,,,,,,,,,,,0,8,8,47,1,,,,,,,,,,,,,,,,,,,,
,,,,,,,,,,,,,,,,,,,,,,,,,,,,,,,,,,,,,,,,,,,,,,,,,,,,,space,501638,22,2020-08-05_13h02.02.881,CDT_GNG_IUS12,2020.1.2,MacIntel,60,,,,,,,,,,,,,,,,0,1,,,0,,,,,,,,,,,,0,9,9,45,1,,,,,,,,,,,,,,,,,,,,
,,,,,,,,,,,,,,,,,,,,,,,,,,,,,,,,,,,,,,,,,,,,,,,,,,,,,,501638,22,2020-08-05_13h02.02.881,CDT_GNG_IUS12,2020.1.2,MacIntel,60,,,,,,,,,,,,,,,,1,0,,space,0,0.11711,,,,,,,,,,,0,10,10,4,1,,,,,,,,,,,,,,,,,,,,
,,,,,,,,,,,,,,,,,,,,,,,,,,,,,,,,,,,,,,,,,,,,,,,,,,,,,space,501638,22,2020-08-05_13h02.02.881,CDT_GNG_IUS12,2020.1.2,MacIntel,60,,,,,,,,,,,,,,,,0,1,,,0,,,,,,,,,,,,0,11,11,33,1,,,,,,,,,,,,,,,,,,,,
,,,,,,,,,,,,,,,,,,,,,,,,,,,,,,,,,,,,,,,,,,,,,,,,,,,,,space,501638,22,2020-08-05_13h02.02.881,CDT_GNG_IUS12,2020.1.2,MacIntel,60,,,,,,,,,,,,,,,,0,1,,space,1,0.138175,,,,,,,,,,,0,12,12,44,1,,,,,,,,,,,,,,,,,,,,
,,,,,,,,,,,,,,,,,,,,,,,,,,,,,,,,,,,,,,,,,,,,,,,,,,,,,space,501638,22,2020-08-05_13h02.02.881,CDT_GNG_IUS12,2020.1.2,MacIntel,60,,,,,,,,,,,,,,,,0,1,,space,1,0.234555,,,,,,,,,,,0,13,13,13,1,,,,,,,,,,,,,,,,,,,,
,,,,,,,,,,,,,,,,,,,,,,,,,,,,,,,,,,,,,,,,,,,,,,,,,,,,,space,501638,22,2020-08-05_13h02.02.881,CDT_GNG_IUS12,2020.1.2,MacIntel,60,,,,,,,,,,,,,,,,0,1,,space,1,0.284625,,,,,,,,,,,0,14,14,36,1,,,,,,,,,,,,,,,,,,,,
,,,,,,,,,,,,,,,,,,,,,,,,,,,,,,,,,,,,,,,,,,,,,,,,,,,,,,501638,22,2020-08-05_13h02.02.881,CDT_GNG_IUS12,2020.1.2,MacIntel,60,,,,,,,,,,,,,,,,1,0,,,1,,,,,,,,,,,,0,15,15,5,1,,,,,,,,,,,,,,,,,,,,
,,,,,,,,,,,,,,,,,,,,,,,,,,,,,,,,,,,,,,,,,,,,,,,,,,,,,,501638,22,2020-08-05_13h02.02.881,CDT_GNG_IUS12,2020.1.2,MacIntel,60,,,,,,,,,,,,,,,,1,0,,space,0,0.050415,,,,,,,,,,,0,16,16,9,1,,,,,,,,,,,,,,,,,,,,
,,,,,,,,,,,,,,,,,,,,,,,,,,,,,,,,,,,,,,,,,,,,,,,,,,,,,space,501638,22,2020-08-05_13h02.02.881,CDT_GNG_IUS12,2020.1.2,MacIntel,60,,,,,,,,,,,,,,,,0,1,,space,1,0.467395,,,,,,,,,,,0,17,17,25,1,,,,,,,,,,,,,,,,,,,,
,,,,,,,,,,,,,,,,,,,,,,,,,,,,,,,,,,,,,,,,,,,,,,,,,,,,,space,501638,22,2020-08-05_13h02.02.881,CDT_GNG_IUS12,2020.1.2,MacIntel,60,,,,,,,,,,,,,,,,0,1,,space,1,0.549415,,,,,,,,,,,0,18,18,37,1,,,,,,,,,,,,,,,,,,,,
,,,,,,,,,,,,,,,,,,,,,,,,,,,,,,,,,,,,,,,,,,,,,,,,,,,,,space,501638,22,2020-08-05_13h02.02.881,CDT_GNG_IUS12,2020.1.2,MacIntel,60,,,,,,,,,,,,,,,,0,1,,,0,,,,,,,,,,,,0,19,19,42,1,,,,,,,,,,,,,,,,,,,,
,,,,,,,,,,,,,,,,,,,,,,,,,,,,,,,,,,,,,,,,,,,,,,,,,,,,,space,501638,22,2020-08-05_13h02.02.881,CDT_GNG_IUS12,2020.1.2,MacIntel,60,,,,,,,,,,,,,,,,0,1,,space,1,0.235195,,,,,,,,,,,0,20,20,20,1,,,,,,,,,,,,,,,,,,,,
,,,,,,,,,,,,,,,,,,,,,,,,,,,,,,,,,,,,,,,,,,,,,,,,,,,,,space,501638,22,2020-08-05_13h02.02.881,CDT_GNG_IUS12,2020.1.2,MacIntel,60,,,,,,,,,,,,,,,,0,1,,space,1,0.333095,,,,,,,,,,,0,21,21,17,1,,,,,,,,,,,,,,,,,,,,
,,,,,,,,,,,,,,,,,,,,,,,,,,,,,,,,,,,,,,,,,,,,,,,,,,,,,space,501638,22,2020-08-05_13h02.02.881,CDT_GNG_IUS12,2020.1.2,MacIntel,60,,,,,,,,,,,,,,,,0,1,,,0,,,,,,,,,,,,0,22,22,22,1,,,,,,,,,,,,,,,,,,,,
,,,,,,,,,,,,,,,,,,,,,,,,,,,,,,,,,,,,,,,,,,,,,,,,,,,,,space,501638,22,2020-08-05_13h02.02.881,CDT_GNG_IUS12,2020.1.2,MacIntel,60,,,,,,,,,,,,,,,,0,1,,,0,,,,,,,,,,,,0,23,23,15,1,,,,,,,,,,,,,,,,,,,,
,,,,,,,,,,,,,,,,,,,,,,,,,,,,,,,,,,,,,,,,,,,,,,,,,,,,,space,501638,22,2020-08-05_13h02.02.881,CDT_GNG_IUS12,2020.1.2,MacIntel,60,,,,,,,,,,,,,,,,0,1,,space,1,0.271785,,,,,,,,,,,0,24,24,23,1,,,,,,,,,,,,,,,,,,,,
,,,,,,,,,,,,,,,,,,,,,,,,,,,,,,,,,,,,,,,,,,,,,,,,,,,,,space,501638,22,2020-08-05_13h02.02.881,CDT_GNG_IUS12,2020.1.2,MacIntel,60,,,,,,,,,,,,,,,,0,1,,space,1,0.368465,,,,,,,,,,,0,25,25,34,1,,,,,,,,,,,,,,,,,,,,
,,,,,,,,,,,,,,,,,,,,,,,,,,,,,,,,,,,,,,,,,,,,,,,,,,,,,,501638,22,2020-08-05_13h02.02.881,CDT_GNG_IUS12,2020.1.2,MacIntel,60,,,,,,,,,,,,,,,,1,0,,,1,,,,,,,,,,,,0,26,26,7,1,,,,,,,,,,,,,,,,,,,,
,,,,,,,,,,,,,,,,,,,,,,,,,,,,,,,,,,,,,,,,,,,,,,,,,,,,,space,501638,22,2020-08-05_13h02.02.881,CDT_GNG_IUS12,2020.1.2,MacIntel,60,,,,,,,,,,,,,,,,0,1,,space,1,0.252615,,,,,,,,,,,0,27,27,30,1,,,,,,,,,,,,,,,,,,,,
,,,,,,,,,,,,,,,,,,,,,,,,,,,,,,,,,,,,,,,,,,,,,,,,,,,,,space,501638,22,2020-08-05_13h02.02.881,CDT_GNG_IUS12,2020.1.2,MacIntel,60,,,,,,,,,,,,,,,,0,1,,space,1,0.41929,,,,,,,,,,,0,28,28,14,1,,,,,,,,,,,,,,,,,,,,
,,,,,,,,,,,,,,,,,,,,,,,,,,,,,,,,,,,,,,,,,,,,,,,,,,,,,space,501638,22,2020-08-05_13h02.02.881,CDT_GNG_IUS12,2020.1.2,MacIntel,60,,,,,,,,,,,,,,,,0,1,,,0,,,,,,,,,,,,0,29,29,21,1,,,,,,,,,,,,,,,,,,,,
,,,,,,,,,,,,,,,,,,,,,,,,,,,,,,,,,,,,,,,,,,,,,,,,,,,,,,501638,22,2020-08-05_13h02.02.881,CDT_GNG_IUS12,2020.1.2,MacIntel,60,,,,,,,,,,,,,,,,1,0,,,1,,,,,,,,,,,,0,30,30,1,1,,,,,,,,,,,,,,,,,,,,
,,,,,,,,,,,,,,,,,,,,,,,,,,,,,,,,,,,,,,,,,,,,,,,,,,,,,space,501638,22,2020-08-05_13h02.02.881,CDT_GNG_IUS12,2020.1.2,MacIntel,60,,,,,,,,,,,,,,,,0,1,,space,1,0.265315,,,,,,,,,,,0,31,31,19,1,,,,,,,,,,,,,,,,,,,,
,,,,,,,,,,,,,,,,,,,,,,,,,,,,,,,,,,,,,,,,,,,,,,,,,,,,,space,501638,22,2020-08-05_13h02.02.881,CDT_GNG_IUS12,2020.1.2,MacIntel,60,,,,,,,,,,,,,,,,0,1,,space,1,0.340575,,,,,,,,,,,0,32,32,10,1,,,,,,,,,,,,,,,,,,,,
,,,,,,,,,,,,,,,,,,,,,,,,,,,,,,,,,,,,,,,,,,,,,,,,,,,,,space,501638,22,2020-08-05_13h02.02.881,CDT_GNG_IUS12,2020.1.2,MacIntel,60,,,,,,,,,,,,,,,,0,1,,,0,,,,,,,,,,,,0,33,33,12,1,,,,,,,,,,,,,,,,,,,,
,,,,,,,,,,,,,,,,,,,,,,,,,,,,,,,,,,,,,,,,,,,,,,,,,,,,,space,501638,22,2020-08-05_13h02.02.881,CDT_GNG_IUS12,2020.1.2,MacIntel,60,,,,,,,,,,,,,,,,0,1,,,0,,,,,,,,,,,,0,34,34,29,1,,,,,,,,,,,,,,,,,,,,
,,,,,,,,,,,,,,,,,,,,,,,,,,,,,,,,,,,,,,,,,,,,,,,,,,,,,space,501638,22,2020-08-05_13h02.02.881,CDT_GNG_IUS12,2020.1.2,MacIntel,60,,,,,,,,,,,,,,,,0,1,,space,1,0.216855,,,,,,,,,,,0,35,35,27,1,,,,,,,,,,,,,,,,,,,,
,,,,,,,,,,,,,,,,,,,,,,,,,,,,,,,,,,,,,,,,,,,,,,,,,,,,,,501638,22,2020-08-05_13h02.02.881,CDT_GNG_IUS12,2020.1.2,MacIntel,60,,,,,,,,,,,,,,,,1,0,,space,0,0.300765,,,,,,,,,,,0,36,36,3,1,,,,,,,,,,,,,,,,,,,,
,,,,,,,,,,,,,,,,,,,,,,,,,,,,,,,,,,,,,,,,,,,,,,,,,,,,,space,501638,22,2020-08-05_13h02.02.881,CDT_GNG_IUS12,2020.1.2,MacIntel,60,,,,,,,,,,,,,,,,0,1,,,0,,,,,,,,,,,,0,37,37,46,1,,,,,,,,,,,,,,,,,,,,
,,,,,,,,,,,,,,,,,,,,,,,,,,,,,,,,,,,,,,,,,,,,,,,,,,,,,space,501638,22,2020-08-05_13h02.02.881,CDT_GNG_IUS12,2020.1.2,MacIntel,60,,,,,,,,,,,,,,,,0,1,,space,1,0.01432,,,,,,,,,,,0,38,38,24,1,,,,,,,,,,,,,,,,,,,,
,,,,,,,,,,,,,,,,,,,,,,,,,,,,,,,,,,,,,,,,,,,,,,,,,,,,,space,501638,22,2020-08-05_13h02.02.881,CDT_GNG_IUS12,2020.1.2,MacIntel,60,,,,,,,,,,,,,,,,0,1,,space,1,0.21937,,,,,,,,,,,0,39,39,38,1,,,,,,,,,,,,,,,,,,,,
,,,,,,,,,,,,,,,,,,,,,,,,,,,,,,,,,,,,,,,,,,,,,,,,,,,,,,501638,22,2020-08-05_13h02.02.881,CDT_GNG_IUS12,2020.1.2,MacIntel,60,,,,,,,,,,,,,,,,1,0,,space,0,0.27099,,,,,,,,,,,0,40,40,8,1,,,,,,,,,,,,,,,,,,,,
,,,,,,,,,,,,,,,,,,,,,,,,,,,,,,,,,,,,,,,,,,,,,,,,,,,,,space,501638,22,2020-08-05_13h02.02.881,CDT_GNG_IUS12,2020.1.2,MacIntel,60,,,,,,,,,,,,,,,,0,1,,,0,,,,,,,,,,,,0,41,41,18,1,,,,,,,,,,,,,,,,,,,,
,,,,,,,,,,,,,,,,,,,,,,,,,,,,,,,,,,,,,,,,,,,,,,,,,,,,,space,501638,22,2020-08-05_13h02.02.881,CDT_GNG_IUS12,2020.1.2,MacIntel,60,,,,,,,,,,,,,,,,0,1,,,0,,,,,,,,,,,,0,42,42,39,1,,,,,,,,,,,,,,,,,,,,
,,,,,,,,,,,,,,,,,,,,,,,,,,,,,,,,,,,,,,,,,,,,,,,,,,,,,space,501638,22,2020-08-05_13h02.02.881,CDT_GNG_IUS12,2020.1.2,MacIntel,60,,,,,,,,,,,,,,,,0,1,,space,1,0.24944,,,,,,,,,,,0,43,43,32,1,,,,,,,,,,,,,,,,,,,,
,,,,,,,,,,,,,,,,,,,,,,,,,,,,,,,,,,,,,,,,,,,,,,,,,,,,,,501638,22,2020-08-05_13h02.02.881,CDT_GNG_IUS12,2020.1.2,MacIntel,60,,,,,,,,,,,,,,,,1,0,,space,0,0.283305,,,,,,,,,,,0,44,44,6,1,,,,,,,,,,,,,,,,,,,,
,,,,,,,,,,,,,,,,,,,,,,,,,,,,,,,,,,,,,,,,,,,,,,,,,,,,,space,501638,22,2020-08-05_13h02.02.881,CDT_GNG_IUS12,2020.1.2,MacIntel,60,,,,,,,,,,,,,,,,0,1,,,0,,,,,,,,,,,,0,45,45,41,1,,,,,,,,,,,,,,,,,,,,
,,,,,,,,,,,,,,,,,,,,,,,,,,,,,,,,,,,,,,,,,,,,,,,,,,,,,space,501638,22,2020-08-05_13h02.02.881,CDT_GNG_IUS12,2020.1.2,MacIntel,60,,,,,,,,,,,,,,,,0,1,,space,1,0.267895,,,,,,,,,,,0,46,46,11,1,,,,,,,,,,,,,,,,,,,,
,,,,,,,,,,,,,,,,,,,,,,,,,,,,,,,,,,,,,,,,,,,,,,,,,,,,,space,501638,22,2020-08-05_13h02.02.881,CDT_GNG_IUS12,2020.1.2,MacIntel,60,,,,,,,,,,,,,,,,0,1,,space,1,0.56754,,,,,,,,,,,0,47,47,40,1,,,,,,,,,,,,,,,,,,,,
,,,,,,,,,,,,,,,,,,,,,,,,,,,,,,,,,,,,,,,,,,,,,,,,,,,,,space,501638,22,2020-08-05_13h02.02.881,CDT_GNG_IUS12,2020.1.2,MacIntel,60,,,,,,,,,,,,,,,,0,1,,,0,,,,,,,,,,,,0,48,48,48,1,,,,,,,,,,,,,,,,,,,,
,,,,,,,,,,,,,,,,,,,,,,,,,,,,,,,,,,,,,,,,,,,,,,,,,,,,,space,501638,22,2020-08-05_13h02.02.881,CDT_GNG_IUS12,2020.1.2,MacIntel,60,,,,,,,,,,,,,,,,0,1,,space,1,0.2836,,,,,,,,,,,0,49,49,49,1,,,,,,,,,,,,,,,,,,,,
,,,,,,,,,,,,,,,,,,,,,,,,,,,,,,,,,,,,,,,,,,,,,,,,,,,,,,501638,22,2020-08-05_13h02.02.881,CDT_GNG_IUS12,2020.1.2,MacIntel,60,,,,,,,,,,,,,,,,,,,,,,,,,,,,,,,,,,,,,10,6.07658,0,0,0,0,1,1,"On a scale from 0 to 10, indicate your personal perception of your proficiency level for English (10 being the highest score)",,,,,,,,,,,
,,,,,,,,,,,,,,,,,,,,,,,,,,,,,,,,,,,,,,,,,,,,,,,,,,,,,,501638,22,2020-08-05_13h02.02.881,CDT_GNG_IUS12,2020.1.2,MacIntel,60,,,,,,,,,,,,,,,,,,,,,,,,,,,,,,,,,,,,,10,4.72778,0,1,1,1,1,2,"On a scale from 0 to 10, indicate how frequently you are exposed to English (10 being 'always', 0 being 'never')",,,,,,,,,,,
,,,,,,,,,,,,,,,,,,,,,,,,,,,,,,,,,,,,,,,,,,,,,,,,,,,,,,501638,22,2020-08-05_13h02.02.881,CDT_GNG_IUS12,2020.1.2,MacIntel,60,,,,,,,,,,,,,,,,,,,,,,,,,,,,,,,,,,,,,,,,,,,,,"On a scale from 0 to 10, indicate your personal perception of your proficiency level for English (10 being the highest score)",5,6.07168,0,0,0,0,1,1,Unforeseen events upset me greatly.,,
,,,,,,,,,,,,,,,,,,,,,,,,,,,,,,,,,,,,,,,,,,,,,,,,,,,,,,501638,22,2020-08-05_13h02.02.881,CDT_GNG_IUS12,2020.1.2,MacIntel,60,,,,,,,,,,,,,,,,,,,,,,,,,,,,,,,,,,,,,,,,,,,,,"On a scale from 0 to 10, indicate how frequently you are exposed to English (10 being 'always', 0 being 'never')",5,3.077065,0,1,1,1,1,2,It frustrates me not having all the information I need.,,
,,,,,,,,,,,,,,,,,,,,,,,,,,,,,,,,,,,,,,,,,,,,,,,,,,,,,,501638,22,2020-08-05_13h02.02.881,CDT_GNG_IUS12,2020.1.2,MacIntel,60,,,,,,,,,,,,,,,,,,,,,,,,,,,,,,,,,,,,,,,,,,,,,,5,4.511405,0,2,2,2,1,3,One should always look ahead so as to avoid surprises.,,
,,,,,,,,,,,,,,,,,,,,,,,,,,,,,,,,,,,,,,,,,,,,,,,,,,,,,,501638,22,2020-08-05_13h02.02.881,CDT_GNG_IUS12,2020.1.2,MacIntel,60,,,,,,,,,,,,,,,,,,,,,,,,,,,,,,,,,,,,,,,,,,,,,,2.974375,5.22868,0,3,3,3,1,4,"A small, unforeseen event can spoil everything, even with the best of planning. ",,
,,,,,,,,,,,,,,,,,,,,,,,,,,,,,,,,,,,,,,,,,,,,,,,,,,,,,,501638,22,2020-08-05_13h02.02.881,CDT_GNG_IUS12,2020.1.2,MacIntel,60,,,,,,,,,,,,,,,,,,,,,,,,,,,,,,,,,,,,,,,,,,,,,,5,3.02927,0,4,4,4,1,5,I always want to know what the future has in store for me.,,
,,,,,,,,,,,,,,,,,,,,,,,,,,,,,,,,,,,,,,,,,,,,,,,,,,,,,,501638,22,2020-08-05_13h02.02.881,CDT_GNG_IUS12,2020.1.2,MacIntel,60,,,,,,,,,,,,,,,,,,,,,,,,,,,,,,,,,,,,,,,,,,,,,,3.002309028,5.962945,0,5,5,5,1,6,I can't stand being taken by surprise.,,
,,,,,,,,,,,,,,,,,,,,,,,,,,,,,,,,,,,,,,,,,,,,,,,,,,,,,,501638,22,2020-08-05_13h02.02.881,CDT_GNG_IUS12,2020.1.2,MacIntel,60,,,,,,,,,,,,,,,,,,,,,,,,,,,,,,,,,,,,,,,,,,,,,,5,3.844005,0,6,6,6,1,7,I should be able to organize everything in advance,,
,,,,,,,,,,,,,,,,,,,,,,,,,,,,,,,,,,,,,,,,,,,,,,,,,,,,,,501638,22,2020-08-05_13h02.02.881,CDT_GNG_IUS12,2020.1.2,MacIntel,60,,,,,,,,,,,,,,,,,,,,,,,,,,,,,,,,,,,,,,,,,,,,,,4.983506944,4.130885,0,7,7,7,1,8,Uncertainty keeps me from living a full life.,,
,,,,,,,,,,,,,,,,,,,,,,,,,,,,,,,,,,,,,,,,,,,,,,,,,,,,,,501638,22,2020-08-05_13h02.02.881,CDT_GNG_IUS12,2020.1.2,MacIntel,60,,,,,,,,,,,,,,,,,,,,,,,,,,,,,,,,,,,,,,,,,,,,,,4.983506944,3.43487,0,8,8,8,1,9,"When it's time to act, uncertainty paralyses me. ",,
,,,,,,,,,,,,,,,,,,,,,,,,,,,,,,,,,,,,,,,,,,,,,,,,,,,,,,501638,22,2020-08-05_13h02.02.881,CDT_GNG_IUS12,2020.1.2,MacIntel,60,,,,,,,,,,,,,,,,,,,,,,,,,,,,,,,,,,,,,,,,,,,,,,4.018576389,5.928745,0,9,9,9,1,10,"When I am uncertain, I can't function very well. ",,
,,,,,,,,,,,,,,,,,,,,,,,,,,,,,,,,,,,,,,,,,,,,,,,,,,,,,,501638,22,2020-08-05_13h02.02.881,CDT_GNG_IUS12,2020.1.2,MacIntel,60,,,,,,,,,,,,,,,,,,,,,,,,,,,,,,,,,,,,,,,,,,,,,,5,2.56538,0,10,10,10,1,11,The smallest doubt can stop me from acting. ,,
,,,,,,,,,,,,,,,,,,,,,,,,,,,,,,,,,,,,,,,,,,,,,,,,,,,,,,501638,22,2020-08-05_13h02.02.881,CDT_GNG_IUS12,2020.1.2,MacIntel,60,,,,,,,,,,,,,,,,,,,,,,,,,,,,,,,,,,,,,,,,,,,,,,3.998506944,3.0948,0,11,11,11,1,12,I must get away from all uncertain situations. ,,
,,,,,,,,,,,,,,,,,,,,,,,,,,,,,,,,,,,,,,,,,,,,,,,,,,,,,,501638,22,2020-08-05_13h02.02.881,CDT_GNG_IUS12,2020.1.2,MacIntel,60,,,,,,,,,,,,,,,,,,,,,,,,,,,,,,,,,,,,,,,,,,,,,,,,,,,,,,,x,5.39929
