key_resp_6.keys,key_resp_6.rt,Gender.keys,Gender.rt,key_resp_2.keys,key_resp_2.corr,key_resp_2.rt,CDT_trials_train.thisRepN,CDT_trials_train.thisTrialN,CDT_trials_train.thisN,CDT_trials_train.thisIndex,CDT_trials_train.ran,trialnum,condit,stimamt,stim1posx,stim1posy,stim1col,stim1opa,stim2posx,stim2posy,stim2col,stim2opa,stim3posx,stim3posy,stim3col,stim3opa,stim4posx,stim4posy,stim4col,stim4opa,stim5posx,stim5posy,stim5col,stim5opa,stim6posx,stim6posy,stim6col,stim6opa,stim7posx,stim7posy,stim7col,stim7opa,stim8posx,stim8posy,stim8col,stim8opa,stimsizex,stimsizey,stimdur,targetposx,targetposy,targetcol,corrAns,participant,age,date,expName,psychopyVersion,OS,frameRate,key_resp.keys,key_resp.corr,key_resp.rt,CDT_trials.thisRepN,CDT_trials.thisTrialN,CDT_trials.thisN,CDT_trials.thisIndex,CDT_trials.ran,trialResp_Train.keys,trialResp_Train.corr,GNGtrials_train.thisRepN,GNGtrials_train.thisTrialN,GNGtrials_train.thisN,GNGtrials_train.thisIndex,GNGtrials_train.ran,orangeOpacity,blueOpacity,trialResp.keys,trialResp.corr,GNG_trials_1.thisRepN,GNG_trials_1.thisTrialN,GNG_trials_1.thisN,GNG_trials_1.thisIndex,GNG_trials_1.ran,trialResp.rt,GNG_trials_2.thisRepN,GNG_trials_2.thisTrialN,GNG_trials_2.thisN,GNG_trials_2.thisIndex,GNG_trials_2.ran,GNG_trials_3.thisRepN,GNG_trials_3.thisTrialN,GNG_trials_3.thisN,GNG_trials_3.thisIndex,GNG_trials_3.ran,slider_2.response,slider_2.rt,engprof_trials.thisRepN,engprof_trials.thisTrialN,engprof_trials.thisN,engprof_trials.thisIndex,engprof_trials.ran,qpnumber,qproficiency,slider.response,slider.rt,IUS12_trials.thisRepN,IUS12_trials.thisTrialN,IUS12_trials.thisN,IUS12_trials.thisIndex,IUS12_trials.ran,qnumber,qenglish,key_resp_end.keys,key_resp_end.rt
y,2.690465,w,2.16194,l,0,0.607015,0,0,0,0,1,1,same,4,0.14,0.14,orange,1,0.14,-0.41,blue,1,-0.14,-0.27,cyan,1,-0.41,0.14,red,1,0.14,0.41,black,0,0.27,-0.27,green,0,-0.41,-0.27,magenta,0,-0.41,0.41,yellow,0,0.05,0.05,0.15,0.14,-0.41,blue,k,684262,23,2020-08-05_19h07.32.204,CDT_GNG_IUS12,2020.1.2,Win32,60,,,,,,,,,,,,,,,,,,,,,,,,,,,,,,,,,,,,,,,,,,,,,,,,,,,,,,,
,,,,k,0,0.667505,0,1,1,1,1,2,different,4,0.14,0.41,black,1,0.14,-0.41,green,1,-0.41,-0.27,orange,1,-0.27,0.41,magenta,1,0.14,0.27,red,0,0.41,-0.27,cyan,0,-0.27,-0.41,yellow,0,-0.27,0.27,blue,0,0.05,0.05,0.15,-0.27,0.41,red,l,684262,23,2020-08-05_19h07.32.204,CDT_GNG_IUS12,2020.1.2,Win32,60,,,,,,,,,,,,,,,,,,,,,,,,,,,,,,,,,,,,,,,,,,,,,,,,,,,,,,,
,,,,l,0,0.703725,0,2,2,2,1,3,same,8,0.27,0.41,yellow,1,0.14,-0.41,cyan,1,-0.14,-0.27,blue,1,-0.14,0.27,green,1,0.14,0.14,red,1,0.27,-0.27,black,1,-0.27,-0.27,magenta,1,-0.27,0.14,orange,1,0.05,0.05,0.15,-0.14,0.27,green,k,684262,23,2020-08-05_19h07.32.204,CDT_GNG_IUS12,2020.1.2,Win32,60,,,,,,,,,,,,,,,,,,,,,,,,,,,,,,,,,,,,,,,,,,,,,,,,,,,,,,,
,,,,k,0,0.841875,0,3,3,3,1,4,different,8,0.14,0.41,green,1,0.27,-0.14,red,1,-0.27,-0.14,black,1,-0.14,0.41,orange,1,0.41,0.27,blue,1,0.41,-0.27,magenta,1,-0.14,-0.14,cyan,1,-0.27,0.14,yellow,1,0.05,0.05,0.15,0.27,-0.14,cyan,l,684262,23,2020-08-05_19h07.32.204,CDT_GNG_IUS12,2020.1.2,Win32,60,,,,,,,,,,,,,,,,,,,,,,,,,,,,,,,,,,,,,,,,,,,,,,,,,,,,,,,
,,,,,,,,,,,,13,same,4,0.41,0.41,black,1,0.14,-0.14,red,1,-0.14,-0.14,orange,1,-0.14,0.14,cyan,1,0.14,0.14,green,0,0.27,-0.27,magenta,0,-0.27,-0.14,yellow,0,-0.14,0.41,blue,0,0.05,0.05,0.15,0.41,0.41,black,k,684262,23,2020-08-05_19h07.32.204,CDT_GNG_IUS12,2020.1.2,Win32,60,k,1,0.65509,0,0,0,12,1,,,,,,,,,,,,,,,,,,,,,,,,,,,,,,,,,,,,,,,,,,,,,,,
,,,,,,,,,,,,108,different,8,0.27,0.41,magenta,1,0.27,-0.14,green,1,-0.14,-0.41,yellow,1,-0.41,0.41,red,1,0.41,0.27,blue,1,0.14,-0.27,cyan,1,-0.27,-0.27,orange,1,-0.41,0.14,black,1,0.05,0.05,0.15,0.27,0.41,black,l,684262,23,2020-08-05_19h07.32.204,CDT_GNG_IUS12,2020.1.2,Win32,60,l,1,0.88535,0,1,1,107,1,,,,,,,,,,,,,,,,,,,,,,,,,,,,,,,,,,,,,,,,,,,,,,,
,,,,,,,,,,,,78,same,8,0.41,0.14,green,1,0.14,-0.27,magenta,1,-0.41,-0.27,blue,1,-0.41,0.41,black,1,0.41,0.27,cyan,1,0.41,-0.14,orange,1,-0.14,-0.41,yellow,1,-0.14,0.41,red,1,0.05,0.05,0.15,-0.41,-0.27,blue,k,684262,23,2020-08-05_19h07.32.204,CDT_GNG_IUS12,2020.1.2,Win32,60,k,1,0.70597,0,2,2,77,1,,,,,,,,,,,,,,,,,,,,,,,,,,,,,,,,,,,,,,,,,,,,,,,
,,,,,,,,,,,,12,same,4,0.14,0.41,red,1,0.14,-0.41,green,1,-0.41,-0.41,black,1,-0.27,0.27,cyan,1,0.27,0.41,magenta,0,0.41,-0.14,orange,0,-0.27,-0.41,yellow,0,-0.41,0.27,blue,0,0.05,0.05,0.15,-0.41,-0.41,black,k,684262,23,2020-08-05_19h07.32.204,CDT_GNG_IUS12,2020.1.2,Win32,60,k,1,0.76759,0,3,3,11,1,,,,,,,,,,,,,,,,,,,,,,,,,,,,,,,,,,,,,,,,,,,,,,,
,,,,,,,,,,,,53,different,4,0.14,0.27,cyan,1,0.41,-0.14,yellow,1,-0.41,-0.41,green,1,-0.14,0.41,black,1,0.41,0.27,red,0,0.14,-0.14,magenta,0,-0.27,-0.27,blue,0,-0.27,0.27,orange,0,0.05,0.05,0.15,0.14,0.27,blue,l,684262,23,2020-08-05_19h07.32.204,CDT_GNG_IUS12,2020.1.2,Win32,60,k,0,0.58699,0,4,4,52,1,,,,,,,,,,,,,,,,,,,,,,,,,,,,,,,,,,,,,,,,,,,,,,,
,,,,,,,,,,,,67,same,8,0.14,0.27,yellow,1,0.27,-0.14,magenta,1,-0.27,-0.27,black,1,-0.41,0.41,blue,1,0.41,0.14,cyan,1,0.14,-0.14,red,1,-0.41,-0.14,orange,1,-0.41,0.27,green,1,0.05,0.05,0.15,-0.27,-0.27,black,k,684262,23,2020-08-05_19h07.32.204,CDT_GNG_IUS12,2020.1.2,Win32,60,l,0,0.570125,0,5,5,66,1,,,,,,,,,,,,,,,,,,,,,,,,,,,,,,,,,,,,,,,,,,,,,,,
,,,,,,,,,,,,90,same,8,0.27,0.14,orange,1,0.14,-0.27,green,1,-0.14,-0.41,magenta,1,-0.14,0.27,cyan,1,0.41,0.41,blue,1,0.14,-0.14,black,1,-0.14,-0.14,yellow,1,-0.27,0.27,red,1,0.05,0.05,0.15,0.14,-0.14,black,k,684262,23,2020-08-05_19h07.32.204,CDT_GNG_IUS12,2020.1.2,Win32,60,k,1,0.62375,0,6,6,89,1,,,,,,,,,,,,,,,,,,,,,,,,,,,,,,,,,,,,,,,,,,,,,,,
,,,,,,,,,,,,1,same,4,0.14,0.14,magenta,1,0.27,-0.14,blue,1,-0.27,-0.14,black,1,-0.27,0.27,green,1,0.41,0.41,red,0,0.27,-0.27,cyan,0,-0.14,-0.14,yellow,0,-0.27,0.41,orange,0,0.05,0.05,0.15,0.14,0.14,magenta,k,684262,23,2020-08-05_19h07.32.204,CDT_GNG_IUS12,2020.1.2,Win32,60,l,0,0.483835,0,7,7,0,1,,,,,,,,,,,,,,,,,,,,,,,,,,,,,,,,,,,,,,,,,,,,,,,
,,,,,,,,,,,,75,same,8,0.41,0.27,blue,1,0.41,-0.41,black,1,-0.41,-0.41,red,1,-0.27,0.14,magenta,1,0.27,0.14,yellow,1,0.27,-0.27,cyan,1,-0.14,-0.27,green,1,-0.41,0.27,orange,1,0.05,0.05,0.15,-0.14,-0.27,green,k,684262,23,2020-08-05_19h07.32.204,CDT_GNG_IUS12,2020.1.2,Win32,60,l,0,0.433925,0,8,8,74,1,,,,,,,,,,,,,,,,,,,,,,,,,,,,,,,,,,,,,,,,,,,,,,,
,,,,,,,,,,,,35,different,4,0.27,0.41,orange,1,0.41,-0.14,cyan,1,-0.27,-0.27,green,1,-0.14,0.27,yellow,1,0.41,0.27,black,0,0.41,-0.41,magenta,0,-0.14,-0.14,blue,0,-0.27,0.14,red,0,0.05,0.05,0.15,-0.14,0.27,blue,l,684262,23,2020-08-05_19h07.32.204,CDT_GNG_IUS12,2020.1.2,Win32,60,k,0,0.253425,0,9,9,34,1,,,,,,,,,,,,,,,,,,,,,,,,,,,,,,,,,,,,,,,,,,,,,,,
,,,,,,,,,,,,37,different,4,0.41,0.41,yellow,1,0.27,-0.14,black,1,-0.14,-0.14,orange,1,-0.41,0.14,green,1,0.14,0.14,cyan,0,0.27,-0.41,blue,0,-0.14,-0.27,magenta,0,-0.14,0.14,red,0,0.05,0.05,0.15,0.41,0.41,red,l,684262,23,2020-08-05_19h07.32.204,CDT_GNG_IUS12,2020.1.2,Win32,60,k,0,1.669535,0,10,10,36,1,,,,,,,,,,,,,,,,,,,,,,,,,,,,,,,,,,,,,,,,,,,,,,,
,,,,,,,,,,,,42,different,4,0.41,0.41,green,1,0.14,-0.14,red,1,-0.27,-0.14,cyan,1,-0.27,0.27,blue,1,0.27,0.27,orange,0,0.14,-0.27,black,0,-0.27,-0.41,yellow,0,-0.27,0.41,magenta,0,0.05,0.05,0.15,-0.27,0.27,red,l,684262,23,2020-08-05_19h07.32.204,CDT_GNG_IUS12,2020.1.2,Win32,60,k,0,0.56681,0,11,11,41,1,,,,,,,,,,,,,,,,,,,,,,,,,,,,,,,,,,,,,,,,,,,,,,,
,,,,,,,,,,,,2,same,4,0.27,0.41,magenta,1,0.41,-0.14,red,1,-0.27,-0.14,orange,1,-0.27,0.14,blue,1,0.14,0.14,cyan,0,0.14,-0.14,green,0,-0.14,-0.14,black,0,-0.14,0.41,yellow,0,0.05,0.05,0.15,-0.27,-0.14,orange,k,684262,23,2020-08-05_19h07.32.204,CDT_GNG_IUS12,2020.1.2,Win32,60,k,1,0.619985,0,12,12,1,1,,,,,,,,,,,,,,,,,,,,,,,,,,,,,,,,,,,,,,,,,,,,,,,
,,,,,,,,,,,,45,different,4,0.14,0.14,red,1,0.27,-0.27,black,1,-0.41,-0.27,cyan,1,-0.41,0.27,blue,1,0.27,0.27,magenta,0,0.14,-0.41,orange,0,-0.14,-0.14,green,0,-0.27,0.14,yellow,0,0.05,0.05,0.15,0.14,0.14,blue,l,684262,23,2020-08-05_19h07.32.204,CDT_GNG_IUS12,2020.1.2,Win32,60,l,1,0.30794,0,13,13,44,1,,,,,,,,,,,,,,,,,,,,,,,,,,,,,,,,,,,,,,,,,,,,,,,
,,,,,,,,,,,,73,same,8,0.14,0.14,blue,1,0.14,-0.41,yellow,1,-0.41,-0.41,red,1,-0.41,0.27,orange,1,0.27,0.41,magenta,1,0.14,-0.27,green,1,-0.41,-0.27,black,1,-0.27,0.27,cyan,1,0.05,0.05,0.15,0.27,0.41,magenta,k,684262,23,2020-08-05_19h07.32.204,CDT_GNG_IUS12,2020.1.2,Win32,60,l,0,0.366335,0,14,14,72,1,,,,,,,,,,,,,,,,,,,,,,,,,,,,,,,,,,,,,,,,,,,,,,,
,,,,,,,,,,,,110,different,8,0.41,0.14,orange,1,0.27,-0.27,black,1,-0.14,-0.27,blue,1,-0.27,0.27,cyan,1,0.27,0.41,magenta,1,0.27,-0.41,red,1,-0.27,-0.41,yellow,1,-0.27,0.41,green,1,0.05,0.05,0.15,-0.27,-0.41,red,l,684262,23,2020-08-05_19h07.32.204,CDT_GNG_IUS12,2020.1.2,Win32,60,l,1,0.550585,0,15,15,109,1,,,,,,,,,,,,,,,,,,,,,,,,,,,,,,,,,,,,,,,,,,,,,,,
,,,,,,,,,,,,49,different,4,0.27,0.14,green,1,0.41,-0.14,yellow,1,-0.27,-0.41,red,1,-0.14,0.14,cyan,1,0.14,0.14,blue,0,0.27,-0.27,black,0,-0.14,-0.41,orange,0,-0.41,0.14,magenta,0,0.05,0.05,0.15,0.27,0.14,yellow,l,684262,23,2020-08-05_19h07.32.204,CDT_GNG_IUS12,2020.1.2,Win32,60,k,0,0.417235,0,16,16,48,1,,,,,,,,,,,,,,,,,,,,,,,,,,,,,,,,,,,,,,,,,,,,,,,
,,,,,,,,,,,,92,different,8,0.27,0.27,yellow,1,0.14,-0.27,green,1,-0.41,-0.14,blue,1,-0.41,0.41,red,1,0.14,0.27,magenta,1,0.27,-0.14,cyan,1,-0.14,-0.14,orange,1,-0.27,0.27,black,1,0.05,0.05,0.15,-0.41,-0.14,magenta,l,684262,23,2020-08-05_19h07.32.204,CDT_GNG_IUS12,2020.1.2,Win32,60,l,1,0.7055,0,17,17,91,1,,,,,,,,,,,,,,,,,,,,,,,,,,,,,,,,,,,,,,,,,,,,,,,
,,,,,,,,,,,,47,different,4,0.27,0.27,magenta,1,0.41,-0.27,black,1,-0.14,-0.41,red,1,-0.14,0.41,green,1,0.41,0.41,cyan,0,0.27,-0.14,orange,0,-0.27,-0.14,blue,0,-0.27,0.14,yellow,0,0.05,0.05,0.15,0.27,0.27,blue,l,684262,23,2020-08-05_19h07.32.204,CDT_GNG_IUS12,2020.1.2,Win32,60,l,1,0.71944,0,18,18,46,1,,,,,,,,,,,,,,,,,,,,,,,,,,,,,,,,,,,,,,,,,,,,,,,
,,,,,,,,,,,,27,same,4,0.27,0.27,yellow,1,0.27,-0.27,green,1,-0.27,-0.41,cyan,1,-0.14,0.41,black,1,0.14,0.41,blue,0,0.41,-0.14,red,0,-0.14,-0.14,orange,0,-0.27,0.41,magenta,0,0.05,0.05,0.15,0.27,-0.27,green,k,684262,23,2020-08-05_19h07.32.204,CDT_GNG_IUS12,2020.1.2,Win32,60,l,0,3.884585,0,19,19,26,1,,,,,,,,,,,,,,,,,,,,,,,,,,,,,,,,,,,,,,,,,,,,,,,
,,,,,,,,,,,,77,same,8,0.41,0.41,black,1,0.14,-0.14,cyan,1,-0.27,-0.41,yellow,1,-0.14,0.27,orange,1,0.41,0.14,blue,1,0.41,-0.14,magenta,1,-0.14,-0.27,green,1,-0.27,0.14,red,1,0.05,0.05,0.15,0.41,-0.14,magenta,k,684262,23,2020-08-05_19h07.32.204,CDT_GNG_IUS12,2020.1.2,Win32,60,l,0,0.504825,0,20,20,76,1,,,,,,,,,,,,,,,,,,,,,,,,,,,,,,,,,,,,,,,,,,,,,,,
,,,,,,,,,,,,119,different,8,0.27,0.27,green,1,0.27,-0.14,orange,1,-0.41,-0.41,cyan,1,-0.27,0.27,blue,1,0.41,0.27,black,1,0.14,-0.41,red,1,-0.14,-0.41,yellow,1,-0.41,0.27,magenta,1,0.05,0.05,0.15,-0.41,0.27,cyan,l,684262,23,2020-08-05_19h07.32.204,CDT_GNG_IUS12,2020.1.2,Win32,60,l,1,0.83406,0,21,21,118,1,,,,,,,,,,,,,,,,,,,,,,,,,,,,,,,,,,,,,,,,,,,,,,,
,,,,,,,,,,,,98,different,8,0.41,0.27,black,1,0.14,-0.27,yellow,1,-0.14,-0.27,cyan,1,-0.27,0.14,red,1,0.27,0.27,green,1,0.41,-0.41,magenta,1,-0.41,-0.14,blue,1,-0.41,0.41,orange,1,0.05,0.05,0.15,0.41,0.27,red,l,684262,23,2020-08-05_19h07.32.204,CDT_GNG_IUS12,2020.1.2,Win32,60,l,1,1.016955,0,22,22,97,1,,,,,,,,,,,,,,,,,,,,,,,,,,,,,,,,,,,,,,,,,,,,,,,
,,,,,,,,,,,,97,different,8,0.27,0.27,blue,1,0.14,-0.27,orange,1,-0.14,-0.14,black,1,-0.27,0.14,cyan,1,0.14,0.14,magenta,1,0.27,-0.41,yellow,1,-0.27,-0.41,green,1,-0.41,0.14,red,1,0.05,0.05,0.15,-0.27,0.14,black,l,684262,23,2020-08-05_19h07.32.204,CDT_GNG_IUS12,2020.1.2,Win32,60,k,0,1.517715,0,23,23,96,1,,,,,,,,,,,,,,,,,,,,,,,,,,,,,,,,,,,,,,,,,,,,,,,
,,,,,,,,,,,,38,different,4,0.27,0.27,black,1,0.14,-0.27,green,1,-0.14,-0.27,magenta,1,-0.41,0.14,blue,1,0.14,0.41,orange,0,0.27,-0.41,yellow,0,-0.41,-0.14,cyan,0,-0.27,0.41,red,0,0.05,0.05,0.15,-0.14,-0.27,orange,l,684262,23,2020-08-05_19h07.32.204,CDT_GNG_IUS12,2020.1.2,Win32,60,k,0,0.734895,0,24,24,37,1,,,,,,,,,,,,,,,,,,,,,,,,,,,,,,,,,,,,,,,,,,,,,,,
,,,,,,,,,,,,34,different,4,0.14,0.14,cyan,1,0.14,-0.14,magenta,1,-0.41,-0.41,black,1,-0.41,0.14,yellow,1,0.27,0.27,orange,0,0.14,-0.41,green,0,-0.41,-0.14,red,0,-0.14,0.14,blue,0,0.05,0.05,0.15,0.14,-0.14,cyan,l,684262,23,2020-08-05_19h07.32.204,CDT_GNG_IUS12,2020.1.2,Win32,60,k,0,0.47341,0,25,25,33,1,,,,,,,,,,,,,,,,,,,,,,,,,,,,,,,,,,,,,,,,,,,,,,,
,,,,,,,,,,,,41,different,4,0.41,0.41,green,1,0.27,-0.41,orange,1,-0.27,-0.41,black,1,-0.27,0.41,magenta,1,0.14,0.41,cyan,0,0.41,-0.27,blue,0,-0.14,-0.27,red,0,-0.27,0.14,yellow,0,0.05,0.05,0.15,-0.27,-0.41,cyan,l,684262,23,2020-08-05_19h07.32.204,CDT_GNG_IUS12,2020.1.2,Win32,60,k,0,0.650605,0,26,26,40,1,,,,,,,,,,,,,,,,,,,,,,,,,,,,,,,,,,,,,,,,,,,,,,,
,,,,,,,,,,,,115,different,8,0.14,0.27,green,1,0.27,-0.41,orange,1,-0.14,-0.14,yellow,1,-0.27,0.41,magenta,1,0.27,0.14,blue,1,0.14,-0.27,red,1,-0.41,-0.14,cyan,1,-0.41,0.14,black,1,0.05,0.05,0.15,0.14,-0.27,cyan,l,684262,23,2020-08-05_19h07.32.204,CDT_GNG_IUS12,2020.1.2,Win32,60,k,0,0.46762,0,27,27,114,1,,,,,,,,,,,,,,,,,,,,,,,,,,,,,,,,,,,,,,,,,,,,,,,
,,,,,,,,,,,,50,different,4,0.41,0.14,black,1,0.14,-0.14,blue,1,-0.41,-0.41,red,1,-0.27,0.14,green,1,0.14,0.41,cyan,0,0.41,-0.14,magenta,0,-0.14,-0.27,yellow,0,-0.27,0.41,orange,0,0.05,0.05,0.15,-0.41,-0.41,orange,l,684262,23,2020-08-05_19h07.32.204,CDT_GNG_IUS12,2020.1.2,Win32,60,k,0,0.352865,0,28,28,49,1,,,,,,,,,,,,,,,,,,,,,,,,,,,,,,,,,,,,,,,,,,,,,,,
,,,,,,,,,,,,60,different,4,0.41,0.14,cyan,1,0.14,-0.41,green,1,-0.41,-0.41,yellow,1,-0.41,0.41,magenta,1,0.14,0.14,orange,0,0.41,-0.41,red,0,-0.14,-0.41,black,0,-0.27,0.27,blue,0,0.05,0.05,0.15,0.41,0.14,blue,l,684262,23,2020-08-05_19h07.32.204,CDT_GNG_IUS12,2020.1.2,Win32,60,k,0,0.56739,0,29,29,59,1,,,,,,,,,,,,,,,,,,,,,,,,,,,,,,,,,,,,,,,,,,,,,,,
,,,,,,,,,,,,65,same,8,0.41,0.41,blue,1,0.27,-0.41,yellow,1,-0.27,-0.41,red,1,-0.41,0.27,cyan,1,0.14,0.27,black,1,0.27,-0.27,orange,1,-0.41,-0.41,magenta,1,-0.41,0.41,green,1,0.05,0.05,0.15,0.27,-0.27,orange,k,684262,23,2020-08-05_19h07.32.204,CDT_GNG_IUS12,2020.1.2,Win32,60,l,0,0.5005,0,30,30,64,1,,,,,,,,,,,,,,,,,,,,,,,,,,,,,,,,,,,,,,,,,,,,,,,
,,,,,,,,,,,,11,same,4,0.27,0.14,red,1,0.14,-0.14,cyan,1,-0.27,-0.41,blue,1,-0.27,0.14,yellow,1,0.27,0.27,green,0,0.41,-0.27,black,0,-0.41,-0.41,magenta,0,-0.41,0.14,orange,0,0.05,0.05,0.15,-0.27,-0.41,blue,k,684262,23,2020-08-05_19h07.32.204,CDT_GNG_IUS12,2020.1.2,Win32,60,k,1,1.706075,0,31,31,10,1,,,,,,,,,,,,,,,,,,,,,,,,,,,,,,,,,,,,,,,,,,,,,,,
,,,,,,,,,,,,79,same,8,0.27,0.14,green,1,0.41,-0.14,yellow,1,-0.27,-0.41,orange,1,-0.14,0.14,black,1,0.41,0.27,cyan,1,0.14,-0.14,red,1,-0.14,-0.27,blue,1,-0.27,0.41,magenta,1,0.05,0.05,0.15,0.41,0.27,cyan,k,684262,23,2020-08-05_19h07.32.204,CDT_GNG_IUS12,2020.1.2,Win32,60,k,1,0.47837,0,32,32,78,1,,,,,,,,,,,,,,,,,,,,,,,,,,,,,,,,,,,,,,,,,,,,,,,
,,,,,,,,,,,,63,same,8,0.27,0.27,magenta,1,0.27,-0.27,yellow,1,-0.27,-0.14,orange,1,-0.14,0.14,green,1,0.41,0.27,blue,1,0.41,-0.27,cyan,1,-0.41,-0.41,red,1,-0.41,0.27,black,1,0.05,0.05,0.15,0.27,0.27,magenta,k,684262,23,2020-08-05_19h07.32.204,CDT_GNG_IUS12,2020.1.2,Win32,60,k,1,0.48381,0,33,33,62,1,,,,,,,,,,,,,,,,,,,,,,,,,,,,,,,,,,,,,,,,,,,,,,,
,,,,,,,,,,,,40,different,4,0.41,0.41,magenta,1,0.41,-0.27,cyan,1,-0.27,-0.41,yellow,1,-0.14,0.41,black,1,0.27,0.27,blue,0,0.41,-0.41,green,0,-0.14,-0.27,red,0,-0.27,0.27,orange,0,0.05,0.05,0.15,-0.27,-0.41,orange,l,684262,23,2020-08-05_19h07.32.204,CDT_GNG_IUS12,2020.1.2,Win32,60,l,1,0.517185,0,34,34,39,1,,,,,,,,,,,,,,,,,,,,,,,,,,,,,,,,,,,,,,,,,,,,,,,
,,,,,,,,,,,,76,same,8,0.14,0.27,orange,1,0.41,-0.14,cyan,1,-0.27,-0.27,blue,1,-0.14,0.14,black,1,0.27,0.41,green,1,0.27,-0.14,red,1,-0.27,-0.14,yellow,1,-0.27,0.27,magenta,1,0.05,0.05,0.15,0.41,-0.14,cyan,k,684262,23,2020-08-05_19h07.32.204,CDT_GNG_IUS12,2020.1.2,Win32,60,l,0,0.35432,0,35,35,75,1,,,,,,,,,,,,,,,,,,,,,,,,,,,,,,,,,,,,,,,,,,,,,,,
,,,,,,,,,,,,96,different,8,0.14,0.14,yellow,1,0.14,-0.41,black,1,-0.27,-0.27,orange,1,-0.14,0.41,blue,1,0.14,0.27,magenta,1,0.41,-0.27,cyan,1,-0.41,-0.41,red,1,-0.41,0.41,green,1,0.05,0.05,0.15,0.41,-0.27,magenta,l,684262,23,2020-08-05_19h07.32.204,CDT_GNG_IUS12,2020.1.2,Win32,60,k,0,0.33412,0,36,36,95,1,,,,,,,,,,,,,,,,,,,,,,,,,,,,,,,,,,,,,,,,,,,,,,,
,,,,,,,,,,,,23,same,4,0.41,0.14,cyan,1,0.14,-0.27,magenta,1,-0.14,-0.27,red,1,-0.14,0.27,green,1,0.41,0.27,blue,0,0.14,-0.41,yellow,0,-0.41,-0.27,orange,0,-0.27,0.41,black,0,0.05,0.05,0.15,-0.14,0.27,green,k,684262,23,2020-08-05_19h07.32.204,CDT_GNG_IUS12,2020.1.2,Win32,60,l,0,0.31812,0,37,37,22,1,,,,,,,,,,,,,,,,,,,,,,,,,,,,,,,,,,,,,,,,,,,,,,,
,,,,,,,,,,,,8,same,4,0.27,0.41,orange,1,0.41,-0.14,cyan,1,-0.14,-0.41,green,1,-0.14,0.41,black,1,0.41,0.41,blue,0,0.27,-0.41,yellow,0,-0.41,-0.27,red,0,-0.41,0.41,magenta,0,0.05,0.05,0.15,-0.14,-0.41,green,k,684262,23,2020-08-05_19h07.32.204,CDT_GNG_IUS12,2020.1.2,Win32,60,k,1,0.347505,0,38,38,7,1,,,,,,,,,,,,,,,,,,,,,,,,,,,,,,,,,,,,,,,,,,,,,,,
,,,,,,,,,,,,5,same,4,0.27,0.27,blue,1,0.14,-0.14,orange,1,-0.27,-0.27,black,1,-0.27,0.41,magenta,1,0.27,0.41,green,0,0.14,-0.41,cyan,0,-0.27,-0.41,yellow,0,-0.27,0.14,red,0,0.05,0.05,0.15,0.14,-0.14,orange,k,684262,23,2020-08-05_19h07.32.204,CDT_GNG_IUS12,2020.1.2,Win32,60,l,0,0.7094,0,39,39,4,1,,,,,,,,,,,,,,,,,,,,,,,,,,,,,,,,,,,,,,,,,,,,,,,
,,,,,,,,,,,,101,different,8,0.14,0.27,magenta,1,0.14,-0.27,cyan,1,-0.41,-0.14,yellow,1,-0.41,0.14,black,1,0.14,0.41,red,1,0.41,-0.41,blue,1,-0.14,-0.41,green,1,-0.27,0.27,orange,1,0.05,0.05,0.15,-0.41,0.14,magenta,l,684262,23,2020-08-05_19h07.32.204,CDT_GNG_IUS12,2020.1.2,Win32,60,l,1,0.33406,0,40,40,100,1,,,,,,,,,,,,,,,,,,,,,,,,,,,,,,,,,,,,,,,,,,,,,,,
,,,,,,,,,,,,20,same,4,0.27,0.14,cyan,1,0.14,-0.14,orange,1,-0.27,-0.27,green,1,-0.41,0.27,yellow,1,0.14,0.41,black,0,0.41,-0.41,red,0,-0.27,-0.41,magenta,0,-0.27,0.27,blue,0,0.05,0.05,0.15,-0.27,-0.27,green,k,684262,23,2020-08-05_19h07.32.204,CDT_GNG_IUS12,2020.1.2,Win32,60,l,0,0.38805,0,41,41,19,1,,,,,,,,,,,,,,,,,,,,,,,,,,,,,,,,,,,,,,,,,,,,,,,
,,,,,,,,,,,,36,different,4,0.41,0.27,magenta,1,0.27,-0.14,orange,1,-0.41,-0.41,yellow,1,-0.14,0.14,blue,1,0.14,0.41,green,0,0.27,-0.27,black,0,-0.41,-0.27,cyan,0,-0.41,0.41,red,0,0.05,0.05,0.15,0.27,-0.14,black,l,684262,23,2020-08-05_19h07.32.204,CDT_GNG_IUS12,2020.1.2,Win32,60,l,1,0.536395,0,42,42,35,1,,,,,,,,,,,,,,,,,,,,,,,,,,,,,,,,,,,,,,,,,,,,,,,
,,,,,,,,,,,,74,same,8,0.41,0.41,blue,1,0.14,-0.14,orange,1,-0.27,-0.41,cyan,1,-0.27,0.41,yellow,1,0.41,0.27,black,1,0.41,-0.41,red,1,-0.14,-0.27,magenta,1,-0.27,0.14,green,1,0.05,0.05,0.15,0.41,0.27,black,k,684262,23,2020-08-05_19h07.32.204,CDT_GNG_IUS12,2020.1.2,Win32,60,k,1,0.684435,0,43,43,73,1,,,,,,,,,,,,,,,,,,,,,,,,,,,,,,,,,,,,,,,,,,,,,,,
,,,,,,,,,,,,52,different,4,0.27,0.41,cyan,1,0.14,-0.14,orange,1,-0.41,-0.14,black,1,-0.27,0.41,blue,1,0.14,0.27,magenta,0,0.27,-0.14,green,0,-0.27,-0.14,red,0,-0.14,0.41,yellow,0,0.05,0.05,0.15,0.14,-0.14,green,l,684262,23,2020-08-05_19h07.32.204,CDT_GNG_IUS12,2020.1.2,Win32,60,l,1,0.43408,0,44,44,51,1,,,,,,,,,,,,,,,,,,,,,,,,,,,,,,,,,,,,,,,,,,,,,,,
,,,,,,,,,,,,44,different,4,0.27,0.27,black,1,0.41,-0.14,red,1,-0.41,-0.27,magenta,1,-0.14,0.14,green,1,0.41,0.41,cyan,0,0.14,-0.14,yellow,0,-0.27,-0.41,blue,0,-0.27,0.14,orange,0,0.05,0.05,0.15,0.41,-0.14,magenta,l,684262,23,2020-08-05_19h07.32.204,CDT_GNG_IUS12,2020.1.2,Win32,60,k,0,0.48391,0,45,45,43,1,,,,,,,,,,,,,,,,,,,,,,,,,,,,,,,,,,,,,,,,,,,,,,,
,,,,,,,,,,,,30,same,4,0.14,0.41,black,1,0.41,-0.27,yellow,1,-0.14,-0.27,green,1,-0.41,0.14,orange,1,0.41,0.27,blue,0,0.14,-0.41,magenta,0,-0.27,-0.27,cyan,0,-0.41,0.41,red,0,0.05,0.05,0.15,0.14,0.41,black,k,684262,23,2020-08-05_19h07.32.204,CDT_GNG_IUS12,2020.1.2,Win32,60,l,0,0.267255,0,46,46,29,1,,,,,,,,,,,,,,,,,,,,,,,,,,,,,,,,,,,,,,,,,,,,,,,
,,,,,,,,,,,,17,same,4,0.41,0.27,cyan,1,0.41,-0.41,black,1,-0.14,-0.27,magenta,1,-0.14,0.41,green,1,0.14,0.14,orange,0,0.14,-0.41,yellow,0,-0.14,-0.41,red,0,-0.27,0.14,blue,0,0.05,0.05,0.15,-0.14,0.41,green,k,684262,23,2020-08-05_19h07.32.204,CDT_GNG_IUS12,2020.1.2,Win32,60,l,0,0.400385,0,47,47,16,1,,,,,,,,,,,,,,,,,,,,,,,,,,,,,,,,,,,,,,,,,,,,,,,
,,,,,,,,,,,,9,same,4,0.27,0.27,red,1,0.14,-0.27,orange,1,-0.14,-0.41,yellow,1,-0.27,0.41,blue,1,0.41,0.41,green,0,0.41,-0.41,cyan,0,-0.27,-0.41,magenta,0,-0.27,0.27,black,0,0.05,0.05,0.15,0.27,0.27,red,k,684262,23,2020-08-05_19h07.32.204,CDT_GNG_IUS12,2020.1.2,Win32,60,k,1,0.500955,0,48,48,8,1,,,,,,,,,,,,,,,,,,,,,,,,,,,,,,,,,,,,,,,,,,,,,,,
,,,,,,,,,,,,71,same,8,0.14,0.41,red,1,0.27,-0.14,yellow,1,-0.27,-0.41,cyan,1,-0.41,0.27,blue,1,0.41,0.27,magenta,1,0.14,-0.41,orange,1,-0.14,-0.14,black,1,-0.41,0.14,green,1,0.05,0.05,0.15,-0.41,0.27,blue,k,684262,23,2020-08-05_19h07.32.204,CDT_GNG_IUS12,2020.1.2,Win32,60,k,1,0.217015,0,49,49,70,1,,,,,,,,,,,,,,,,,,,,,,,,,,,,,,,,,,,,,,,,,,,,,,,
,,,,,,,,,,,,105,different,8,0.41,0.27,cyan,1,0.14,-0.14,magenta,1,-0.27,-0.14,blue,1,-0.41,0.41,yellow,1,0.41,0.41,red,1,0.14,-0.41,green,1,-0.27,-0.27,orange,1,-0.27,0.41,black,1,0.05,0.05,0.15,0.41,0.27,orange,l,684262,23,2020-08-05_19h07.32.204,CDT_GNG_IUS12,2020.1.2,Win32,60,l,1,0.29885,0,50,50,104,1,,,,,,,,,,,,,,,,,,,,,,,,,,,,,,,,,,,,,,,,,,,,,,,
,,,,,,,,,,,,16,same,4,0.27,0.27,magenta,1,0.14,-0.14,orange,1,-0.14,-0.41,blue,1,-0.27,0.14,red,1,0.14,0.14,black,0,0.14,-0.27,green,0,-0.27,-0.27,yellow,0,-0.27,0.27,cyan,0,0.05,0.05,0.15,-0.27,0.14,red,k,684262,23,2020-08-05_19h07.32.204,CDT_GNG_IUS12,2020.1.2,Win32,60,k,1,0.671855,0,51,51,15,1,,,,,,,,,,,,,,,,,,,,,,,,,,,,,,,,,,,,,,,,,,,,,,,
,,,,,,,,,,,,107,different,8,0.27,0.41,green,1,0.27,-0.41,cyan,1,-0.41,-0.41,black,1,-0.14,0.41,blue,1,0.14,0.14,red,1,0.27,-0.27,yellow,1,-0.14,-0.41,magenta,1,-0.14,0.14,orange,1,0.05,0.05,0.15,-0.14,0.14,black,l,684262,23,2020-08-05_19h07.32.204,CDT_GNG_IUS12,2020.1.2,Win32,60,l,1,0.437225,0,52,52,106,1,,,,,,,,,,,,,,,,,,,,,,,,,,,,,,,,,,,,,,,,,,,,,,,
,,,,,,,,,,,,120,different,8,0.41,0.41,blue,1,0.14,-0.14,magenta,1,-0.27,-0.27,cyan,1,-0.27,0.41,orange,1,0.27,0.41,yellow,1,0.14,-0.41,red,1,-0.14,-0.27,green,1,-0.14,0.41,black,1,0.05,0.05,0.15,-0.14,0.41,orange,l,684262,23,2020-08-05_19h07.32.204,CDT_GNG_IUS12,2020.1.2,Win32,60,k,0,0.351,0,53,53,119,1,,,,,,,,,,,,,,,,,,,,,,,,,,,,,,,,,,,,,,,,,,,,,,,
,,,,,,,,,,,,22,same,4,0.41,0.27,green,1,0.27,-0.14,black,1,-0.27,-0.41,cyan,1,-0.41,0.14,blue,1,0.14,0.14,magenta,0,0.41,-0.41,orange,0,-0.14,-0.27,red,0,-0.41,0.41,yellow,0,0.05,0.05,0.15,0.27,-0.14,black,k,684262,23,2020-08-05_19h07.32.204,CDT_GNG_IUS12,2020.1.2,Win32,60,k,1,0.583765,0,54,54,21,1,,,,,,,,,,,,,,,,,,,,,,,,,,,,,,,,,,,,,,,,,,,,,,,
,,,,,,,,,,,,82,same,8,0.27,0.41,yellow,1,0.14,-0.14,magenta,1,-0.14,-0.14,orange,1,-0.14,0.41,black,1,0.14,0.41,red,1,0.27,-0.14,green,1,-0.27,-0.27,cyan,1,-0.41,0.41,blue,1,0.05,0.05,0.15,0.14,-0.14,magenta,k,684262,23,2020-08-05_19h07.32.204,CDT_GNG_IUS12,2020.1.2,Win32,60,l,0,0.7334,0,55,55,81,1,,,,,,,,,,,,,,,,,,,,,,,,,,,,,,,,,,,,,,,,,,,,,,,
,,,,,,,,,,,,66,same,8,0.27,0.27,magenta,1,0.14,-0.41,green,1,-0.27,-0.14,yellow,1,-0.14,0.27,orange,1,0.41,0.41,red,1,0.14,-0.14,cyan,1,-0.14,-0.27,black,1,-0.27,0.41,blue,1,0.05,0.05,0.15,0.41,0.41,red,k,684262,23,2020-08-05_19h07.32.204,CDT_GNG_IUS12,2020.1.2,Win32,60,k,1,0.80409,0,56,56,65,1,,,,,,,,,,,,,,,,,,,,,,,,,,,,,,,,,,,,,,,,,,,,,,,
,,,,,,,,,,,,51,different,4,0.41,0.41,yellow,1,0.14,-0.27,red,1,-0.14,-0.27,cyan,1,-0.41,0.14,orange,1,0.14,0.41,green,0,0.27,-0.41,black,0,-0.27,-0.14,blue,0,-0.41,0.27,magenta,0,0.05,0.05,0.15,0.41,0.41,red,l,684262,23,2020-08-05_19h07.32.204,CDT_GNG_IUS12,2020.1.2,Win32,60,k,0,0.41727,0,57,57,50,1,,,,,,,,,,,,,,,,,,,,,,,,,,,,,,,,,,,,,,,,,,,,,,,
,,,,,,,,,,,,57,different,4,0.14,0.41,black,1,0.14,-0.14,blue,1,-0.41,-0.14,red,1,-0.41,0.14,orange,1,0.41,0.41,magenta,0,0.41,-0.14,cyan,0,-0.14,-0.27,yellow,0,-0.27,0.41,green,0,0.05,0.05,0.15,-0.41,0.14,blue,l,684262,23,2020-08-05_19h07.32.204,CDT_GNG_IUS12,2020.1.2,Win32,60,k,0,0.153375,0,58,58,56,1,,,,,,,,,,,,,,,,,,,,,,,,,,,,,,,,,,,,,,,,,,,,,,,
,,,,,,,,,,,,86,same,8,0.41,0.27,magenta,1,0.14,-0.14,green,1,-0.14,-0.41,orange,1,-0.14,0.41,red,1,0.27,0.14,black,1,0.14,-0.41,cyan,1,-0.41,-0.27,yellow,1,-0.27,0.14,blue,1,0.05,0.05,0.15,0.14,-0.41,cyan,k,684262,23,2020-08-05_19h07.32.204,CDT_GNG_IUS12,2020.1.2,Win32,60,k,1,0.403565,0,59,59,85,1,,,,,,,,,,,,,,,,,,,,,,,,,,,,,,,,,,,,,,,,,,,,,,,
,,,,,,,,,,,,113,different,8,0.41,0.27,magenta,1,0.27,-0.27,red,1,-0.41,-0.41,yellow,1,-0.14,0.27,green,1,0.41,0.14,orange,1,0.14,-0.41,blue,1,-0.14,-0.41,black,1,-0.41,0.27,cyan,1,0.05,0.05,0.15,0.41,0.14,yellow,l,684262,23,2020-08-05_19h07.32.204,CDT_GNG_IUS12,2020.1.2,Win32,60,k,0,0.22182,0,60,60,112,1,,,,,,,,,,,,,,,,,,,,,,,,,,,,,,,,,,,,,,,,,,,,,,,
,,,,,,,,,,,,7,same,4,0.41,0.41,yellow,1,0.41,-0.41,blue,1,-0.14,-0.41,black,1,-0.14,0.14,magenta,1,0.27,0.41,red,0,0.41,-0.27,green,0,-0.41,-0.14,cyan,0,-0.14,0.27,orange,0,0.05,0.05,0.15,-0.14,0.14,magenta,k,684262,23,2020-08-05_19h07.32.204,CDT_GNG_IUS12,2020.1.2,Win32,60,k,1,0.757915,0,61,61,6,1,,,,,,,,,,,,,,,,,,,,,,,,,,,,,,,,,,,,,,,,,,,,,,,
,,,,,,,,,,,,84,same,8,0.27,0.14,magenta,1,0.14,-0.14,yellow,1,-0.14,-0.14,blue,1,-0.27,0.27,red,1,0.41,0.14,cyan,1,0.41,-0.27,orange,1,-0.14,-0.27,black,1,-0.41,0.14,green,1,0.05,0.05,0.15,-0.27,0.27,red,k,684262,23,2020-08-05_19h07.32.204,CDT_GNG_IUS12,2020.1.2,Win32,60,l,0,0.82008,0,62,62,83,1,,,,,,,,,,,,,,,,,,,,,,,,,,,,,,,,,,,,,,,,,,,,,,,
,,,,,,,,,,,,31,different,4,0.27,0.41,orange,1,0.14,-0.14,black,1,-0.41,-0.41,yellow,1,-0.41,0.27,cyan,1,0.27,0.14,green,0,0.41,-0.27,blue,0,-0.14,-0.41,red,0,-0.41,0.14,magenta,0,0.05,0.05,0.15,-0.41,0.27,yellow,l,684262,23,2020-08-05_19h07.32.204,CDT_GNG_IUS12,2020.1.2,Win32,60,l,1,0.368155,0,63,63,30,1,,,,,,,,,,,,,,,,,,,,,,,,,,,,,,,,,,,,,,,,,,,,,,,
,,,,,,,,,,,,109,different,8,0.41,0.14,yellow,1,0.27,-0.27,cyan,1,-0.14,-0.27,magenta,1,-0.27,0.14,orange,1,0.41,0.41,green,1,0.27,-0.41,red,1,-0.27,-0.41,black,1,-0.27,0.41,blue,1,0.05,0.05,0.15,0.27,-0.27,green,l,684262,23,2020-08-05_19h07.32.204,CDT_GNG_IUS12,2020.1.2,Win32,60,l,1,0.356575,0,64,64,108,1,,,,,,,,,,,,,,,,,,,,,,,,,,,,,,,,,,,,,,,,,,,,,,,
,,,,,,,,,,,,58,different,4,0.14,0.41,blue,1,0.14,-0.14,black,1,-0.14,-0.14,yellow,1,-0.27,0.41,magenta,1,0.27,0.41,red,0,0.14,-0.27,cyan,0,-0.41,-0.27,orange,0,-0.27,0.27,green,0,0.05,0.05,0.15,0.14,0.41,yellow,l,684262,23,2020-08-05_19h07.32.204,CDT_GNG_IUS12,2020.1.2,Win32,60,l,1,0.28388,0,65,65,57,1,,,,,,,,,,,,,,,,,,,,,,,,,,,,,,,,,,,,,,,,,,,,,,,
,,,,,,,,,,,,118,different,8,0.14,0.14,red,1,0.27,-0.27,yellow,1,-0.27,-0.14,orange,1,-0.41,0.41,magenta,1,0.27,0.27,cyan,1,0.14,-0.41,green,1,-0.27,-0.41,blue,1,-0.41,0.14,black,1,0.05,0.05,0.15,-0.27,-0.41,black,l,684262,23,2020-08-05_19h07.32.204,CDT_GNG_IUS12,2020.1.2,Win32,60,k,0,0.41768,0,66,66,117,1,,,,,,,,,,,,,,,,,,,,,,,,,,,,,,,,,,,,,,,,,,,,,,,
,,,,,,,,,,,,55,different,4,0.14,0.14,black,1,0.41,-0.14,cyan,1,-0.27,-0.27,magenta,1,-0.14,0.41,blue,1,0.27,0.14,yellow,0,0.14,-0.27,red,0,-0.27,-0.41,orange,0,-0.27,0.41,green,0,0.05,0.05,0.15,0.14,0.14,yellow,l,684262,23,2020-08-05_19h07.32.204,CDT_GNG_IUS12,2020.1.2,Win32,60,l,1,0.11751,0,67,67,54,1,,,,,,,,,,,,,,,,,,,,,,,,,,,,,,,,,,,,,,,,,,,,,,,
,,,,,,,,,,,,33,different,4,0.27,0.41,magenta,1,0.41,-0.41,red,1,-0.27,-0.41,yellow,1,-0.14,0.41,black,1,0.14,0.41,blue,0,0.14,-0.41,orange,0,-0.41,-0.14,cyan,0,-0.41,0.27,green,0,0.05,0.05,0.15,0.27,0.41,black,l,684262,23,2020-08-05_19h07.32.204,CDT_GNG_IUS12,2020.1.2,Win32,60,l,1,0.25137,0,68,68,32,1,,,,,,,,,,,,,,,,,,,,,,,,,,,,,,,,,,,,,,,,,,,,,,,
,,,,,,,,,,,,106,different,8,0.41,0.41,black,1,0.14,-0.41,yellow,1,-0.41,-0.14,orange,1,-0.27,0.27,blue,1,0.14,0.41,red,1,0.41,-0.27,green,1,-0.14,-0.14,cyan,1,-0.14,0.14,magenta,1,0.05,0.05,0.15,-0.41,-0.14,green,l,684262,23,2020-08-05_19h07.32.204,CDT_GNG_IUS12,2020.1.2,Win32,60,k,0,0.55128,0,69,69,105,1,,,,,,,,,,,,,,,,,,,,,,,,,,,,,,,,,,,,,,,,,,,,,,,
,,,,,,,,,,,,100,different,8,0.41,0.27,black,1,0.41,-0.27,red,1,-0.14,-0.27,magenta,1,-0.14,0.27,orange,1,0.14,0.27,blue,1,0.27,-0.14,yellow,1,-0.41,-0.14,cyan,1,-0.41,0.14,green,1,0.05,0.05,0.15,0.41,0.27,orange,l,684262,23,2020-08-05_19h07.32.204,CDT_GNG_IUS12,2020.1.2,Win32,60,l,1,0.938705,0,70,70,99,1,,,,,,,,,,,,,,,,,,,,,,,,,,,,,,,,,,,,,,,,,,,,,,,
,,,,,,,,,,,,18,same,4,0.41,0.27,orange,1,0.14,-0.27,blue,1,-0.27,-0.41,yellow,1,-0.41,0.27,magenta,1,0.14,0.41,red,0,0.14,-0.14,black,0,-0.41,-0.27,green,0,-0.41,0.41,cyan,0,0.05,0.05,0.15,0.14,-0.27,blue,k,684262,23,2020-08-05_19h07.32.204,CDT_GNG_IUS12,2020.1.2,Win32,60,k,1,0.400055,0,71,71,17,1,,,,,,,,,,,,,,,,,,,,,,,,,,,,,,,,,,,,,,,,,,,,,,,
,,,,,,,,,,,,21,same,4,0.41,0.27,magenta,1,0.27,-0.41,black,1,-0.27,-0.14,orange,1,-0.41,0.41,green,1,0.27,0.14,yellow,0,0.27,-0.14,cyan,0,-0.27,-0.27,red,0,-0.41,0.27,blue,0,0.05,0.05,0.15,0.27,-0.41,black,k,684262,23,2020-08-05_19h07.32.204,CDT_GNG_IUS12,2020.1.2,Win32,60,l,0,0.15065,0,72,72,20,1,,,,,,,,,,,,,,,,,,,,,,,,,,,,,,,,,,,,,,,,,,,,,,,
,,,,,,,,,,,,117,different,8,0.14,0.41,black,1,0.14,-0.41,cyan,1,-0.41,-0.27,magenta,1,-0.27,0.41,yellow,1,0.41,0.27,orange,1,0.41,-0.14,red,1,-0.27,-0.27,green,1,-0.14,0.14,blue,1,0.05,0.05,0.15,0.41,-0.14,black,l,684262,23,2020-08-05_19h07.32.204,CDT_GNG_IUS12,2020.1.2,Win32,60,k,0,0.25085,0,73,73,116,1,,,,,,,,,,,,,,,,,,,,,,,,,,,,,,,,,,,,,,,,,,,,,,,
,,,,,,,,,,,,93,different,8,0.14,0.41,blue,1,0.14,-0.27,red,1,-0.41,-0.14,magenta,1,-0.14,0.27,black,1,0.41,0.27,yellow,1,0.41,-0.14,orange,1,-0.27,-0.14,green,1,-0.14,0.41,cyan,1,0.05,0.05,0.15,0.41,-0.14,blue,l,684262,23,2020-08-05_19h07.32.204,CDT_GNG_IUS12,2020.1.2,Win32,60,l,1,0.24143,0,74,74,92,1,,,,,,,,,,,,,,,,,,,,,,,,,,,,,,,,,,,,,,,,,,,,,,,
,,,,,,,,,,,,99,different,8,0.14,0.27,blue,1,0.41,-0.41,yellow,1,-0.14,-0.14,green,1,-0.41,0.14,black,1,0.41,0.27,red,1,0.27,-0.27,magenta,1,-0.27,-0.27,orange,1,-0.27,0.27,cyan,1,0.05,0.05,0.15,0.14,0.27,black,l,684262,23,2020-08-05_19h07.32.204,CDT_GNG_IUS12,2020.1.2,Win32,60,k,0,0.257525,0,75,75,98,1,,,,,,,,,,,,,,,,,,,,,,,,,,,,,,,,,,,,,,,,,,,,,,,
,,,,,,,,,,,,48,different,4,0.14,0.27,red,1,0.27,-0.14,yellow,1,-0.27,-0.41,magenta,1,-0.41,0.14,green,1,0.14,0.14,orange,0,0.41,-0.14,cyan,0,-0.27,-0.27,black,0,-0.41,0.41,blue,0,0.05,0.05,0.15,0.14,0.27,blue,l,684262,23,2020-08-05_19h07.32.204,CDT_GNG_IUS12,2020.1.2,Win32,60,l,1,0.28643,0,76,76,47,1,,,,,,,,,,,,,,,,,,,,,,,,,,,,,,,,,,,,,,,,,,,,,,,
,,,,,,,,,,,,88,same,8,0.27,0.41,red,1,0.41,-0.14,cyan,1,-0.14,-0.14,green,1,-0.41,0.41,orange,1,0.14,0.27,magenta,1,0.27,-0.27,yellow,1,-0.41,-0.41,black,1,-0.27,0.41,blue,1,0.05,0.05,0.15,-0.41,0.41,orange,k,684262,23,2020-08-05_19h07.32.204,CDT_GNG_IUS12,2020.1.2,Win32,60,k,1,0.38355,0,77,77,87,1,,,,,,,,,,,,,,,,,,,,,,,,,,,,,,,,,,,,,,,,,,,,,,,
,,,,,,,,,,,,62,same,8,0.41,0.14,red,1,0.14,-0.27,cyan,1,-0.41,-0.27,orange,1,-0.27,0.27,magenta,1,0.14,0.27,green,1,0.14,-0.14,blue,1,-0.27,-0.41,black,1,-0.41,0.14,yellow,1,0.05,0.05,0.15,-0.27,0.27,magenta,k,684262,23,2020-08-05_19h07.32.204,CDT_GNG_IUS12,2020.1.2,Win32,60,l,0,0.301345,0,78,78,61,1,,,,,,,,,,,,,,,,,,,,,,,,,,,,,,,,,,,,,,,,,,,,,,,
,,,,,,,,,,,,70,same,8,0.41,0.41,black,1,0.14,-0.27,red,1,-0.41,-0.41,magenta,1,-0.27,0.41,green,1,0.27,0.14,yellow,1,0.41,-0.41,orange,1,-0.27,-0.14,blue,1,-0.27,0.27,cyan,1,0.05,0.05,0.15,0.14,-0.27,red,k,684262,23,2020-08-05_19h07.32.204,CDT_GNG_IUS12,2020.1.2,Win32,60,k,1,0.417135,0,79,79,69,1,,,,,,,,,,,,,,,,,,,,,,,,,,,,,,,,,,,,,,,,,,,,,,,
,,,,,,,,,,,,59,different,4,0.27,0.41,black,1,0.41,-0.14,blue,1,-0.27,-0.27,cyan,1,-0.14,0.41,green,1,0.14,0.27,red,0,0.41,-0.41,magenta,0,-0.14,-0.27,orange,0,-0.41,0.27,yellow,0,0.05,0.05,0.15,0.27,0.41,yellow,l,684262,23,2020-08-05_19h07.32.204,CDT_GNG_IUS12,2020.1.2,Win32,60,k,0,0.50499,0,80,80,58,1,,,,,,,,,,,,,,,,,,,,,,,,,,,,,,,,,,,,,,,,,,,,,,,
,,,,,,,,,,,,64,same,8,0.41,0.14,green,1,0.14,-0.41,cyan,1,-0.14,-0.14,yellow,1,-0.14,0.27,red,1,0.27,0.14,blue,1,0.27,-0.27,magenta,1,-0.14,-0.27,orange,1,-0.14,0.41,black,1,0.05,0.05,0.15,-0.14,0.27,red,k,684262,23,2020-08-05_19h07.32.204,CDT_GNG_IUS12,2020.1.2,Win32,60,l,0,0.100545,0,81,81,63,1,,,,,,,,,,,,,,,,,,,,,,,,,,,,,,,,,,,,,,,,,,,,,,,
,,,,,,,,,,,,61,same,8,0.41,0.41,orange,1,0.41,-0.41,magenta,1,-0.27,-0.41,blue,1,-0.14,0.27,yellow,1,0.14,0.41,red,1,0.14,-0.27,black,1,-0.41,-0.41,cyan,1,-0.27,0.14,green,1,0.05,0.05,0.15,-0.27,-0.41,blue,k,684262,23,2020-08-05_19h07.32.204,CDT_GNG_IUS12,2020.1.2,Win32,60,k,1,0.350405,0,82,82,60,1,,,,,,,,,,,,,,,,,,,,,,,,,,,,,,,,,,,,,,,,,,,,,,,
,,,,,,,,,,,,87,same,8,0.27,0.14,red,1,0.14,-0.14,yellow,1,-0.27,-0.14,orange,1,-0.27,0.27,magenta,1,0.41,0.27,blue,1,0.41,-0.41,green,1,-0.27,-0.27,black,1,-0.14,0.27,cyan,1,0.05,0.05,0.15,0.41,-0.41,green,k,684262,23,2020-08-05_19h07.32.204,CDT_GNG_IUS12,2020.1.2,Win32,60,l,0,0.400585,0,83,83,86,1,,,,,,,,,,,,,,,,,,,,,,,,,,,,,,,,,,,,,,,,,,,,,,,
,,,,,,,,,,,,103,different,8,0.14,0.14,black,1,0.14,-0.27,cyan,1,-0.41,-0.41,green,1,-0.41,0.27,red,1,0.27,0.41,orange,1,0.27,-0.27,blue,1,-0.41,-0.14,magenta,1,-0.41,0.41,yellow,1,0.05,0.05,0.15,0.27,-0.27,magenta,l,684262,23,2020-08-05_19h07.32.204,CDT_GNG_IUS12,2020.1.2,Win32,60,k,0,0.401145,0,84,84,102,1,,,,,,,,,,,,,,,,,,,,,,,,,,,,,,,,,,,,,,,,,,,,,,,
,,,,,,,,,,,,43,different,4,0.27,0.27,red,1,0.14,-0.27,orange,1,-0.41,-0.14,green,1,-0.27,0.27,cyan,1,0.41,0.41,black,0,0.27,-0.14,magenta,0,-0.41,-0.41,yellow,0,-0.41,0.41,blue,0,0.05,0.05,0.15,-0.41,-0.14,magenta,l,684262,23,2020-08-05_19h07.32.204,CDT_GNG_IUS12,2020.1.2,Win32,60,k,0,0.422055,0,85,85,42,1,,,,,,,,,,,,,,,,,,,,,,,,,,,,,,,,,,,,,,,,,,,,,,,
,,,,,,,,,,,,85,same,8,0.14,0.41,green,1,0.14,-0.41,magenta,1,-0.41,-0.14,black,1,-0.14,0.27,blue,1,0.27,0.27,orange,1,0.41,-0.41,red,1,-0.27,-0.14,cyan,1,-0.41,0.27,yellow,1,0.05,0.05,0.15,0.27,0.27,orange,k,684262,23,2020-08-05_19h07.32.204,CDT_GNG_IUS12,2020.1.2,Win32,60,k,1,0.30563,0,86,86,84,1,,,,,,,,,,,,,,,,,,,,,,,,,,,,,,,,,,,,,,,,,,,,,,,
,,,,,,,,,,,,104,different,8,0.41,0.41,cyan,1,0.41,-0.41,blue,1,-0.27,-0.14,green,1,-0.27,0.14,orange,1,0.14,0.41,red,1,0.27,-0.27,yellow,1,-0.41,-0.27,magenta,1,-0.14,0.41,black,1,0.05,0.05,0.15,-0.14,0.41,magenta,l,684262,23,2020-08-05_19h07.32.204,CDT_GNG_IUS12,2020.1.2,Win32,60,l,1,0.40026,0,87,87,103,1,,,,,,,,,,,,,,,,,,,,,,,,,,,,,,,,,,,,,,,,,,,,,,,
,,,,,,,,,,,,32,different,4,0.41,0.27,orange,1,0.41,-0.41,green,1,-0.14,-0.14,cyan,1,-0.41,0.41,red,1,0.27,0.41,black,0,0.27,-0.41,magenta,0,-0.27,-0.14,blue,0,-0.14,0.14,yellow,0,0.05,0.05,0.15,-0.14,-0.14,blue,l,684262,23,2020-08-05_19h07.32.204,CDT_GNG_IUS12,2020.1.2,Win32,60,l,1,0.523735,0,88,88,31,1,,,,,,,,,,,,,,,,,,,,,,,,,,,,,,,,,,,,,,,,,,,,,,,
,,,,,,,,,,,,15,same,4,0.41,0.14,magenta,1,0.41,-0.27,blue,1,-0.27,-0.14,yellow,1,-0.14,0.41,green,1,0.41,0.27,red,0,0.14,-0.14,orange,0,-0.14,-0.14,cyan,0,-0.27,0.27,black,0,0.05,0.05,0.15,-0.14,0.41,green,k,684262,23,2020-08-05_19h07.32.204,CDT_GNG_IUS12,2020.1.2,Win32,60,l,0,0.501,0,89,89,14,1,,,,,,,,,,,,,,,,,,,,,,,,,,,,,,,,,,,,,,,,,,,,,,,
,,,,,,,,,,,,10,same,4,0.14,0.41,magenta,1,0.41,-0.14,black,1,-0.27,-0.27,orange,1,-0.41,0.27,green,1,0.27,0.41,blue,0,0.41,-0.41,yellow,0,-0.41,-0.41,cyan,0,-0.27,0.27,red,0,0.05,0.05,0.15,0.41,-0.14,black,k,684262,23,2020-08-05_19h07.32.204,CDT_GNG_IUS12,2020.1.2,Win32,60,l,0,0.43833,0,90,90,9,1,,,,,,,,,,,,,,,,,,,,,,,,,,,,,,,,,,,,,,,,,,,,,,,
,,,,,,,,,,,,114,different,8,0.41,0.41,yellow,1,0.14,-0.41,red,1,-0.41,-0.41,blue,1,-0.27,0.14,cyan,1,0.41,0.27,black,1,0.27,-0.41,green,1,-0.14,-0.41,orange,1,-0.14,0.41,magenta,1,0.05,0.05,0.15,-0.14,0.41,orange,l,684262,23,2020-08-05_19h07.32.204,CDT_GNG_IUS12,2020.1.2,Win32,60,l,1,0.557245,0,91,91,113,1,,,,,,,,,,,,,,,,,,,,,,,,,,,,,,,,,,,,,,,,,,,,,,,
,,,,,,,,,,,,54,different,4,0.14,0.14,yellow,1,0.41,-0.41,magenta,1,-0.14,-0.41,black,1,-0.14,0.27,orange,1,0.41,0.27,cyan,0,0.41,-0.27,red,0,-0.27,-0.14,green,0,-0.27,0.27,blue,0,0.05,0.05,0.15,0.41,-0.41,cyan,l,684262,23,2020-08-05_19h07.32.204,CDT_GNG_IUS12,2020.1.2,Win32,60,l,1,0.436565,0,92,92,53,1,,,,,,,,,,,,,,,,,,,,,,,,,,,,,,,,,,,,,,,,,,,,,,,
,,,,,,,,,,,,28,same,4,0.41,0.41,magenta,1,0.27,-0.14,blue,1,-0.14,-0.14,red,1,-0.14,0.41,orange,1,0.14,0.14,black,0,0.41,-0.14,green,0,-0.27,-0.14,yellow,0,-0.14,0.27,cyan,0,0.05,0.05,0.15,0.27,-0.14,blue,k,684262,23,2020-08-05_19h07.32.204,CDT_GNG_IUS12,2020.1.2,Win32,60,k,1,0.467625,0,93,93,27,1,,,,,,,,,,,,,,,,,,,,,,,,,,,,,,,,,,,,,,,,,,,,,,,
,,,,,,,,,,,,116,different,8,0.27,0.14,green,1,0.41,-0.14,black,1,-0.27,-0.41,magenta,1,-0.41,0.14,cyan,1,0.41,0.41,blue,1,0.41,-0.27,yellow,1,-0.41,-0.27,red,1,-0.27,0.14,orange,1,0.05,0.05,0.15,0.41,-0.27,magenta,l,684262,23,2020-08-05_19h07.32.204,CDT_GNG_IUS12,2020.1.2,Win32,60,l,1,0.40132,0,94,94,115,1,,,,,,,,,,,,,,,,,,,,,,,,,,,,,,,,,,,,,,,,,,,,,,,
,,,,,,,,,,,,80,same,8,0.41,0.14,red,1,0.41,-0.14,blue,1,-0.41,-0.41,black,1,-0.41,0.14,green,1,0.14,0.41,orange,1,0.27,-0.41,cyan,1,-0.41,-0.14,magenta,1,-0.41,0.41,yellow,1,0.05,0.05,0.15,0.27,-0.41,cyan,k,684262,23,2020-08-05_19h07.32.204,CDT_GNG_IUS12,2020.1.2,Win32,60,k,1,0.65649,0,95,95,79,1,,,,,,,,,,,,,,,,,,,,,,,,,,,,,,,,,,,,,,,,,,,,,,,
,,,,,,,,,,,,69,same,8,0.27,0.14,magenta,1,0.27,-0.41,yellow,1,-0.14,-0.41,green,1,-0.14,0.41,orange,1,0.14,0.41,red,1,0.14,-0.27,black,1,-0.14,-0.27,blue,1,-0.27,0.14,cyan,1,0.05,0.05,0.15,0.14,-0.27,black,k,684262,23,2020-08-05_19h07.32.204,CDT_GNG_IUS12,2020.1.2,Win32,60,l,0,0.32612,0,96,96,68,1,,,,,,,,,,,,,,,,,,,,,,,,,,,,,,,,,,,,,,,,,,,,,,,
,,,,,,,,,,,,25,same,4,0.41,0.27,cyan,1,0.27,-0.27,yellow,1,-0.41,-0.14,black,1,-0.14,0.27,blue,1,0.41,0.14,green,0,0.14,-0.41,magenta,0,-0.41,-0.41,orange,0,-0.27,0.41,red,0,0.05,0.05,0.15,0.27,-0.27,yellow,k,684262,23,2020-08-05_19h07.32.204,CDT_GNG_IUS12,2020.1.2,Win32,60,l,0,0.50965,0,97,97,24,1,,,,,,,,,,,,,,,,,,,,,,,,,,,,,,,,,,,,,,,,,,,,,,,
,,,,,,,,,,,,24,same,4,0.41,0.27,green,1,0.14,-0.27,black,1,-0.27,-0.27,yellow,1,-0.14,0.14,orange,1,0.41,0.14,blue,0,0.14,-0.14,cyan,0,-0.41,-0.14,red,0,-0.27,0.41,magenta,0,0.05,0.05,0.15,-0.14,0.14,orange,k,684262,23,2020-08-05_19h07.32.204,CDT_GNG_IUS12,2020.1.2,Win32,60,l,0,0.65585,0,98,98,23,1,,,,,,,,,,,,,,,,,,,,,,,,,,,,,,,,,,,,,,,,,,,,,,,
,,,,,,,,,,,,94,different,8,0.41,0.27,yellow,1,0.41,-0.27,blue,1,-0.41,-0.14,magenta,1,-0.41,0.27,orange,1,0.41,0.41,red,1,0.41,-0.41,green,1,-0.14,-0.14,black,1,-0.41,0.14,cyan,1,0.05,0.05,0.15,-0.41,0.14,black,l,684262,23,2020-08-05_19h07.32.204,CDT_GNG_IUS12,2020.1.2,Win32,60,k,0,0.372095,0,99,99,93,1,,,,,,,,,,,,,,,,,,,,,,,,,,,,,,,,,,,,,,,,,,,,,,,
,,,,,,,,,,,,19,same,4,0.27,0.41,blue,1,0.14,-0.41,red,1,-0.14,-0.27,black,1,-0.14,0.27,magenta,1,0.27,0.14,yellow,0,0.27,-0.14,orange,0,-0.14,-0.41,green,0,-0.14,0.14,cyan,0,0.05,0.05,0.15,0.27,0.41,blue,k,684262,23,2020-08-05_19h07.32.204,CDT_GNG_IUS12,2020.1.2,Win32,60,l,0,0.07397,0,100,100,18,1,,,,,,,,,,,,,,,,,,,,,,,,,,,,,,,,,,,,,,,,,,,,,,,
,,,,,,,,,,,,29,same,4,0.14,0.27,black,1,0.41,-0.14,blue,1,-0.41,-0.14,magenta,1,-0.27,0.27,green,1,0.27,0.27,yellow,0,0.41,-0.41,orange,0,-0.41,-0.27,cyan,0,-0.14,0.14,red,0,0.05,0.05,0.15,0.41,-0.14,blue,k,684262,23,2020-08-05_19h07.32.204,CDT_GNG_IUS12,2020.1.2,Win32,60,k,1,0.473755,0,101,101,28,1,,,,,,,,,,,,,,,,,,,,,,,,,,,,,,,,,,,,,,,,,,,,,,,
,,,,,,,,,,,,46,different,4,0.14,0.14,red,1,0.14,-0.14,green,1,-0.14,-0.41,orange,1,-0.27,0.41,blue,1,0.41,0.27,cyan,0,0.14,-0.27,magenta,0,-0.14,-0.14,black,0,-0.41,0.27,yellow,0,0.05,0.05,0.15,-0.14,-0.41,blue,l,684262,23,2020-08-05_19h07.32.204,CDT_GNG_IUS12,2020.1.2,Win32,60,k,0,0.500455,0,102,102,45,1,,,,,,,,,,,,,,,,,,,,,,,,,,,,,,,,,,,,,,,,,,,,,,,
,,,,,,,,,,,,83,same,8,0.14,0.27,yellow,1,0.27,-0.41,orange,1,-0.27,-0.41,green,1,-0.41,0.14,cyan,1,0.41,0.27,blue,1,0.14,-0.14,magenta,1,-0.14,-0.14,red,1,-0.41,0.41,black,1,0.05,0.05,0.15,-0.41,0.41,black,k,684262,23,2020-08-05_19h07.32.204,CDT_GNG_IUS12,2020.1.2,Win32,60,k,1,0.389005,0,103,103,82,1,,,,,,,,,,,,,,,,,,,,,,,,,,,,,,,,,,,,,,,,,,,,,,,
,,,,,,,,,,,,91,different,8,0.27,0.27,red,1,0.41,-0.14,orange,1,-0.14,-0.27,green,1,-0.27,0.27,yellow,1,0.14,0.27,cyan,1,0.14,-0.14,black,1,-0.41,-0.41,blue,1,-0.14,0.41,magenta,1,0.05,0.05,0.15,-0.14,0.41,yellow,l,684262,23,2020-08-05_19h07.32.204,CDT_GNG_IUS12,2020.1.2,Win32,60,k,0,0.51737,0,104,104,90,1,,,,,,,,,,,,,,,,,,,,,,,,,,,,,,,,,,,,,,,,,,,,,,,
,,,,,,,,,,,,102,different,8,0.14,0.27,yellow,1,0.14,-0.41,green,1,-0.41,-0.27,red,1,-0.14,0.41,orange,1,0.41,0.41,magenta,1,0.27,-0.41,blue,1,-0.27,-0.41,cyan,1,-0.27,0.27,black,1,0.05,0.05,0.15,-0.27,0.27,yellow,l,684262,23,2020-08-05_19h07.32.204,CDT_GNG_IUS12,2020.1.2,Win32,60,k,0,0.38997,0,105,105,101,1,,,,,,,,,,,,,,,,,,,,,,,,,,,,,,,,,,,,,,,,,,,,,,,
,,,,,,,,,,,,39,different,4,0.41,0.27,green,1,0.41,-0.27,yellow,1,-0.27,-0.27,orange,1,-0.14,0.14,cyan,1,0.14,0.14,magenta,0,0.27,-0.41,blue,0,-0.14,-0.27,red,0,-0.41,0.27,black,0,0.05,0.05,0.15,-0.14,0.14,green,l,684262,23,2020-08-05_19h07.32.204,CDT_GNG_IUS12,2020.1.2,Win32,60,k,0,0.274575,0,106,106,38,1,,,,,,,,,,,,,,,,,,,,,,,,,,,,,,,,,,,,,,,,,,,,,,,
,,,,,,,,,,,,56,different,4,0.27,0.14,yellow,1,0.41,-0.14,blue,1,-0.14,-0.27,green,1,-0.41,0.14,cyan,1,0.14,0.14,magenta,0,0.41,-0.41,red,0,-0.41,-0.14,orange,0,-0.41,0.27,black,0,0.05,0.05,0.15,-0.14,-0.27,magenta,l,684262,23,2020-08-05_19h07.32.204,CDT_GNG_IUS12,2020.1.2,Win32,60,k,0,0.49035,0,107,107,55,1,,,,,,,,,,,,,,,,,,,,,,,,,,,,,,,,,,,,,,,,,,,,,,,
,,,,,,,,,,,,112,different,8,0.27,0.41,magenta,1,0.14,-0.41,green,1,-0.14,-0.14,black,1,-0.27,0.27,cyan,1,0.41,0.41,red,1,0.14,-0.27,blue,1,-0.41,-0.14,orange,1,-0.14,0.14,yellow,1,0.05,0.05,0.15,0.41,0.41,blue,l,684262,23,2020-08-05_19h07.32.204,CDT_GNG_IUS12,2020.1.2,Win32,60,k,0,0.417135,0,108,108,111,1,,,,,,,,,,,,,,,,,,,,,,,,,,,,,,,,,,,,,,,,,,,,,,,
,,,,,,,,,,,,14,same,4,0.27,0.41,cyan,1,0.27,-0.41,black,1,-0.27,-0.27,yellow,1,-0.27,0.27,green,1,0.41,0.41,blue,0,0.14,-0.27,red,0,-0.14,-0.14,orange,0,-0.41,0.41,magenta,0,0.05,0.05,0.15,0.27,-0.41,black,k,684262,23,2020-08-05_19h07.32.204,CDT_GNG_IUS12,2020.1.2,Win32,60,k,1,0.269005,0,109,109,13,1,,,,,,,,,,,,,,,,,,,,,,,,,,,,,,,,,,,,,,,,,,,,,,,
,,,,,,,,,,,,89,same,8,0.14,0.14,blue,1,0.14,-0.27,orange,1,-0.14,-0.27,yellow,1,-0.41,0.27,red,1,0.27,0.27,cyan,1,0.14,-0.14,green,1,-0.14,-0.41,magenta,1,-0.41,0.41,black,1,0.05,0.05,0.15,0.14,-0.27,orange,k,684262,23,2020-08-05_19h07.32.204,CDT_GNG_IUS12,2020.1.2,Win32,60,k,1,0.539255,0,110,110,88,1,,,,,,,,,,,,,,,,,,,,,,,,,,,,,,,,,,,,,,,,,,,,,,,
,,,,,,,,,,,,68,same,8,0.14,0.27,green,1,0.41,-0.27,magenta,1,-0.14,-0.27,cyan,1,-0.41,0.14,red,1,0.41,0.14,yellow,1,0.27,-0.14,blue,1,-0.14,-0.41,orange,1,-0.14,0.14,black,1,0.05,0.05,0.15,0.27,-0.14,blue,k,684262,23,2020-08-05_19h07.32.204,CDT_GNG_IUS12,2020.1.2,Win32,60,k,1,0.317075,0,111,111,67,1,,,,,,,,,,,,,,,,,,,,,,,,,,,,,,,,,,,,,,,,,,,,,,,
,,,,,,,,,,,,4,same,4,0.41,0.27,magenta,1,0.27,-0.41,orange,1,-0.41,-0.41,red,1,-0.14,0.41,green,1,0.27,0.41,blue,0,0.14,-0.41,black,0,-0.27,-0.14,cyan,0,-0.41,0.27,yellow,0,0.05,0.05,0.15,0.27,-0.41,orange,k,684262,23,2020-08-05_19h07.32.204,CDT_GNG_IUS12,2020.1.2,Win32,60,k,1,0.75024,0,112,112,3,1,,,,,,,,,,,,,,,,,,,,,,,,,,,,,,,,,,,,,,,,,,,,,,,
,,,,,,,,,,,,3,same,4,0.27,0.14,green,1,0.27,-0.27,orange,1,-0.27,-0.41,yellow,1,-0.41,0.41,magenta,1,0.14,0.41,black,0,0.14,-0.41,red,0,-0.27,-0.14,cyan,0,-0.14,0.14,blue,0,0.05,0.05,0.15,-0.27,-0.41,yellow,k,684262,23,2020-08-05_19h07.32.204,CDT_GNG_IUS12,2020.1.2,Win32,60,k,1,0.119205,0,113,113,2,1,,,,,,,,,,,,,,,,,,,,,,,,,,,,,,,,,,,,,,,,,,,,,,,
,,,,,,,,,,,,6,same,4,0.41,0.27,orange,1,0.41,-0.14,magenta,1,-0.14,-0.27,black,1,-0.27,0.41,cyan,1,0.14,0.41,red,0,0.14,-0.41,blue,0,-0.14,-0.14,green,0,-0.41,0.41,yellow,0,0.05,0.05,0.15,-0.14,-0.27,black,k,684262,23,2020-08-05_19h07.32.204,CDT_GNG_IUS12,2020.1.2,Win32,60,k,1,0.50029,0,114,114,5,1,,,,,,,,,,,,,,,,,,,,,,,,,,,,,,,,,,,,,,,,,,,,,,,
,,,,,,,,,,,,111,different,8,0.27,0.14,red,1,0.41,-0.27,green,1,-0.27,-0.14,yellow,1,-0.14,0.14,orange,1,0.41,0.41,black,1,0.27,-0.27,cyan,1,-0.27,-0.41,blue,1,-0.27,0.14,magenta,1,0.05,0.05,0.15,-0.27,-0.41,red,l,684262,23,2020-08-05_19h07.32.204,CDT_GNG_IUS12,2020.1.2,Win32,60,k,0,0.6913,0,115,115,110,1,,,,,,,,,,,,,,,,,,,,,,,,,,,,,,,,,,,,,,,,,,,,,,,
,,,,,,,,,,,,26,same,4,0.14,0.14,black,1,0.14,-0.14,red,1,-0.41,-0.14,yellow,1,-0.14,0.41,orange,1,0.27,0.14,blue,0,0.14,-0.27,magenta,0,-0.27,-0.41,green,0,-0.14,0.27,cyan,0,0.05,0.05,0.15,-0.41,-0.14,yellow,k,684262,23,2020-08-05_19h07.32.204,CDT_GNG_IUS12,2020.1.2,Win32,60,k,1,0.450805,0,116,116,25,1,,,,,,,,,,,,,,,,,,,,,,,,,,,,,,,,,,,,,,,,,,,,,,,
,,,,,,,,,,,,81,same,8,0.27,0.14,yellow,1,0.41,-0.14,blue,1,-0.41,-0.14,green,1,-0.41,0.14,orange,1,0.14,0.41,red,1,0.14,-0.27,magenta,1,-0.14,-0.27,cyan,1,-0.14,0.14,black,1,0.05,0.05,0.15,-0.41,0.14,orange,k,684262,23,2020-08-05_19h07.32.204,CDT_GNG_IUS12,2020.1.2,Win32,60,l,0,0.505215,0,117,117,80,1,,,,,,,,,,,,,,,,,,,,,,,,,,,,,,,,,,,,,,,,,,,,,,,
,,,,,,,,,,,,95,different,8,0.41,0.41,black,1,0.14,-0.14,cyan,1,-0.14,-0.41,orange,1,-0.14,0.27,blue,1,0.41,0.27,magenta,1,0.14,-0.41,green,1,-0.27,-0.27,red,1,-0.41,0.14,yellow,1,0.05,0.05,0.15,-0.14,0.27,green,l,684262,23,2020-08-05_19h07.32.204,CDT_GNG_IUS12,2020.1.2,Win32,60,k,0,0.350485,0,118,118,94,1,,,,,,,,,,,,,,,,,,,,,,,,,,,,,,,,,,,,,,,,,,,,,,,
,,,,,,,,,,,,72,same,8,0.27,0.41,blue,1,0.41,-0.27,magenta,1,-0.41,-0.41,yellow,1,-0.27,0.41,black,1,0.41,0.41,cyan,1,0.27,-0.41,green,1,-0.41,-0.27,orange,1,-0.14,0.27,red,1,0.05,0.05,0.15,-0.14,0.27,red,k,684262,23,2020-08-05_19h07.32.204,CDT_GNG_IUS12,2020.1.2,Win32,60,l,0,0.41668,0,119,119,71,1,,,,,,,,,,,,,,,,,,,,,,,,,,,,,,,,,,,,,,,,,,,,,,,
,,,,,,,,,,,,,,,,,,,,,,,,,,,,,,,,,,,,,,,,,,,,,,,,,,,,,,684262,23,2020-08-05_19h07.32.204,CDT_GNG_IUS12,2020.1.2,Win32,60,,,,,,,,,,1,0,0,0,2,1,1,0,,,,,,,,,,,,,,,,,,,,,,,,,,,,,,,,,,,,,,
,,,,,,,,,,,,,,,,,,,,,,,,,,,,,,,,,,,,,,,,,,,,,,,,,,,,,space,684262,23,2020-08-05_19h07.32.204,CDT_GNG_IUS12,2020.1.2,Win32,60,,,,,,,,,,0,0,1,1,7,1,0,1,,,,,,,,,,,,,,,,,,,,,,,,,,,,,,,,,,,,,,
,,,,,,,,,,,,,,,,,,,,,,,,,,,,,,,,,,,,,,,,,,,,,,,,,,,,,space,684262,23,2020-08-05_19h07.32.204,CDT_GNG_IUS12,2020.1.2,Win32,60,,,,,,,,,,0,0,2,2,6,1,0,1,,,,,,,,,,,,,,,,,,,,,,,,,,,,,,,,,,,,,,
,,,,,,,,,,,,,,,,,,,,,,,,,,,,,,,,,,,,,,,,,,,,,,,,,,,,,space,684262,23,2020-08-05_19h07.32.204,CDT_GNG_IUS12,2020.1.2,Win32,60,,,,,,,,,,0,0,3,3,5,1,0,1,,,,,,,,,,,,,,,,,,,,,,,,,,,,,,,,,,,,,,
,,,,,,,,,,,,,,,,,,,,,,,,,,,,,,,,,,,,,,,,,,,,,,,,,,,,,,684262,23,2020-08-05_19h07.32.204,CDT_GNG_IUS12,2020.1.2,Win32,60,,,,,,,,,,1,0,4,4,3,1,1,0,,,,,,,,,,,,,,,,,,,,,,,,,,,,,,,,,,,,,,
,,,,,,,,,,,,,,,,,,,,,,,,,,,,,,,,,,,,,,,,,,,,,,,,,,,,,,684262,23,2020-08-05_19h07.32.204,CDT_GNG_IUS12,2020.1.2,Win32,60,,,,,,,,,,1,0,5,5,0,1,1,0,,,,,,,,,,,,,,,,,,,,,,,,,,,,,,,,,,,,,,
,,,,,,,,,,,,,,,,,,,,,,,,,,,,,,,,,,,,,,,,,,,,,,,,,,,,,space,684262,23,2020-08-05_19h07.32.204,CDT_GNG_IUS12,2020.1.2,Win32,60,,,,,,,,,,0,0,6,6,4,1,0,1,,,,,,,,,,,,,,,,,,,,,,,,,,,,,,,,,,,,,,
,,,,,,,,,,,,,,,,,,,,,,,,,,,,,,,,,,,,,,,,,,,,,,,,,,,,,,684262,23,2020-08-05_19h07.32.204,CDT_GNG_IUS12,2020.1.2,Win32,60,,,,,,,,,,1,0,7,7,1,1,1,0,,,,,,,,,,,,,,,,,,,,,,,,,,,,,,,,,,,,,,
,,,,,,,,,,,,,,,,,,,,,,,,,,,,,,,,,,,,,,,,,,,,,,,,,,,,,,684262,23,2020-08-05_19h07.32.204,CDT_GNG_IUS12,2020.1.2,Win32,60,,,,,,,,,,,,,,,,1,0,,1,0,0,0,8,1,,,,,,,,,,,,,,,,,,,,,,,,,,,,,,,
,,,,,,,,,,,,,,,,,,,,,,,,,,,,,,,,,,,,,,,,,,,,,,,,,,,,,space,684262,23,2020-08-05_19h07.32.204,CDT_GNG_IUS12,2020.1.2,Win32,60,,,,,,,,,,,,,,,,0,1,space,1,0,1,1,30,1,0.382225,,,,,,,,,,,,,,,,,,,,,,,,,,,,,,
,,,,,,,,,,,,,,,,,,,,,,,,,,,,,,,,,,,,,,,,,,,,,,,,,,,,,space,684262,23,2020-08-05_19h07.32.204,CDT_GNG_IUS12,2020.1.2,Win32,60,,,,,,,,,,,,,,,,0,1,,0,0,2,2,42,1,,,,,,,,,,,,,,,,,,,,,,,,,,,,,,,
,,,,,,,,,,,,,,,,,,,,,,,,,,,,,,,,,,,,,,,,,,,,,,,,,,,,,space,684262,23,2020-08-05_19h07.32.204,CDT_GNG_IUS12,2020.1.2,Win32,60,,,,,,,,,,,,,,,,0,1,space,1,0,3,3,13,1,0.09956,,,,,,,,,,,,,,,,,,,,,,,,,,,,,,
,,,,,,,,,,,,,,,,,,,,,,,,,,,,,,,,,,,,,,,,,,,,,,,,,,,,,space,684262,23,2020-08-05_19h07.32.204,CDT_GNG_IUS12,2020.1.2,Win32,60,,,,,,,,,,,,,,,,0,1,space,1,0,4,4,35,1,0.24819,,,,,,,,,,,,,,,,,,,,,,,,,,,,,,
,,,,,,,,,,,,,,,,,,,,,,,,,,,,,,,,,,,,,,,,,,,,,,,,,,,,,space,684262,23,2020-08-05_19h07.32.204,CDT_GNG_IUS12,2020.1.2,Win32,60,,,,,,,,,,,,,,,,0,1,space,1,0,5,5,24,1,0.27603,,,,,,,,,,,,,,,,,,,,,,,,,,,,,,
,,,,,,,,,,,,,,,,,,,,,,,,,,,,,,,,,,,,,,,,,,,,,,,,,,,,,,684262,23,2020-08-05_19h07.32.204,CDT_GNG_IUS12,2020.1.2,Win32,60,,,,,,,,,,,,,,,,1,0,,1,0,6,6,1,1,,,,,,,,,,,,,,,,,,,,,,,,,,,,,,,
,,,,,,,,,,,,,,,,,,,,,,,,,,,,,,,,,,,,,,,,,,,,,,,,,,,,,,684262,23,2020-08-05_19h07.32.204,CDT_GNG_IUS12,2020.1.2,Win32,60,,,,,,,,,,,,,,,,1,0,,1,0,7,7,7,1,,,,,,,,,,,,,,,,,,,,,,,,,,,,,,,
,,,,,,,,,,,,,,,,,,,,,,,,,,,,,,,,,,,,,,,,,,,,,,,,,,,,,space,684262,23,2020-08-05_19h07.32.204,CDT_GNG_IUS12,2020.1.2,Win32,60,,,,,,,,,,,,,,,,0,1,space,1,0,8,8,11,1,0.284195,,,,,,,,,,,,,,,,,,,,,,,,,,,,,,
,,,,,,,,,,,,,,,,,,,,,,,,,,,,,,,,,,,,,,,,,,,,,,,,,,,,,space,684262,23,2020-08-05_19h07.32.204,CDT_GNG_IUS12,2020.1.2,Win32,60,,,,,,,,,,,,,,,,0,1,space,1,0,9,9,40,1,0.257725,,,,,,,,,,,,,,,,,,,,,,,,,,,,,,
,,,,,,,,,,,,,,,,,,,,,,,,,,,,,,,,,,,,,,,,,,,,,,,,,,,,,space,684262,23,2020-08-05_19h07.32.204,CDT_GNG_IUS12,2020.1.2,Win32,60,,,,,,,,,,,,,,,,0,1,space,1,0,10,10,32,1,0.252015,,,,,,,,,,,,,,,,,,,,,,,,,,,,,,
,,,,,,,,,,,,,,,,,,,,,,,,,,,,,,,,,,,,,,,,,,,,,,,,,,,,,,684262,23,2020-08-05_19h07.32.204,CDT_GNG_IUS12,2020.1.2,Win32,60,,,,,,,,,,,,,,,,1,0,,1,0,11,11,9,1,,,,,,,,,,,,,,,,,,,,,,,,,,,,,,,
,,,,,,,,,,,,,,,,,,,,,,,,,,,,,,,,,,,,,,,,,,,,,,,,,,,,,space,684262,23,2020-08-05_19h07.32.204,CDT_GNG_IUS12,2020.1.2,Win32,60,,,,,,,,,,,,,,,,0,1,space,1,0,12,12,20,1,0.306205,,,,,,,,,,,,,,,,,,,,,,,,,,,,,,
,,,,,,,,,,,,,,,,,,,,,,,,,,,,,,,,,,,,,,,,,,,,,,,,,,,,,space,684262,23,2020-08-05_19h07.32.204,CDT_GNG_IUS12,2020.1.2,Win32,60,,,,,,,,,,,,,,,,0,1,space,1,0,13,13,18,1,0.324835,,,,,,,,,,,,,,,,,,,,,,,,,,,,,,
,,,,,,,,,,,,,,,,,,,,,,,,,,,,,,,,,,,,,,,,,,,,,,,,,,,,,space,684262,23,2020-08-05_19h07.32.204,CDT_GNG_IUS12,2020.1.2,Win32,60,,,,,,,,,,,,,,,,0,1,space,1,0,14,14,33,1,0.334945,,,,,,,,,,,,,,,,,,,,,,,,,,,,,,
,,,,,,,,,,,,,,,,,,,,,,,,,,,,,,,,,,,,,,,,,,,,,,,,,,,,,space,684262,23,2020-08-05_19h07.32.204,CDT_GNG_IUS12,2020.1.2,Win32,60,,,,,,,,,,,,,,,,0,1,space,1,0,15,15,37,1,0.33234,,,,,,,,,,,,,,,,,,,,,,,,,,,,,,
,,,,,,,,,,,,,,,,,,,,,,,,,,,,,,,,,,,,,,,,,,,,,,,,,,,,,space,684262,23,2020-08-05_19h07.32.204,CDT_GNG_IUS12,2020.1.2,Win32,60,,,,,,,,,,,,,,,,0,1,space,1,0,16,16,23,1,0.331795,,,,,,,,,,,,,,,,,,,,,,,,,,,,,,
,,,,,,,,,,,,,,,,,,,,,,,,,,,,,,,,,,,,,,,,,,,,,,,,,,,,,space,684262,23,2020-08-05_19h07.32.204,CDT_GNG_IUS12,2020.1.2,Win32,60,,,,,,,,,,,,,,,,0,1,space,1,0,17,17,39,1,0.29925,,,,,,,,,,,,,,,,,,,,,,,,,,,,,,
,,,,,,,,,,,,,,,,,,,,,,,,,,,,,,,,,,,,,,,,,,,,,,,,,,,,,space,684262,23,2020-08-05_19h07.32.204,CDT_GNG_IUS12,2020.1.2,Win32,60,,,,,,,,,,,,,,,,0,1,space,1,0,18,18,48,1,0.28476,,,,,,,,,,,,,,,,,,,,,,,,,,,,,,
,,,,,,,,,,,,,,,,,,,,,,,,,,,,,,,,,,,,,,,,,,,,,,,,,,,,,space,684262,23,2020-08-05_19h07.32.204,CDT_GNG_IUS12,2020.1.2,Win32,60,,,,,,,,,,,,,,,,0,1,space,1,0,19,19,34,1,0.269335,,,,,,,,,,,,,,,,,,,,,,,,,,,,,,
,,,,,,,,,,,,,,,,,,,,,,,,,,,,,,,,,,,,,,,,,,,,,,,,,,,,,space,684262,23,2020-08-05_19h07.32.204,CDT_GNG_IUS12,2020.1.2,Win32,60,,,,,,,,,,,,,,,,0,1,space,1,0,20,20,12,1,0.33288,,,,,,,,,,,,,,,,,,,,,,,,,,,,,,
,,,,,,,,,,,,,,,,,,,,,,,,,,,,,,,,,,,,,,,,,,,,,,,,,,,,,space,684262,23,2020-08-05_19h07.32.204,CDT_GNG_IUS12,2020.1.2,Win32,60,,,,,,,,,,,,,,,,0,1,space,1,0,21,21,31,1,0.44935,,,,,,,,,,,,,,,,,,,,,,,,,,,,,,
,,,,,,,,,,,,,,,,,,,,,,,,,,,,,,,,,,,,,,,,,,,,,,,,,,,,,space,684262,23,2020-08-05_19h07.32.204,CDT_GNG_IUS12,2020.1.2,Win32,60,,,,,,,,,,,,,,,,0,1,space,1,0,22,22,22,1,0.33941,,,,,,,,,,,,,,,,,,,,,,,,,,,,,,
,,,,,,,,,,,,,,,,,,,,,,,,,,,,,,,,,,,,,,,,,,,,,,,,,,,,,space,684262,23,2020-08-05_19h07.32.204,CDT_GNG_IUS12,2020.1.2,Win32,60,,,,,,,,,,,,,,,,0,1,space,1,0,23,23,26,1,0.36957,,,,,,,,,,,,,,,,,,,,,,,,,,,,,,
,,,,,,,,,,,,,,,,,,,,,,,,,,,,,,,,,,,,,,,,,,,,,,,,,,,,,space,684262,23,2020-08-05_19h07.32.204,CDT_GNG_IUS12,2020.1.2,Win32,60,,,,,,,,,,,,,,,,0,1,space,1,0,24,24,49,1,0.492315,,,,,,,,,,,,,,,,,,,,,,,,,,,,,,
,,,,,,,,,,,,,,,,,,,,,,,,,,,,,,,,,,,,,,,,,,,,,,,,,,,,,space,684262,23,2020-08-05_19h07.32.204,CDT_GNG_IUS12,2020.1.2,Win32,60,,,,,,,,,,,,,,,,0,1,space,1,0,25,25,47,1,0.488815,,,,,,,,,,,,,,,,,,,,,,,,,,,,,,
,,,,,,,,,,,,,,,,,,,,,,,,,,,,,,,,,,,,,,,,,,,,,,,,,,,,,space,684262,23,2020-08-05_19h07.32.204,CDT_GNG_IUS12,2020.1.2,Win32,60,,,,,,,,,,,,,,,,0,1,space,1,0,26,26,46,1,0.415835,,,,,,,,,,,,,,,,,,,,,,,,,,,,,,
,,,,,,,,,,,,,,,,,,,,,,,,,,,,,,,,,,,,,,,,,,,,,,,,,,,,,space,684262,23,2020-08-05_19h07.32.204,CDT_GNG_IUS12,2020.1.2,Win32,60,,,,,,,,,,,,,,,,0,1,space,1,0,27,27,17,1,0.38484,,,,,,,,,,,,,,,,,,,,,,,,,,,,,,
,,,,,,,,,,,,,,,,,,,,,,,,,,,,,,,,,,,,,,,,,,,,,,,,,,,,,space,684262,23,2020-08-05_19h07.32.204,CDT_GNG_IUS12,2020.1.2,Win32,60,,,,,,,,,,,,,,,,0,1,space,1,0,28,28,15,1,0.336515,,,,,,,,,,,,,,,,,,,,,,,,,,,,,,
,,,,,,,,,,,,,,,,,,,,,,,,,,,,,,,,,,,,,,,,,,,,,,,,,,,,,,684262,23,2020-08-05_19h07.32.204,CDT_GNG_IUS12,2020.1.2,Win32,60,,,,,,,,,,,,,,,,1,0,,1,0,29,29,5,1,,,,,,,,,,,,,,,,,,,,,,,,,,,,,,,
,,,,,,,,,,,,,,,,,,,,,,,,,,,,,,,,,,,,,,,,,,,,,,,,,,,,,space,684262,23,2020-08-05_19h07.32.204,CDT_GNG_IUS12,2020.1.2,Win32,60,,,,,,,,,,,,,,,,0,1,space,1,0,30,30,14,1,0.12357,,,,,,,,,,,,,,,,,,,,,,,,,,,,,,
,,,,,,,,,,,,,,,,,,,,,,,,,,,,,,,,,,,,,,,,,,,,,,,,,,,,,space,684262,23,2020-08-05_19h07.32.204,CDT_GNG_IUS12,2020.1.2,Win32,60,,,,,,,,,,,,,,,,0,1,space,1,0,31,31,29,1,0.084615,,,,,,,,,,,,,,,,,,,,,,,,,,,,,,
,,,,,,,,,,,,,,,,,,,,,,,,,,,,,,,,,,,,,,,,,,,,,,,,,,,,,space,684262,23,2020-08-05_19h07.32.204,CDT_GNG_IUS12,2020.1.2,Win32,60,,,,,,,,,,,,,,,,0,1,space,1,0,32,32,38,1,0.2526,,,,,,,,,,,,,,,,,,,,,,,,,,,,,,
,,,,,,,,,,,,,,,,,,,,,,,,,,,,,,,,,,,,,,,,,,,,,,,,,,,,,,684262,23,2020-08-05_19h07.32.204,CDT_GNG_IUS12,2020.1.2,Win32,60,,,,,,,,,,,,,,,,1,0,space,0,0,33,33,0,1,0.251845,,,,,,,,,,,,,,,,,,,,,,,,,,,,,,
,,,,,,,,,,,,,,,,,,,,,,,,,,,,,,,,,,,,,,,,,,,,,,,,,,,,,space,684262,23,2020-08-05_19h07.32.204,CDT_GNG_IUS12,2020.1.2,Win32,60,,,,,,,,,,,,,,,,0,1,,0,0,34,34,43,1,,,,,,,,,,,,,,,,,,,,,,,,,,,,,,,
,,,,,,,,,,,,,,,,,,,,,,,,,,,,,,,,,,,,,,,,,,,,,,,,,,,,,space,684262,23,2020-08-05_19h07.32.204,CDT_GNG_IUS12,2020.1.2,Win32,60,,,,,,,,,,,,,,,,0,1,space,1,0,35,35,36,1,0.24849,,,,,,,,,,,,,,,,,,,,,,,,,,,,,,
,,,,,,,,,,,,,,,,,,,,,,,,,,,,,,,,,,,,,,,,,,,,,,,,,,,,,space,684262,23,2020-08-05_19h07.32.204,CDT_GNG_IUS12,2020.1.2,Win32,60,,,,,,,,,,,,,,,,0,1,space,1,0,36,36,44,1,0.26929,,,,,,,,,,,,,,,,,,,,,,,,,,,,,,
,,,,,,,,,,,,,,,,,,,,,,,,,,,,,,,,,,,,,,,,,,,,,,,,,,,,,,684262,23,2020-08-05_19h07.32.204,CDT_GNG_IUS12,2020.1.2,Win32,60,,,,,,,,,,,,,,,,1,0,,1,0,37,37,3,1,,,,,,,,,,,,,,,,,,,,,,,,,,,,,,,
,,,,,,,,,,,,,,,,,,,,,,,,,,,,,,,,,,,,,,,,,,,,,,,,,,,,,,684262,23,2020-08-05_19h07.32.204,CDT_GNG_IUS12,2020.1.2,Win32,60,,,,,,,,,,,,,,,,1,0,space,0,0,38,38,6,1,0.25278,,,,,,,,,,,,,,,,,,,,,,,,,,,,,,
,,,,,,,,,,,,,,,,,,,,,,,,,,,,,,,,,,,,,,,,,,,,,,,,,,,,,space,684262,23,2020-08-05_19h07.32.204,CDT_GNG_IUS12,2020.1.2,Win32,60,,,,,,,,,,,,,,,,0,1,,0,0,39,39,19,1,,,,,,,,,,,,,,,,,,,,,,,,,,,,,,,
,,,,,,,,,,,,,,,,,,,,,,,,,,,,,,,,,,,,,,,,,,,,,,,,,,,,,space,684262,23,2020-08-05_19h07.32.204,CDT_GNG_IUS12,2020.1.2,Win32,60,,,,,,,,,,,,,,,,0,1,space,1,0,40,40,16,1,0.352385,,,,,,,,,,,,,,,,,,,,,,,,,,,,,,
,,,,,,,,,,,,,,,,,,,,,,,,,,,,,,,,,,,,,,,,,,,,,,,,,,,,,space,684262,23,2020-08-05_19h07.32.204,CDT_GNG_IUS12,2020.1.2,Win32,60,,,,,,,,,,,,,,,,0,1,,0,0,41,41,41,1,,,,,,,,,,,,,,,,,,,,,,,,,,,,,,,
,,,,,,,,,,,,,,,,,,,,,,,,,,,,,,,,,,,,,,,,,,,,,,,,,,,,,,684262,23,2020-08-05_19h07.32.204,CDT_GNG_IUS12,2020.1.2,Win32,60,,,,,,,,,,,,,,,,1,0,,1,0,42,42,2,1,,,,,,,,,,,,,,,,,,,,,,,,,,,,,,,
,,,,,,,,,,,,,,,,,,,,,,,,,,,,,,,,,,,,,,,,,,,,,,,,,,,,,space,684262,23,2020-08-05_19h07.32.204,CDT_GNG_IUS12,2020.1.2,Win32,60,,,,,,,,,,,,,,,,0,1,space,1,0,43,43,25,1,0.30705,,,,,,,,,,,,,,,,,,,,,,,,,,,,,,
,,,,,,,,,,,,,,,,,,,,,,,,,,,,,,,,,,,,,,,,,,,,,,,,,,,,,space,684262,23,2020-08-05_19h07.32.204,CDT_GNG_IUS12,2020.1.2,Win32,60,,,,,,,,,,,,,,,,0,1,,0,0,44,44,28,1,,,,,,,,,,,,,,,,,,,,,,,,,,,,,,,
,,,,,,,,,,,,,,,,,,,,,,,,,,,,,,,,,,,,,,,,,,,,,,,,,,,,,,684262,23,2020-08-05_19h07.32.204,CDT_GNG_IUS12,2020.1.2,Win32,60,,,,,,,,,,,,,,,,1,0,space,0,0,45,45,4,1,0.098135,,,,,,,,,,,,,,,,,,,,,,,,,,,,,,
,,,,,,,,,,,,,,,,,,,,,,,,,,,,,,,,,,,,,,,,,,,,,,,,,,,,,space,684262,23,2020-08-05_19h07.32.204,CDT_GNG_IUS12,2020.1.2,Win32,60,,,,,,,,,,,,,,,,0,1,,0,0,46,46,45,1,,,,,,,,,,,,,,,,,,,,,,,,,,,,,,,
,,,,,,,,,,,,,,,,,,,,,,,,,,,,,,,,,,,,,,,,,,,,,,,,,,,,,space,684262,23,2020-08-05_19h07.32.204,CDT_GNG_IUS12,2020.1.2,Win32,60,,,,,,,,,,,,,,,,0,1,space,1,0,47,47,21,1,0.248595,,,,,,,,,,,,,,,,,,,,,,,,,,,,,,
,,,,,,,,,,,,,,,,,,,,,,,,,,,,,,,,,,,,,,,,,,,,,,,,,,,,,space,684262,23,2020-08-05_19h07.32.204,CDT_GNG_IUS12,2020.1.2,Win32,60,,,,,,,,,,,,,,,,0,1,space,1,0,48,48,10,1,0.39914,,,,,,,,,,,,,,,,,,,,,,,,,,,,,,
,,,,,,,,,,,,,,,,,,,,,,,,,,,,,,,,,,,,,,,,,,,,,,,,,,,,,space,684262,23,2020-08-05_19h07.32.204,CDT_GNG_IUS12,2020.1.2,Win32,60,,,,,,,,,,,,,,,,0,1,space,1,0,49,49,27,1,0.536005,,,,,,,,,,,,,,,,,,,,,,,,,,,,,,
,,,,,,,,,,,,,,,,,,,,,,,,,,,,,,,,,,,,,,,,,,,,,,,,,,,,,,684262,23,2020-08-05_19h07.32.204,CDT_GNG_IUS12,2020.1.2,Win32,60,,,,,,,,,,,,,,,,1,0,,1,,,,,,,0,0,0,1,1,,,,,,,,,,,,,,,,,,,,,,,,,
,,,,,,,,,,,,,,,,,,,,,,,,,,,,,,,,,,,,,,,,,,,,,,,,,,,,,space,684262,23,2020-08-05_19h07.32.204,CDT_GNG_IUS12,2020.1.2,Win32,60,,,,,,,,,,,,,,,,0,1,space,1,,,,,,0.349495,0,1,1,31,1,,,,,,,,,,,,,,,,,,,,,,,,,
,,,,,,,,,,,,,,,,,,,,,,,,,,,,,,,,,,,,,,,,,,,,,,,,,,,,,space,684262,23,2020-08-05_19h07.32.204,CDT_GNG_IUS12,2020.1.2,Win32,60,,,,,,,,,,,,,,,,0,1,,0,,,,,,,0,2,2,40,1,,,,,,,,,,,,,,,,,,,,,,,,,
,,,,,,,,,,,,,,,,,,,,,,,,,,,,,,,,,,,,,,,,,,,,,,,,,,,,,space,684262,23,2020-08-05_19h07.32.204,CDT_GNG_IUS12,2020.1.2,Win32,60,,,,,,,,,,,,,,,,0,1,space,1,,,,,,0.119405,0,3,3,47,1,,,,,,,,,,,,,,,,,,,,,,,,,
,,,,,,,,,,,,,,,,,,,,,,,,,,,,,,,,,,,,,,,,,,,,,,,,,,,,,space,684262,23,2020-08-05_19h07.32.204,CDT_GNG_IUS12,2020.1.2,Win32,60,,,,,,,,,,,,,,,,0,1,space,1,,,,,,0.423295,0,4,4,19,1,,,,,,,,,,,,,,,,,,,,,,,,,
,,,,,,,,,,,,,,,,,,,,,,,,,,,,,,,,,,,,,,,,,,,,,,,,,,,,,,684262,23,2020-08-05_19h07.32.204,CDT_GNG_IUS12,2020.1.2,Win32,60,,,,,,,,,,,,,,,,1,0,,1,,,,,,,0,5,5,7,1,,,,,,,,,,,,,,,,,,,,,,,,,
,,,,,,,,,,,,,,,,,,,,,,,,,,,,,,,,,,,,,,,,,,,,,,,,,,,,,space,684262,23,2020-08-05_19h07.32.204,CDT_GNG_IUS12,2020.1.2,Win32,60,,,,,,,,,,,,,,,,0,1,space,1,,,,,,0.303415,0,6,6,32,1,,,,,,,,,,,,,,,,,,,,,,,,,
,,,,,,,,,,,,,,,,,,,,,,,,,,,,,,,,,,,,,,,,,,,,,,,,,,,,,,684262,23,2020-08-05_19h07.32.204,CDT_GNG_IUS12,2020.1.2,Win32,60,,,,,,,,,,,,,,,,1,0,,1,,,,,,,0,7,7,9,1,,,,,,,,,,,,,,,,,,,,,,,,,
,,,,,,,,,,,,,,,,,,,,,,,,,,,,,,,,,,,,,,,,,,,,,,,,,,,,,space,684262,23,2020-08-05_19h07.32.204,CDT_GNG_IUS12,2020.1.2,Win32,60,,,,,,,,,,,,,,,,0,1,space,1,,,,,,0.265065,0,8,8,16,1,,,,,,,,,,,,,,,,,,,,,,,,,
,,,,,,,,,,,,,,,,,,,,,,,,,,,,,,,,,,,,,,,,,,,,,,,,,,,,,space,684262,23,2020-08-05_19h07.32.204,CDT_GNG_IUS12,2020.1.2,Win32,60,,,,,,,,,,,,,,,,0,1,space,1,,,,,,0.416075,0,9,9,45,1,,,,,,,,,,,,,,,,,,,,,,,,,
,,,,,,,,,,,,,,,,,,,,,,,,,,,,,,,,,,,,,,,,,,,,,,,,,,,,,space,684262,23,2020-08-05_19h07.32.204,CDT_GNG_IUS12,2020.1.2,Win32,60,,,,,,,,,,,,,,,,0,1,space,1,,,,,,0.42526,0,10,10,13,1,,,,,,,,,,,,,,,,,,,,,,,,,
,,,,,,,,,,,,,,,,,,,,,,,,,,,,,,,,,,,,,,,,,,,,,,,,,,,,,space,684262,23,2020-08-05_19h07.32.204,CDT_GNG_IUS12,2020.1.2,Win32,60,,,,,,,,,,,,,,,,0,1,space,1,,,,,,0.33898,0,11,11,17,1,,,,,,,,,,,,,,,,,,,,,,,,,
,,,,,,,,,,,,,,,,,,,,,,,,,,,,,,,,,,,,,,,,,,,,,,,,,,,,,space,684262,23,2020-08-05_19h07.32.204,CDT_GNG_IUS12,2020.1.2,Win32,60,,,,,,,,,,,,,,,,0,1,,0,,,,,,,0,12,12,33,1,,,,,,,,,,,,,,,,,,,,,,,,,
,,,,,,,,,,,,,,,,,,,,,,,,,,,,,,,,,,,,,,,,,,,,,,,,,,,,,space,684262,23,2020-08-05_19h07.32.204,CDT_GNG_IUS12,2020.1.2,Win32,60,,,,,,,,,,,,,,,,0,1,space,1,,,,,,0.243675,0,13,13,43,1,,,,,,,,,,,,,,,,,,,,,,,,,
,,,,,,,,,,,,,,,,,,,,,,,,,,,,,,,,,,,,,,,,,,,,,,,,,,,,,space,684262,23,2020-08-05_19h07.32.204,CDT_GNG_IUS12,2020.1.2,Win32,60,,,,,,,,,,,,,,,,0,1,space,1,,,,,,0.098635,0,14,14,28,1,,,,,,,,,,,,,,,,,,,,,,,,,
,,,,,,,,,,,,,,,,,,,,,,,,,,,,,,,,,,,,,,,,,,,,,,,,,,,,,space,684262,23,2020-08-05_19h07.32.204,CDT_GNG_IUS12,2020.1.2,Win32,60,,,,,,,,,,,,,,,,0,1,space,1,,,,,,0.29922,0,15,15,11,1,,,,,,,,,,,,,,,,,,,,,,,,,
,,,,,,,,,,,,,,,,,,,,,,,,,,,,,,,,,,,,,,,,,,,,,,,,,,,,,space,684262,23,2020-08-05_19h07.32.204,CDT_GNG_IUS12,2020.1.2,Win32,60,,,,,,,,,,,,,,,,0,1,space,1,,,,,,0.270455,0,16,16,44,1,,,,,,,,,,,,,,,,,,,,,,,,,
,,,,,,,,,,,,,,,,,,,,,,,,,,,,,,,,,,,,,,,,,,,,,,,,,,,,,space,684262,23,2020-08-05_19h07.32.204,CDT_GNG_IUS12,2020.1.2,Win32,60,,,,,,,,,,,,,,,,0,1,space,1,,,,,,0.275355,0,17,17,18,1,,,,,,,,,,,,,,,,,,,,,,,,,
,,,,,,,,,,,,,,,,,,,,,,,,,,,,,,,,,,,,,,,,,,,,,,,,,,,,,space,684262,23,2020-08-05_19h07.32.204,CDT_GNG_IUS12,2020.1.2,Win32,60,,,,,,,,,,,,,,,,0,1,space,1,,,,,,0.21663,0,18,18,37,1,,,,,,,,,,,,,,,,,,,,,,,,,
,,,,,,,,,,,,,,,,,,,,,,,,,,,,,,,,,,,,,,,,,,,,,,,,,,,,,space,684262,23,2020-08-05_19h07.32.204,CDT_GNG_IUS12,2020.1.2,Win32,60,,,,,,,,,,,,,,,,0,1,space,1,,,,,,0.34924,0,19,19,35,1,,,,,,,,,,,,,,,,,,,,,,,,,
,,,,,,,,,,,,,,,,,,,,,,,,,,,,,,,,,,,,,,,,,,,,,,,,,,,,,space,684262,23,2020-08-05_19h07.32.204,CDT_GNG_IUS12,2020.1.2,Win32,60,,,,,,,,,,,,,,,,0,1,space,1,,,,,,0.4232,0,20,20,39,1,,,,,,,,,,,,,,,,,,,,,,,,,
,,,,,,,,,,,,,,,,,,,,,,,,,,,,,,,,,,,,,,,,,,,,,,,,,,,,,space,684262,23,2020-08-05_19h07.32.204,CDT_GNG_IUS12,2020.1.2,Win32,60,,,,,,,,,,,,,,,,0,1,space,1,,,,,,0.4659,0,21,21,46,1,,,,,,,,,,,,,,,,,,,,,,,,,
,,,,,,,,,,,,,,,,,,,,,,,,,,,,,,,,,,,,,,,,,,,,,,,,,,,,,space,684262,23,2020-08-05_19h07.32.204,CDT_GNG_IUS12,2020.1.2,Win32,60,,,,,,,,,,,,,,,,0,1,,0,,,,,,,0,22,22,42,1,,,,,,,,,,,,,,,,,,,,,,,,,
,,,,,,,,,,,,,,,,,,,,,,,,,,,,,,,,,,,,,,,,,,,,,,,,,,,,,space,684262,23,2020-08-05_19h07.32.204,CDT_GNG_IUS12,2020.1.2,Win32,60,,,,,,,,,,,,,,,,0,1,space,1,,,,,,0.11828,0,23,23,15,1,,,,,,,,,,,,,,,,,,,,,,,,,
,,,,,,,,,,,,,,,,,,,,,,,,,,,,,,,,,,,,,,,,,,,,,,,,,,,,,,684262,23,2020-08-05_19h07.32.204,CDT_GNG_IUS12,2020.1.2,Win32,60,,,,,,,,,,,,,,,,1,0,,1,,,,,,,0,24,24,8,1,,,,,,,,,,,,,,,,,,,,,,,,,
,,,,,,,,,,,,,,,,,,,,,,,,,,,,,,,,,,,,,,,,,,,,,,,,,,,,,space,684262,23,2020-08-05_19h07.32.204,CDT_GNG_IUS12,2020.1.2,Win32,60,,,,,,,,,,,,,,,,0,1,space,1,,,,,,0.292045,0,25,25,20,1,,,,,,,,,,,,,,,,,,,,,,,,,
,,,,,,,,,,,,,,,,,,,,,,,,,,,,,,,,,,,,,,,,,,,,,,,,,,,,,,684262,23,2020-08-05_19h07.32.204,CDT_GNG_IUS12,2020.1.2,Win32,60,,,,,,,,,,,,,,,,1,0,,1,,,,,,,0,26,26,0,1,,,,,,,,,,,,,,,,,,,,,,,,,
,,,,,,,,,,,,,,,,,,,,,,,,,,,,,,,,,,,,,,,,,,,,,,,,,,,,,space,684262,23,2020-08-05_19h07.32.204,CDT_GNG_IUS12,2020.1.2,Win32,60,,,,,,,,,,,,,,,,0,1,space,1,,,,,,0.285355,0,27,27,12,1,,,,,,,,,,,,,,,,,,,,,,,,,
,,,,,,,,,,,,,,,,,,,,,,,,,,,,,,,,,,,,,,,,,,,,,,,,,,,,,,684262,23,2020-08-05_19h07.32.204,CDT_GNG_IUS12,2020.1.2,Win32,60,,,,,,,,,,,,,,,,1,0,,1,,,,,,,0,28,28,5,1,,,,,,,,,,,,,,,,,,,,,,,,,
,,,,,,,,,,,,,,,,,,,,,,,,,,,,,,,,,,,,,,,,,,,,,,,,,,,,,,684262,23,2020-08-05_19h07.32.204,CDT_GNG_IUS12,2020.1.2,Win32,60,,,,,,,,,,,,,,,,1,0,,1,,,,,,,0,29,29,2,1,,,,,,,,,,,,,,,,,,,,,,,,,
,,,,,,,,,,,,,,,,,,,,,,,,,,,,,,,,,,,,,,,,,,,,,,,,,,,,,,684262,23,2020-08-05_19h07.32.204,CDT_GNG_IUS12,2020.1.2,Win32,60,,,,,,,,,,,,,,,,1,0,,1,,,,,,,0,30,30,6,1,,,,,,,,,,,,,,,,,,,,,,,,,
,,,,,,,,,,,,,,,,,,,,,,,,,,,,,,,,,,,,,,,,,,,,,,,,,,,,,space,684262,23,2020-08-05_19h07.32.204,CDT_GNG_IUS12,2020.1.2,Win32,60,,,,,,,,,,,,,,,,0,1,space,1,,,,,,0.4684,0,31,31,49,1,,,,,,,,,,,,,,,,,,,,,,,,,
,,,,,,,,,,,,,,,,,,,,,,,,,,,,,,,,,,,,,,,,,,,,,,,,,,,,,space,684262,23,2020-08-05_19h07.32.204,CDT_GNG_IUS12,2020.1.2,Win32,60,,,,,,,,,,,,,,,,0,1,space,1,,,,,,0.51854,0,32,32,38,1,,,,,,,,,,,,,,,,,,,,,,,,,
,,,,,,,,,,,,,,,,,,,,,,,,,,,,,,,,,,,,,,,,,,,,,,,,,,,,,space,684262,23,2020-08-05_19h07.32.204,CDT_GNG_IUS12,2020.1.2,Win32,60,,,,,,,,,,,,,,,,0,1,space,1,,,,,,0.50725,0,33,33,22,1,,,,,,,,,,,,,,,,,,,,,,,,,
,,,,,,,,,,,,,,,,,,,,,,,,,,,,,,,,,,,,,,,,,,,,,,,,,,,,,space,684262,23,2020-08-05_19h07.32.204,CDT_GNG_IUS12,2020.1.2,Win32,60,,,,,,,,,,,,,,,,0,1,,0,,,,,,,0,34,34,29,1,,,,,,,,,,,,,,,,,,,,,,,,,
,,,,,,,,,,,,,,,,,,,,,,,,,,,,,,,,,,,,,,,,,,,,,,,,,,,,,,684262,23,2020-08-05_19h07.32.204,CDT_GNG_IUS12,2020.1.2,Win32,60,,,,,,,,,,,,,,,,1,0,space,0,,,,,,0.01878,0,35,35,4,1,,,,,,,,,,,,,,,,,,,,,,,,,
,,,,,,,,,,,,,,,,,,,,,,,,,,,,,,,,,,,,,,,,,,,,,,,,,,,,,space,684262,23,2020-08-05_19h07.32.204,CDT_GNG_IUS12,2020.1.2,Win32,60,,,,,,,,,,,,,,,,0,1,space,1,,,,,,0.573425,0,36,36,27,1,,,,,,,,,,,,,,,,,,,,,,,,,
,,,,,,,,,,,,,,,,,,,,,,,,,,,,,,,,,,,,,,,,,,,,,,,,,,,,,space,684262,23,2020-08-05_19h07.32.204,CDT_GNG_IUS12,2020.1.2,Win32,60,,,,,,,,,,,,,,,,0,1,space,1,,,,,,0.482765,0,37,37,21,1,,,,,,,,,,,,,,,,,,,,,,,,,
,,,,,,,,,,,,,,,,,,,,,,,,,,,,,,,,,,,,,,,,,,,,,,,,,,,,,space,684262,23,2020-08-05_19h07.32.204,CDT_GNG_IUS12,2020.1.2,Win32,60,,,,,,,,,,,,,,,,0,1,space,1,,,,,,0.3997,0,38,38,36,1,,,,,,,,,,,,,,,,,,,,,,,,,
,,,,,,,,,,,,,,,,,,,,,,,,,,,,,,,,,,,,,,,,,,,,,,,,,,,,,space,684262,23,2020-08-05_19h07.32.204,CDT_GNG_IUS12,2020.1.2,Win32,60,,,,,,,,,,,,,,,,0,1,,0,,,,,,,0,39,39,14,1,,,,,,,,,,,,,,,,,,,,,,,,,
,,,,,,,,,,,,,,,,,,,,,,,,,,,,,,,,,,,,,,,,,,,,,,,,,,,,,space,684262,23,2020-08-05_19h07.32.204,CDT_GNG_IUS12,2020.1.2,Win32,60,,,,,,,,,,,,,,,,0,1,space,1,,,,,,0.14953,0,40,40,41,1,,,,,,,,,,,,,,,,,,,,,,,,,
,,,,,,,,,,,,,,,,,,,,,,,,,,,,,,,,,,,,,,,,,,,,,,,,,,,,,space,684262,23,2020-08-05_19h07.32.204,CDT_GNG_IUS12,2020.1.2,Win32,60,,,,,,,,,,,,,,,,0,1,space,1,,,,,,0.408025,0,41,41,48,1,,,,,,,,,,,,,,,,,,,,,,,,,
,,,,,,,,,,,,,,,,,,,,,,,,,,,,,,,,,,,,,,,,,,,,,,,,,,,,,space,684262,23,2020-08-05_19h07.32.204,CDT_GNG_IUS12,2020.1.2,Win32,60,,,,,,,,,,,,,,,,0,1,space,1,,,,,,0.36578,0,42,42,25,1,,,,,,,,,,,,,,,,,,,,,,,,,
,,,,,,,,,,,,,,,,,,,,,,,,,,,,,,,,,,,,,,,,,,,,,,,,,,,,,space,684262,23,2020-08-05_19h07.32.204,CDT_GNG_IUS12,2020.1.2,Win32,60,,,,,,,,,,,,,,,,0,1,space,1,,,,,,0.549625,0,43,43,10,1,,,,,,,,,,,,,,,,,,,,,,,,,
,,,,,,,,,,,,,,,,,,,,,,,,,,,,,,,,,,,,,,,,,,,,,,,,,,,,,space,684262,23,2020-08-05_19h07.32.204,CDT_GNG_IUS12,2020.1.2,Win32,60,,,,,,,,,,,,,,,,0,1,space,1,,,,,,0.548835,0,44,44,23,1,,,,,,,,,,,,,,,,,,,,,,,,,
,,,,,,,,,,,,,,,,,,,,,,,,,,,,,,,,,,,,,,,,,,,,,,,,,,,,,,684262,23,2020-08-05_19h07.32.204,CDT_GNG_IUS12,2020.1.2,Win32,60,,,,,,,,,,,,,,,,1,0,,1,,,,,,,0,45,45,3,1,,,,,,,,,,,,,,,,,,,,,,,,,
,,,,,,,,,,,,,,,,,,,,,,,,,,,,,,,,,,,,,,,,,,,,,,,,,,,,,space,684262,23,2020-08-05_19h07.32.204,CDT_GNG_IUS12,2020.1.2,Win32,60,,,,,,,,,,,,,,,,0,1,space,1,,,,,,0.282945,0,46,46,24,1,,,,,,,,,,,,,,,,,,,,,,,,,
,,,,,,,,,,,,,,,,,,,,,,,,,,,,,,,,,,,,,,,,,,,,,,,,,,,,,space,684262,23,2020-08-05_19h07.32.204,CDT_GNG_IUS12,2020.1.2,Win32,60,,,,,,,,,,,,,,,,0,1,space,1,,,,,,0.3259,0,47,47,34,1,,,,,,,,,,,,,,,,,,,,,,,,,
,,,,,,,,,,,,,,,,,,,,,,,,,,,,,,,,,,,,,,,,,,,,,,,,,,,,,space,684262,23,2020-08-05_19h07.32.204,CDT_GNG_IUS12,2020.1.2,Win32,60,,,,,,,,,,,,,,,,0,1,space,1,,,,,,0.282705,0,48,48,30,1,,,,,,,,,,,,,,,,,,,,,,,,,
,,,,,,,,,,,,,,,,,,,,,,,,,,,,,,,,,,,,,,,,,,,,,,,,,,,,,space,684262,23,2020-08-05_19h07.32.204,CDT_GNG_IUS12,2020.1.2,Win32,60,,,,,,,,,,,,,,,,0,1,space,1,,,,,,0.382995,0,49,49,26,1,,,,,,,,,,,,,,,,,,,,,,,,,
,,,,,,,,,,,,,,,,,,,,,,,,,,,,,,,,,,,,,,,,,,,,,,,,,,,,,space,684262,23,2020-08-05_19h07.32.204,CDT_GNG_IUS12,2020.1.2,Win32,60,,,,,,,,,,,,,,,,0,1,space,1,,,,,,0.38027,,,,,,0,0,0,29,1,,,,,,,,,,,,,,,,,,,,
,,,,,,,,,,,,,,,,,,,,,,,,,,,,,,,,,,,,,,,,,,,,,,,,,,,,,space,684262,23,2020-08-05_19h07.32.204,CDT_GNG_IUS12,2020.1.2,Win32,60,,,,,,,,,,,,,,,,0,1,space,1,,,,,,0.23977,,,,,,0,1,1,23,1,,,,,,,,,,,,,,,,,,,,
,,,,,,,,,,,,,,,,,,,,,,,,,,,,,,,,,,,,,,,,,,,,,,,,,,,,,space,684262,23,2020-08-05_19h07.32.204,CDT_GNG_IUS12,2020.1.2,Win32,60,,,,,,,,,,,,,,,,0,1,space,1,,,,,,0.33525,,,,,,0,2,2,47,1,,,,,,,,,,,,,,,,,,,,
,,,,,,,,,,,,,,,,,,,,,,,,,,,,,,,,,,,,,,,,,,,,,,,,,,,,,,684262,23,2020-08-05_19h07.32.204,CDT_GNG_IUS12,2020.1.2,Win32,60,,,,,,,,,,,,,,,,1,0,space,0,,,,,,0.25236,,,,,,0,3,3,3,1,,,,,,,,,,,,,,,,,,,,
,,,,,,,,,,,,,,,,,,,,,,,,,,,,,,,,,,,,,,,,,,,,,,,,,,,,,space,684262,23,2020-08-05_19h07.32.204,CDT_GNG_IUS12,2020.1.2,Win32,60,,,,,,,,,,,,,,,,0,1,space,1,,,,,,0.306545,,,,,,0,4,4,30,1,,,,,,,,,,,,,,,,,,,,
,,,,,,,,,,,,,,,,,,,,,,,,,,,,,,,,,,,,,,,,,,,,,,,,,,,,,space,684262,23,2020-08-05_19h07.32.204,CDT_GNG_IUS12,2020.1.2,Win32,60,,,,,,,,,,,,,,,,0,1,space,1,,,,,,0.30002,,,,,,0,5,5,41,1,,,,,,,,,,,,,,,,,,,,
,,,,,,,,,,,,,,,,,,,,,,,,,,,,,,,,,,,,,,,,,,,,,,,,,,,,,space,684262,23,2020-08-05_19h07.32.204,CDT_GNG_IUS12,2020.1.2,Win32,60,,,,,,,,,,,,,,,,0,1,space,1,,,,,,0.270985,,,,,,0,6,6,22,1,,,,,,,,,,,,,,,,,,,,
,,,,,,,,,,,,,,,,,,,,,,,,,,,,,,,,,,,,,,,,,,,,,,,,,,,,,space,684262,23,2020-08-05_19h07.32.204,CDT_GNG_IUS12,2020.1.2,Win32,60,,,,,,,,,,,,,,,,0,1,space,1,,,,,,0.25242,,,,,,0,7,7,49,1,,,,,,,,,,,,,,,,,,,,
,,,,,,,,,,,,,,,,,,,,,,,,,,,,,,,,,,,,,,,,,,,,,,,,,,,,,space,684262,23,2020-08-05_19h07.32.204,CDT_GNG_IUS12,2020.1.2,Win32,60,,,,,,,,,,,,,,,,0,1,space,1,,,,,,0.273195,,,,,,0,8,8,34,1,,,,,,,,,,,,,,,,,,,,
,,,,,,,,,,,,,,,,,,,,,,,,,,,,,,,,,,,,,,,,,,,,,,,,,,,,,space,684262,23,2020-08-05_19h07.32.204,CDT_GNG_IUS12,2020.1.2,Win32,60,,,,,,,,,,,,,,,,0,1,space,1,,,,,,0.39906,,,,,,0,9,9,12,1,,,,,,,,,,,,,,,,,,,,
,,,,,,,,,,,,,,,,,,,,,,,,,,,,,,,,,,,,,,,,,,,,,,,,,,,,,space,684262,23,2020-08-05_19h07.32.204,CDT_GNG_IUS12,2020.1.2,Win32,60,,,,,,,,,,,,,,,,0,1,space,1,,,,,,0.32163,,,,,,0,10,10,15,1,,,,,,,,,,,,,,,,,,,,
,,,,,,,,,,,,,,,,,,,,,,,,,,,,,,,,,,,,,,,,,,,,,,,,,,,,,space,684262,23,2020-08-05_19h07.32.204,CDT_GNG_IUS12,2020.1.2,Win32,60,,,,,,,,,,,,,,,,0,1,space,1,,,,,,0.29846,,,,,,0,11,11,21,1,,,,,,,,,,,,,,,,,,,,
,,,,,,,,,,,,,,,,,,,,,,,,,,,,,,,,,,,,,,,,,,,,,,,,,,,,,space,684262,23,2020-08-05_19h07.32.204,CDT_GNG_IUS12,2020.1.2,Win32,60,,,,,,,,,,,,,,,,0,1,space,1,,,,,,0.3403,,,,,,0,12,12,18,1,,,,,,,,,,,,,,,,,,,,
,,,,,,,,,,,,,,,,,,,,,,,,,,,,,,,,,,,,,,,,,,,,,,,,,,,,,,684262,23,2020-08-05_19h07.32.204,CDT_GNG_IUS12,2020.1.2,Win32,60,,,,,,,,,,,,,,,,1,0,space,0,,,,,,0.314775,,,,,,0,13,13,2,1,,,,,,,,,,,,,,,,,,,,
,,,,,,,,,,,,,,,,,,,,,,,,,,,,,,,,,,,,,,,,,,,,,,,,,,,,,,684262,23,2020-08-05_19h07.32.204,CDT_GNG_IUS12,2020.1.2,Win32,60,,,,,,,,,,,,,,,,1,0,,1,,,,,,,,,,,,0,14,14,1,1,,,,,,,,,,,,,,,,,,,,
,,,,,,,,,,,,,,,,,,,,,,,,,,,,,,,,,,,,,,,,,,,,,,,,,,,,,space,684262,23,2020-08-05_19h07.32.204,CDT_GNG_IUS12,2020.1.2,Win32,60,,,,,,,,,,,,,,,,0,1,space,1,,,,,,0.341515,,,,,,0,15,15,24,1,,,,,,,,,,,,,,,,,,,,
,,,,,,,,,,,,,,,,,,,,,,,,,,,,,,,,,,,,,,,,,,,,,,,,,,,,,space,684262,23,2020-08-05_19h07.32.204,CDT_GNG_IUS12,2020.1.2,Win32,60,,,,,,,,,,,,,,,,0,1,space,1,,,,,,0.48774,,,,,,0,16,16,11,1,,,,,,,,,,,,,,,,,,,,
,,,,,,,,,,,,,,,,,,,,,,,,,,,,,,,,,,,,,,,,,,,,,,,,,,,,,space,684262,23,2020-08-05_19h07.32.204,CDT_GNG_IUS12,2020.1.2,Win32,60,,,,,,,,,,,,,,,,0,1,space,1,,,,,,0.332115,,,,,,0,17,17,38,1,,,,,,,,,,,,,,,,,,,,
,,,,,,,,,,,,,,,,,,,,,,,,,,,,,,,,,,,,,,,,,,,,,,,,,,,,,,684262,23,2020-08-05_19h07.32.204,CDT_GNG_IUS12,2020.1.2,Win32,60,,,,,,,,,,,,,,,,1,0,,1,,,,,,,,,,,,0,18,18,0,1,,,,,,,,,,,,,,,,,,,,
,,,,,,,,,,,,,,,,,,,,,,,,,,,,,,,,,,,,,,,,,,,,,,,,,,,,,space,684262,23,2020-08-05_19h07.32.204,CDT_GNG_IUS12,2020.1.2,Win32,60,,,,,,,,,,,,,,,,0,1,space,1,,,,,,0.337895,,,,,,0,19,19,43,1,,,,,,,,,,,,,,,,,,,,
,,,,,,,,,,,,,,,,,,,,,,,,,,,,,,,,,,,,,,,,,,,,,,,,,,,,,space,684262,23,2020-08-05_19h07.32.204,CDT_GNG_IUS12,2020.1.2,Win32,60,,,,,,,,,,,,,,,,0,1,,0,,,,,,,,,,,,0,20,20,45,1,,,,,,,,,,,,,,,,,,,,
,,,,,,,,,,,,,,,,,,,,,,,,,,,,,,,,,,,,,,,,,,,,,,,,,,,,,space,684262,23,2020-08-05_19h07.32.204,CDT_GNG_IUS12,2020.1.2,Win32,60,,,,,,,,,,,,,,,,0,1,space,1,,,,,,0.26558,,,,,,0,21,21,39,1,,,,,,,,,,,,,,,,,,,,
,,,,,,,,,,,,,,,,,,,,,,,,,,,,,,,,,,,,,,,,,,,,,,,,,,,,,space,684262,23,2020-08-05_19h07.32.204,CDT_GNG_IUS12,2020.1.2,Win32,60,,,,,,,,,,,,,,,,0,1,space,1,,,,,,0.268915,,,,,,0,22,22,40,1,,,,,,,,,,,,,,,,,,,,
,,,,,,,,,,,,,,,,,,,,,,,,,,,,,,,,,,,,,,,,,,,,,,,,,,,,,space,684262,23,2020-08-05_19h07.32.204,CDT_GNG_IUS12,2020.1.2,Win32,60,,,,,,,,,,,,,,,,0,1,space,1,,,,,,0.269805,,,,,,0,23,23,25,1,,,,,,,,,,,,,,,,,,,,
,,,,,,,,,,,,,,,,,,,,,,,,,,,,,,,,,,,,,,,,,,,,,,,,,,,,,,684262,23,2020-08-05_19h07.32.204,CDT_GNG_IUS12,2020.1.2,Win32,60,,,,,,,,,,,,,,,,1,0,space,0,,,,,,0.26838,,,,,,0,24,24,8,1,,,,,,,,,,,,,,,,,,,,
,,,,,,,,,,,,,,,,,,,,,,,,,,,,,,,,,,,,,,,,,,,,,,,,,,,,,space,684262,23,2020-08-05_19h07.32.204,CDT_GNG_IUS12,2020.1.2,Win32,60,,,,,,,,,,,,,,,,0,1,space,1,,,,,,0.32514,,,,,,0,25,25,26,1,,,,,,,,,,,,,,,,,,,,
,,,,,,,,,,,,,,,,,,,,,,,,,,,,,,,,,,,,,,,,,,,,,,,,,,,,,space,684262,23,2020-08-05_19h07.32.204,CDT_GNG_IUS12,2020.1.2,Win32,60,,,,,,,,,,,,,,,,0,1,space,1,,,,,,0.33294,,,,,,0,26,26,10,1,,,,,,,,,,,,,,,,,,,,
,,,,,,,,,,,,,,,,,,,,,,,,,,,,,,,,,,,,,,,,,,,,,,,,,,,,,,684262,23,2020-08-05_19h07.32.204,CDT_GNG_IUS12,2020.1.2,Win32,60,,,,,,,,,,,,,,,,1,0,space,0,,,,,,0.28729,,,,,,0,27,27,4,1,,,,,,,,,,,,,,,,,,,,
,,,,,,,,,,,,,,,,,,,,,,,,,,,,,,,,,,,,,,,,,,,,,,,,,,,,,space,684262,23,2020-08-05_19h07.32.204,CDT_GNG_IUS12,2020.1.2,Win32,60,,,,,,,,,,,,,,,,0,1,space,1,,,,,,0.27189,,,,,,0,28,28,27,1,,,,,,,,,,,,,,,,,,,,
,,,,,,,,,,,,,,,,,,,,,,,,,,,,,,,,,,,,,,,,,,,,,,,,,,,,,,684262,23,2020-08-05_19h07.32.204,CDT_GNG_IUS12,2020.1.2,Win32,60,,,,,,,,,,,,,,,,1,0,space,0,,,,,,0.26634,,,,,,0,29,29,9,1,,,,,,,,,,,,,,,,,,,,
,,,,,,,,,,,,,,,,,,,,,,,,,,,,,,,,,,,,,,,,,,,,,,,,,,,,,space,684262,23,2020-08-05_19h07.32.204,CDT_GNG_IUS12,2020.1.2,Win32,60,,,,,,,,,,,,,,,,0,1,,0,,,,,,,,,,,,0,30,30,16,1,,,,,,,,,,,,,,,,,,,,
,,,,,,,,,,,,,,,,,,,,,,,,,,,,,,,,,,,,,,,,,,,,,,,,,,,,,,684262,23,2020-08-05_19h07.32.204,CDT_GNG_IUS12,2020.1.2,Win32,60,,,,,,,,,,,,,,,,1,0,space,0,,,,,,0.099605,,,,,,0,31,31,6,1,,,,,,,,,,,,,,,,,,,,
,,,,,,,,,,,,,,,,,,,,,,,,,,,,,,,,,,,,,,,,,,,,,,,,,,,,,,684262,23,2020-08-05_19h07.32.204,CDT_GNG_IUS12,2020.1.2,Win32,60,,,,,,,,,,,,,,,,1,0,,1,,,,,,,,,,,,0,32,32,7,1,,,,,,,,,,,,,,,,,,,,
,,,,,,,,,,,,,,,,,,,,,,,,,,,,,,,,,,,,,,,,,,,,,,,,,,,,,space,684262,23,2020-08-05_19h07.32.204,CDT_GNG_IUS12,2020.1.2,Win32,60,,,,,,,,,,,,,,,,0,1,space,1,,,,,,0.324165,,,,,,0,33,33,32,1,,,,,,,,,,,,,,,,,,,,
,,,,,,,,,,,,,,,,,,,,,,,,,,,,,,,,,,,,,,,,,,,,,,,,,,,,,space,684262,23,2020-08-05_19h07.32.204,CDT_GNG_IUS12,2020.1.2,Win32,60,,,,,,,,,,,,,,,,0,1,space,1,,,,,,0.251355,,,,,,0,34,34,14,1,,,,,,,,,,,,,,,,,,,,
,,,,,,,,,,,,,,,,,,,,,,,,,,,,,,,,,,,,,,,,,,,,,,,,,,,,,space,684262,23,2020-08-05_19h07.32.204,CDT_GNG_IUS12,2020.1.2,Win32,60,,,,,,,,,,,,,,,,0,1,space,1,,,,,,0.257305,,,,,,0,35,35,35,1,,,,,,,,,,,,,,,,,,,,
,,,,,,,,,,,,,,,,,,,,,,,,,,,,,,,,,,,,,,,,,,,,,,,,,,,,,space,684262,23,2020-08-05_19h07.32.204,CDT_GNG_IUS12,2020.1.2,Win32,60,,,,,,,,,,,,,,,,0,1,space,1,,,,,,0.252295,,,,,,0,36,36,28,1,,,,,,,,,,,,,,,,,,,,
,,,,,,,,,,,,,,,,,,,,,,,,,,,,,,,,,,,,,,,,,,,,,,,,,,,,,space,684262,23,2020-08-05_19h07.32.204,CDT_GNG_IUS12,2020.1.2,Win32,60,,,,,,,,,,,,,,,,0,1,space,1,,,,,,0.23302,,,,,,0,37,37,17,1,,,,,,,,,,,,,,,,,,,,
,,,,,,,,,,,,,,,,,,,,,,,,,,,,,,,,,,,,,,,,,,,,,,,,,,,,,space,684262,23,2020-08-05_19h07.32.204,CDT_GNG_IUS12,2020.1.2,Win32,60,,,,,,,,,,,,,,,,0,1,space,1,,,,,,0.298795,,,,,,0,38,38,48,1,,,,,,,,,,,,,,,,,,,,
,,,,,,,,,,,,,,,,,,,,,,,,,,,,,,,,,,,,,,,,,,,,,,,,,,,,,space,684262,23,2020-08-05_19h07.32.204,CDT_GNG_IUS12,2020.1.2,Win32,60,,,,,,,,,,,,,,,,0,1,space,1,,,,,,0.299995,,,,,,0,39,39,31,1,,,,,,,,,,,,,,,,,,,,
,,,,,,,,,,,,,,,,,,,,,,,,,,,,,,,,,,,,,,,,,,,,,,,,,,,,,space,684262,23,2020-08-05_19h07.32.204,CDT_GNG_IUS12,2020.1.2,Win32,60,,,,,,,,,,,,,,,,0,1,space,1,,,,,,0.299825,,,,,,0,40,40,20,1,,,,,,,,,,,,,,,,,,,,
,,,,,,,,,,,,,,,,,,,,,,,,,,,,,,,,,,,,,,,,,,,,,,,,,,,,,space,684262,23,2020-08-05_19h07.32.204,CDT_GNG_IUS12,2020.1.2,Win32,60,,,,,,,,,,,,,,,,0,1,space,1,,,,,,0.282695,,,,,,0,41,41,33,1,,,,,,,,,,,,,,,,,,,,
,,,,,,,,,,,,,,,,,,,,,,,,,,,,,,,,,,,,,,,,,,,,,,,,,,,,,space,684262,23,2020-08-05_19h07.32.204,CDT_GNG_IUS12,2020.1.2,Win32,60,,,,,,,,,,,,,,,,0,1,space,1,,,,,,0.16578,,,,,,0,42,42,37,1,,,,,,,,,,,,,,,,,,,,
,,,,,,,,,,,,,,,,,,,,,,,,,,,,,,,,,,,,,,,,,,,,,,,,,,,,,space,684262,23,2020-08-05_19h07.32.204,CDT_GNG_IUS12,2020.1.2,Win32,60,,,,,,,,,,,,,,,,0,1,space,1,,,,,,0.004645,,,,,,0,43,43,36,1,,,,,,,,,,,,,,,,,,,,
,,,,,,,,,,,,,,,,,,,,,,,,,,,,,,,,,,,,,,,,,,,,,,,,,,,,,space,684262,23,2020-08-05_19h07.32.204,CDT_GNG_IUS12,2020.1.2,Win32,60,,,,,,,,,,,,,,,,0,1,space,1,,,,,,0.332315,,,,,,0,44,44,19,1,,,,,,,,,,,,,,,,,,,,
,,,,,,,,,,,,,,,,,,,,,,,,,,,,,,,,,,,,,,,,,,,,,,,,,,,,,space,684262,23,2020-08-05_19h07.32.204,CDT_GNG_IUS12,2020.1.2,Win32,60,,,,,,,,,,,,,,,,0,1,,0,,,,,,,,,,,,0,45,45,46,1,,,,,,,,,,,,,,,,,,,,
,,,,,,,,,,,,,,,,,,,,,,,,,,,,,,,,,,,,,,,,,,,,,,,,,,,,,,684262,23,2020-08-05_19h07.32.204,CDT_GNG_IUS12,2020.1.2,Win32,60,,,,,,,,,,,,,,,,1,0,space,0,,,,,,0.049275,,,,,,0,46,46,5,1,,,,,,,,,,,,,,,,,,,,
,,,,,,,,,,,,,,,,,,,,,,,,,,,,,,,,,,,,,,,,,,,,,,,,,,,,,space,684262,23,2020-08-05_19h07.32.204,CDT_GNG_IUS12,2020.1.2,Win32,60,,,,,,,,,,,,,,,,0,1,space,1,,,,,,0.332425,,,,,,0,47,47,42,1,,,,,,,,,,,,,,,,,,,,
,,,,,,,,,,,,,,,,,,,,,,,,,,,,,,,,,,,,,,,,,,,,,,,,,,,,,space,684262,23,2020-08-05_19h07.32.204,CDT_GNG_IUS12,2020.1.2,Win32,60,,,,,,,,,,,,,,,,0,1,,0,,,,,,,,,,,,0,48,48,44,1,,,,,,,,,,,,,,,,,,,,
,,,,,,,,,,,,,,,,,,,,,,,,,,,,,,,,,,,,,,,,,,,,,,,,,,,,,space,684262,23,2020-08-05_19h07.32.204,CDT_GNG_IUS12,2020.1.2,Win32,60,,,,,,,,,,,,,,,,0,1,space,1,,,,,,0.132215,,,,,,0,49,49,13,1,,,,,,,,,,,,,,,,,,,,
,,,,,,,,,,,,,,,,,,,,,,,,,,,,,,,,,,,,,,,,,,,,,,,,,,,,,,684262,23,2020-08-05_19h07.32.204,CDT_GNG_IUS12,2020.1.2,Win32,60,,,,,,,,,,,,,,,,,,,,,,,,,,,,,,,,,,,,7.101852417,20.07868,0,0,0,0,1,1,"On a scale from 0 to 10, indicate your personal perception of your proficiency level for English (10 being the highest score)",,,,,,,,,,,
,,,,,,,,,,,,,,,,,,,,,,,,,,,,,,,,,,,,,,,,,,,,,,,,,,,,,,684262,23,2020-08-05_19h07.32.204,CDT_GNG_IUS12,2020.1.2,Win32,60,,,,,,,,,,,,,,,,,,,,,,,,,,,,,,,,,,,,7.027777778,9.60304,0,1,1,1,1,2,"On a scale from 0 to 10, indicate how frequently you are exposed to English (10 being 'always', 0 being 'never')",,,,,,,,,,,
,,,,,,,,,,,,,,,,,,,,,,,,,,,,,,,,,,,,,,,,,,,,,,,,,,,,,,684262,23,2020-08-05_19h07.32.204,CDT_GNG_IUS12,2020.1.2,Win32,60,,,,,,,,,,,,,,,,,,,,,,,,,,,,,,,,,,,,,,,,,,,,"On a scale from 0 to 10, indicate your personal perception of your proficiency level for English (10 being the highest score)",2.992592706,6.690335,0,0,0,0,1,1,Unforeseen events upset me greatly.,,
,,,,,,,,,,,,,,,,,,,,,,,,,,,,,,,,,,,,,,,,,,,,,,,,,,,,,,684262,23,2020-08-05_19h07.32.204,CDT_GNG_IUS12,2020.1.2,Win32,60,,,,,,,,,,,,,,,,,,,,,,,,,,,,,,,,,,,,,,,,,,,,"On a scale from 0 to 10, indicate how frequently you are exposed to English (10 being 'always', 0 being 'never')",1.970370483,7.761025,0,1,1,1,1,2,It frustrates me not having all the information I need.,,
,,,,,,,,,,,,,,,,,,,,,,,,,,,,,,,,,,,,,,,,,,,,,,,,,,,,,,684262,23,2020-08-05_19h07.32.204,CDT_GNG_IUS12,2020.1.2,Win32,60,,,,,,,,,,,,,,,,,,,,,,,,,,,,,,,,,,,,,,,,,,,,,2.011111111,7.63619,0,2,2,2,1,3,One should always look ahead so as to avoid surprises.,,
,,,,,,,,,,,,,,,,,,,,,,,,,,,,,,,,,,,,,,,,,,,,,,,,,,,,,,684262,23,2020-08-05_19h07.32.204,CDT_GNG_IUS12,2020.1.2,Win32,60,,,,,,,,,,,,,,,,,,,,,,,,,,,,,,,,,,,,,,,,,,,,,2.011111111,4.086645,0,3,3,3,1,4,"A small, unforeseen event can spoil everything, even with the best of planning. ",,
,,,,,,,,,,,,,,,,,,,,,,,,,,,,,,,,,,,,,,,,,,,,,,,,,,,,,,684262,23,2020-08-05_19h07.32.204,CDT_GNG_IUS12,2020.1.2,Win32,60,,,,,,,,,,,,,,,,,,,,,,,,,,,,,,,,,,,,,,,,,,,,,3.007407633,5.363285,0,4,4,4,1,5,I always want to know what the future has in store for me.,,
,,,,,,,,,,,,,,,,,,,,,,,,,,,,,,,,,,,,,,,,,,,,,,,,,,,,,,684262,23,2020-08-05_19h07.32.204,CDT_GNG_IUS12,2020.1.2,Win32,60,,,,,,,,,,,,,,,,,,,,,,,,,,,,,,,,,,,,,,,,,,,,,2.044444444,5.90728,0,5,5,5,1,6,I can't stand being taken by surprise.,,
,,,,,,,,,,,,,,,,,,,,,,,,,,,,,,,,,,,,,,,,,,,,,,,,,,,,,,684262,23,2020-08-05_19h07.32.204,CDT_GNG_IUS12,2020.1.2,Win32,60,,,,,,,,,,,,,,,,,,,,,,,,,,,,,,,,,,,,,,,,,,,,,4.014814928,6.65285,0,6,6,6,1,7,I should be able to organize everything in advance,,
,,,,,,,,,,,,,,,,,,,,,,,,,,,,,,,,,,,,,,,,,,,,,,,,,,,,,,684262,23,2020-08-05_19h07.32.204,CDT_GNG_IUS12,2020.1.2,Win32,60,,,,,,,,,,,,,,,,,,,,,,,,,,,,,,,,,,,,,,,,,,,,,2.966666667,3.43758,0,7,7,7,1,8,Uncertainty keeps me from living a full life.,,
,,,,,,,,,,,,,,,,,,,,,,,,,,,,,,,,,,,,,,,,,,,,,,,,,,,,,,684262,23,2020-08-05_19h07.32.204,CDT_GNG_IUS12,2020.1.2,Win32,60,,,,,,,,,,,,,,,,,,,,,,,,,,,,,,,,,,,,,,,,,,,,,3.066666667,0.0262,0,8,8,8,1,9,"When it's time to act, uncertainty paralyses me. ",,
,,,,,,,,,,,,,,,,,,,,,,,,,,,,,,,,,,,,,,,,,,,,,,,,,,,,,,684262,23,2020-08-05_19h07.32.204,CDT_GNG_IUS12,2020.1.2,Win32,60,,,,,,,,,,,,,,,,,,,,,,,,,,,,,,,,,,,,,,,,,,,,,2.948148261,3.990685,0,9,9,9,1,10,"When I am uncertain, I can't function very well. ",,
,,,,,,,,,,,,,,,,,,,,,,,,,,,,,,,,,,,,,,,,,,,,,,,,,,,,,,684262,23,2020-08-05_19h07.32.204,CDT_GNG_IUS12,2020.1.2,Win32,60,,,,,,,,,,,,,,,,,,,,,,,,,,,,,,,,,,,,,,,,,,,,,2.040740797,4.78766,0,10,10,10,1,11,The smallest doubt can stop me from acting. ,,
,,,,,,,,,,,,,,,,,,,,,,,,,,,,,,,,,,,,,,,,,,,,,,,,,,,,,,684262,23,2020-08-05_19h07.32.204,CDT_GNG_IUS12,2020.1.2,Win32,60,,,,,,,,,,,,,,,,,,,,,,,,,,,,,,,,,,,,,,,,,,,,,1.029629686,3.387435,0,11,11,11,1,12,I must get away from all uncertain situations. ,,
,,,,,,,,,,,,,,,,,,,,,,,,,,,,,,,,,,,,,,,,,,,,,,,,,,,,,,684262,23,2020-08-05_19h07.32.204,CDT_GNG_IUS12,2020.1.2,Win32,60,,,,,,,,,,,,,,,,,,,,,,,,,,,,,,,,,,,,,,,,,,,,,,,,,,,,,,x,22.616125
