key_resp_6.keys,key_resp_6.rt,Gender.keys,Gender.rt,key_resp_2.keys,key_resp_2.corr,key_resp_2.rt,CDT_trials_train.thisRepN,CDT_trials_train.thisTrialN,CDT_trials_train.thisN,CDT_trials_train.thisIndex,CDT_trials_train.ran,trialnum,condit,stimamt,stim1posx,stim1posy,stim1col,stim1opa,stim2posx,stim2posy,stim2col,stim2opa,stim3posx,stim3posy,stim3col,stim3opa,stim4posx,stim4posy,stim4col,stim4opa,stim5posx,stim5posy,stim5col,stim5opa,stim6posx,stim6posy,stim6col,stim6opa,stim7posx,stim7posy,stim7col,stim7opa,stim8posx,stim8posy,stim8col,stim8opa,stimsizex,stimsizey,stimdur,targetposx,targetposy,targetcol,corrAns,participant,age,date,expName,psychopyVersion,OS,frameRate,key_resp.keys,key_resp.corr,key_resp.rt,CDT_trials.thisRepN,CDT_trials.thisTrialN,CDT_trials.thisN,CDT_trials.thisIndex,CDT_trials.ran,trialResp_Train.keys,trialResp_Train.corr,trialResp_Train.rt,GNGtrials_train.thisRepN,GNGtrials_train.thisTrialN,GNGtrials_train.thisN,GNGtrials_train.thisIndex,GNGtrials_train.ran,orangeOpacity,blueOpacity,trialResp.keys,trialResp.corr,trialResp.rt,GNG_trials_1.thisRepN,GNG_trials_1.thisTrialN,GNG_trials_1.thisN,GNG_trials_1.thisIndex,GNG_trials_1.ran,GNG_trials_2.thisRepN,GNG_trials_2.thisTrialN,GNG_trials_2.thisN,GNG_trials_2.thisIndex,GNG_trials_2.ran,GNG_trials_3.thisRepN,GNG_trials_3.thisTrialN,GNG_trials_3.thisN,GNG_trials_3.thisIndex,GNG_trials_3.ran,slider_2.response,slider_2.rt,engprof_trials.thisRepN,engprof_trials.thisTrialN,engprof_trials.thisN,engprof_trials.thisIndex,engprof_trials.ran,qpnumber,qproficiency,slider.response,slider.rt,IUS12_trials.thisRepN,IUS12_trials.thisTrialN,IUS12_trials.thisN,IUS12_trials.thisIndex,IUS12_trials.ran,qnumber,qenglish,key_resp_end.keys,key_resp_end.rt
y,2.99111,m,1.888325,l,0,3.315275,0,0,0,0,1,1,same,4,0.14,0.14,orange,1,0.14,-0.41,blue,1,-0.14,-0.27,cyan,1,-0.41,0.14,red,1,0.14,0.41,black,0,0.27,-0.27,green,0,-0.41,-0.27,magenta,0,-0.41,0.41,yellow,0,0.05,0.05,0.15,0.14,-0.41,blue,k,701522,23,2020-08-05_11h46.05.603,CDT_GNG_IUS12,2020.1.2,Win32,60,,,,,,,,,,,,,,,,,,,,,,,,,,,,,,,,,,,,,,,,,,,,,,,,,,,,,,,,
,,,,l,1,0.938255,0,1,1,1,1,2,different,4,0.14,0.41,black,1,0.14,-0.41,green,1,-0.41,-0.27,orange,1,-0.27,0.41,magenta,1,0.14,0.27,red,0,0.41,-0.27,cyan,0,-0.27,-0.41,yellow,0,-0.27,0.27,blue,0,0.05,0.05,0.15,-0.27,0.41,red,l,701522,23,2020-08-05_11h46.05.603,CDT_GNG_IUS12,2020.1.2,Win32,60,,,,,,,,,,,,,,,,,,,,,,,,,,,,,,,,,,,,,,,,,,,,,,,,,,,,,,,,
,,,,k,1,0.982585,0,2,2,2,1,3,same,8,0.27,0.41,yellow,1,0.14,-0.41,cyan,1,-0.14,-0.27,blue,1,-0.14,0.27,green,1,0.14,0.14,red,1,0.27,-0.27,black,1,-0.27,-0.27,magenta,1,-0.27,0.14,orange,1,0.05,0.05,0.15,-0.14,0.27,green,k,701522,23,2020-08-05_11h46.05.603,CDT_GNG_IUS12,2020.1.2,Win32,60,,,,,,,,,,,,,,,,,,,,,,,,,,,,,,,,,,,,,,,,,,,,,,,,,,,,,,,,
,,,,l,1,1.00043,0,3,3,3,1,4,different,8,0.14,0.41,green,1,0.27,-0.14,red,1,-0.27,-0.14,black,1,-0.14,0.41,orange,1,0.41,0.27,blue,1,0.41,-0.27,magenta,1,-0.14,-0.14,cyan,1,-0.27,0.14,yellow,1,0.05,0.05,0.15,0.27,-0.14,cyan,l,701522,23,2020-08-05_11h46.05.603,CDT_GNG_IUS12,2020.1.2,Win32,60,,,,,,,,,,,,,,,,,,,,,,,,,,,,,,,,,,,,,,,,,,,,,,,,,,,,,,,,
,,,,,,,,,,,,16,same,4,0.27,0.27,magenta,1,0.14,-0.14,orange,1,-0.14,-0.41,blue,1,-0.27,0.14,red,1,0.14,0.14,black,0,0.14,-0.27,green,0,-0.27,-0.27,yellow,0,-0.27,0.27,cyan,0,0.05,0.05,0.15,-0.27,0.14,red,k,701522,23,2020-08-05_11h46.05.603,CDT_GNG_IUS12,2020.1.2,Win32,60,k,1,2.19863,0,0,0,15,1,,,,,,,,,,,,,,,,,,,,,,,,,,,,,,,,,,,,,,,,,,,,,,,,
,,,,,,,,,,,,29,same,4,0.14,0.27,black,1,0.41,-0.14,blue,1,-0.41,-0.14,magenta,1,-0.27,0.27,green,1,0.27,0.27,yellow,0,0.41,-0.41,orange,0,-0.41,-0.27,cyan,0,-0.14,0.14,red,0,0.05,0.05,0.15,0.41,-0.14,blue,k,701522,23,2020-08-05_11h46.05.603,CDT_GNG_IUS12,2020.1.2,Win32,60,l,0,0.571885,0,1,1,28,1,,,,,,,,,,,,,,,,,,,,,,,,,,,,,,,,,,,,,,,,,,,,,,,,
,,,,,,,,,,,,11,same,4,0.27,0.14,red,1,0.14,-0.14,cyan,1,-0.27,-0.41,blue,1,-0.27,0.14,yellow,1,0.27,0.27,green,0,0.41,-0.27,black,0,-0.41,-0.41,magenta,0,-0.41,0.14,orange,0,0.05,0.05,0.15,-0.27,-0.41,blue,k,701522,23,2020-08-05_11h46.05.603,CDT_GNG_IUS12,2020.1.2,Win32,60,k,1,1.45292,0,2,2,10,1,,,,,,,,,,,,,,,,,,,,,,,,,,,,,,,,,,,,,,,,,,,,,,,,
,,,,,,,,,,,,10,same,4,0.14,0.41,magenta,1,0.41,-0.14,black,1,-0.27,-0.27,orange,1,-0.41,0.27,green,1,0.27,0.41,blue,0,0.41,-0.41,yellow,0,-0.41,-0.41,cyan,0,-0.27,0.27,red,0,0.05,0.05,0.15,0.41,-0.14,black,k,701522,23,2020-08-05_11h46.05.603,CDT_GNG_IUS12,2020.1.2,Win32,60,k,1,0.944235,0,3,3,9,1,,,,,,,,,,,,,,,,,,,,,,,,,,,,,,,,,,,,,,,,,,,,,,,,
,,,,,,,,,,,,114,different,8,0.41,0.41,yellow,1,0.14,-0.41,red,1,-0.41,-0.41,blue,1,-0.27,0.14,cyan,1,0.41,0.27,black,1,0.27,-0.41,green,1,-0.14,-0.41,orange,1,-0.14,0.41,magenta,1,0.05,0.05,0.15,-0.14,0.41,orange,l,701522,23,2020-08-05_11h46.05.603,CDT_GNG_IUS12,2020.1.2,Win32,60,l,1,0.902785,0,4,4,113,1,,,,,,,,,,,,,,,,,,,,,,,,,,,,,,,,,,,,,,,,,,,,,,,,
,,,,,,,,,,,,88,same,8,0.27,0.41,red,1,0.41,-0.14,cyan,1,-0.14,-0.14,green,1,-0.41,0.41,orange,1,0.14,0.27,magenta,1,0.27,-0.27,yellow,1,-0.41,-0.41,black,1,-0.27,0.41,blue,1,0.05,0.05,0.15,-0.41,0.41,orange,k,701522,23,2020-08-05_11h46.05.603,CDT_GNG_IUS12,2020.1.2,Win32,60,k,1,0.8708,0,5,5,87,1,,,,,,,,,,,,,,,,,,,,,,,,,,,,,,,,,,,,,,,,,,,,,,,,
,,,,,,,,,,,,110,different,8,0.41,0.14,orange,1,0.27,-0.27,black,1,-0.14,-0.27,blue,1,-0.27,0.27,cyan,1,0.27,0.41,magenta,1,0.27,-0.41,red,1,-0.27,-0.41,yellow,1,-0.27,0.41,green,1,0.05,0.05,0.15,-0.27,-0.41,red,l,701522,23,2020-08-05_11h46.05.603,CDT_GNG_IUS12,2020.1.2,Win32,60,k,0,1.230875,0,6,6,109,1,,,,,,,,,,,,,,,,,,,,,,,,,,,,,,,,,,,,,,,,,,,,,,,,
,,,,,,,,,,,,14,same,4,0.27,0.41,cyan,1,0.27,-0.41,black,1,-0.27,-0.27,yellow,1,-0.27,0.27,green,1,0.41,0.41,blue,0,0.14,-0.27,red,0,-0.14,-0.14,orange,0,-0.41,0.41,magenta,0,0.05,0.05,0.15,0.27,-0.41,black,k,701522,23,2020-08-05_11h46.05.603,CDT_GNG_IUS12,2020.1.2,Win32,60,k,1,1.305525,0,7,7,13,1,,,,,,,,,,,,,,,,,,,,,,,,,,,,,,,,,,,,,,,,,,,,,,,,
,,,,,,,,,,,,48,different,4,0.14,0.27,red,1,0.27,-0.14,yellow,1,-0.27,-0.41,magenta,1,-0.41,0.14,green,1,0.14,0.14,orange,0,0.41,-0.14,cyan,0,-0.27,-0.27,black,0,-0.41,0.41,blue,0,0.05,0.05,0.15,0.14,0.27,blue,l,701522,23,2020-08-05_11h46.05.603,CDT_GNG_IUS12,2020.1.2,Win32,60,l,1,0.71271,0,8,8,47,1,,,,,,,,,,,,,,,,,,,,,,,,,,,,,,,,,,,,,,,,,,,,,,,,
,,,,,,,,,,,,28,same,4,0.41,0.41,magenta,1,0.27,-0.14,blue,1,-0.14,-0.14,red,1,-0.14,0.41,orange,1,0.14,0.14,black,0,0.41,-0.14,green,0,-0.27,-0.14,yellow,0,-0.14,0.27,cyan,0,0.05,0.05,0.15,0.27,-0.14,blue,k,701522,23,2020-08-05_11h46.05.603,CDT_GNG_IUS12,2020.1.2,Win32,60,k,1,1.290355,0,9,9,27,1,,,,,,,,,,,,,,,,,,,,,,,,,,,,,,,,,,,,,,,,,,,,,,,,
,,,,,,,,,,,,57,different,4,0.14,0.41,black,1,0.14,-0.14,blue,1,-0.41,-0.14,red,1,-0.41,0.14,orange,1,0.41,0.41,magenta,0,0.41,-0.14,cyan,0,-0.14,-0.27,yellow,0,-0.27,0.41,green,0,0.05,0.05,0.15,-0.41,0.14,blue,l,701522,23,2020-08-05_11h46.05.603,CDT_GNG_IUS12,2020.1.2,Win32,60,l,1,0.94979,0,10,10,56,1,,,,,,,,,,,,,,,,,,,,,,,,,,,,,,,,,,,,,,,,,,,,,,,,
,,,,,,,,,,,,118,different,8,0.14,0.14,red,1,0.27,-0.27,yellow,1,-0.27,-0.14,orange,1,-0.41,0.41,magenta,1,0.27,0.27,cyan,1,0.14,-0.41,green,1,-0.27,-0.41,blue,1,-0.41,0.14,black,1,0.05,0.05,0.15,-0.27,-0.41,black,l,701522,23,2020-08-05_11h46.05.603,CDT_GNG_IUS12,2020.1.2,Win32,60,k,0,1.212105,0,11,11,117,1,,,,,,,,,,,,,,,,,,,,,,,,,,,,,,,,,,,,,,,,,,,,,,,,
,,,,,,,,,,,,68,same,8,0.14,0.27,green,1,0.41,-0.27,magenta,1,-0.14,-0.27,cyan,1,-0.41,0.14,red,1,0.41,0.14,yellow,1,0.27,-0.14,blue,1,-0.14,-0.41,orange,1,-0.14,0.14,black,1,0.05,0.05,0.15,0.27,-0.14,blue,k,701522,23,2020-08-05_11h46.05.603,CDT_GNG_IUS12,2020.1.2,Win32,60,l,0,2.12928,0,12,12,67,1,,,,,,,,,,,,,,,,,,,,,,,,,,,,,,,,,,,,,,,,,,,,,,,,
,,,,,,,,,,,,70,same,8,0.41,0.41,black,1,0.14,-0.27,red,1,-0.41,-0.41,magenta,1,-0.27,0.41,green,1,0.27,0.14,yellow,1,0.41,-0.41,orange,1,-0.27,-0.14,blue,1,-0.27,0.27,cyan,1,0.05,0.05,0.15,0.14,-0.27,red,k,701522,23,2020-08-05_11h46.05.603,CDT_GNG_IUS12,2020.1.2,Win32,60,k,1,1.857035,0,13,13,69,1,,,,,,,,,,,,,,,,,,,,,,,,,,,,,,,,,,,,,,,,,,,,,,,,
,,,,,,,,,,,,27,same,4,0.27,0.27,yellow,1,0.27,-0.27,green,1,-0.27,-0.41,cyan,1,-0.14,0.41,black,1,0.14,0.41,blue,0,0.41,-0.14,red,0,-0.14,-0.14,orange,0,-0.27,0.41,magenta,0,0.05,0.05,0.15,0.27,-0.27,green,k,701522,23,2020-08-05_11h46.05.603,CDT_GNG_IUS12,2020.1.2,Win32,60,l,0,0.544485,0,14,14,26,1,,,,,,,,,,,,,,,,,,,,,,,,,,,,,,,,,,,,,,,,,,,,,,,,
,,,,,,,,,,,,99,different,8,0.14,0.27,blue,1,0.41,-0.41,yellow,1,-0.14,-0.14,green,1,-0.41,0.14,black,1,0.41,0.27,red,1,0.27,-0.27,magenta,1,-0.27,-0.27,orange,1,-0.27,0.27,cyan,1,0.05,0.05,0.15,0.14,0.27,black,l,701522,23,2020-08-05_11h46.05.603,CDT_GNG_IUS12,2020.1.2,Win32,60,l,1,1.15668,0,15,15,98,1,,,,,,,,,,,,,,,,,,,,,,,,,,,,,,,,,,,,,,,,,,,,,,,,
,,,,,,,,,,,,36,different,4,0.41,0.27,magenta,1,0.27,-0.14,orange,1,-0.41,-0.41,yellow,1,-0.14,0.14,blue,1,0.14,0.41,green,0,0.27,-0.27,black,0,-0.41,-0.27,cyan,0,-0.41,0.41,red,0,0.05,0.05,0.15,0.27,-0.14,black,l,701522,23,2020-08-05_11h46.05.603,CDT_GNG_IUS12,2020.1.2,Win32,60,l,1,0.90306,0,16,16,35,1,,,,,,,,,,,,,,,,,,,,,,,,,,,,,,,,,,,,,,,,,,,,,,,,
,,,,,,,,,,,,52,different,4,0.27,0.41,cyan,1,0.14,-0.14,orange,1,-0.41,-0.14,black,1,-0.27,0.41,blue,1,0.14,0.27,magenta,0,0.27,-0.14,green,0,-0.27,-0.14,red,0,-0.14,0.41,yellow,0,0.05,0.05,0.15,0.14,-0.14,green,l,701522,23,2020-08-05_11h46.05.603,CDT_GNG_IUS12,2020.1.2,Win32,60,l,1,0.910035,0,17,17,51,1,,,,,,,,,,,,,,,,,,,,,,,,,,,,,,,,,,,,,,,,,,,,,,,,
,,,,,,,,,,,,12,same,4,0.14,0.41,red,1,0.14,-0.41,green,1,-0.41,-0.41,black,1,-0.27,0.27,cyan,1,0.27,0.41,magenta,0,0.41,-0.14,orange,0,-0.27,-0.41,yellow,0,-0.41,0.27,blue,0,0.05,0.05,0.15,-0.41,-0.41,black,k,701522,23,2020-08-05_11h46.05.603,CDT_GNG_IUS12,2020.1.2,Win32,60,k,1,0.686005,0,18,18,11,1,,,,,,,,,,,,,,,,,,,,,,,,,,,,,,,,,,,,,,,,,,,,,,,,
,,,,,,,,,,,,86,same,8,0.41,0.27,magenta,1,0.14,-0.14,green,1,-0.14,-0.41,orange,1,-0.14,0.41,red,1,0.27,0.14,black,1,0.14,-0.41,cyan,1,-0.41,-0.27,yellow,1,-0.27,0.14,blue,1,0.05,0.05,0.15,0.14,-0.41,cyan,k,701522,23,2020-08-05_11h46.05.603,CDT_GNG_IUS12,2020.1.2,Win32,60,l,0,1.16441,0,19,19,85,1,,,,,,,,,,,,,,,,,,,,,,,,,,,,,,,,,,,,,,,,,,,,,,,,
,,,,,,,,,,,,85,same,8,0.14,0.41,green,1,0.14,-0.41,magenta,1,-0.41,-0.14,black,1,-0.14,0.27,blue,1,0.27,0.27,orange,1,0.41,-0.41,red,1,-0.27,-0.14,cyan,1,-0.41,0.27,yellow,1,0.05,0.05,0.15,0.27,0.27,orange,k,701522,23,2020-08-05_11h46.05.603,CDT_GNG_IUS12,2020.1.2,Win32,60,l,0,1.076635,0,20,20,84,1,,,,,,,,,,,,,,,,,,,,,,,,,,,,,,,,,,,,,,,,,,,,,,,,
,,,,,,,,,,,,77,same,8,0.41,0.41,black,1,0.14,-0.14,cyan,1,-0.27,-0.41,yellow,1,-0.14,0.27,orange,1,0.41,0.14,blue,1,0.41,-0.14,magenta,1,-0.14,-0.27,green,1,-0.27,0.14,red,1,0.05,0.05,0.15,0.41,-0.14,magenta,k,701522,23,2020-08-05_11h46.05.603,CDT_GNG_IUS12,2020.1.2,Win32,60,l,0,1.026285,0,21,21,76,1,,,,,,,,,,,,,,,,,,,,,,,,,,,,,,,,,,,,,,,,,,,,,,,,
,,,,,,,,,,,,75,same,8,0.41,0.27,blue,1,0.41,-0.41,black,1,-0.41,-0.41,red,1,-0.27,0.14,magenta,1,0.27,0.14,yellow,1,0.27,-0.27,cyan,1,-0.14,-0.27,green,1,-0.41,0.27,orange,1,0.05,0.05,0.15,-0.14,-0.27,green,k,701522,23,2020-08-05_11h46.05.603,CDT_GNG_IUS12,2020.1.2,Win32,60,l,0,1.050255,0,22,22,74,1,,,,,,,,,,,,,,,,,,,,,,,,,,,,,,,,,,,,,,,,,,,,,,,,
,,,,,,,,,,,,33,different,4,0.27,0.41,magenta,1,0.41,-0.41,red,1,-0.27,-0.41,yellow,1,-0.14,0.41,black,1,0.14,0.41,blue,0,0.14,-0.41,orange,0,-0.41,-0.14,cyan,0,-0.41,0.27,green,0,0.05,0.05,0.15,0.27,0.41,black,l,701522,23,2020-08-05_11h46.05.603,CDT_GNG_IUS12,2020.1.2,Win32,60,l,1,0.9383,0,23,23,32,1,,,,,,,,,,,,,,,,,,,,,,,,,,,,,,,,,,,,,,,,,,,,,,,,
,,,,,,,,,,,,91,different,8,0.27,0.27,red,1,0.41,-0.14,orange,1,-0.14,-0.27,green,1,-0.27,0.27,yellow,1,0.14,0.27,cyan,1,0.14,-0.14,black,1,-0.41,-0.41,blue,1,-0.14,0.41,magenta,1,0.05,0.05,0.15,-0.14,0.41,yellow,l,701522,23,2020-08-05_11h46.05.603,CDT_GNG_IUS12,2020.1.2,Win32,60,l,1,0.815955,0,24,24,90,1,,,,,,,,,,,,,,,,,,,,,,,,,,,,,,,,,,,,,,,,,,,,,,,,
,,,,,,,,,,,,4,same,4,0.41,0.27,magenta,1,0.27,-0.41,orange,1,-0.41,-0.41,red,1,-0.14,0.41,green,1,0.27,0.41,blue,0,0.14,-0.41,black,0,-0.27,-0.14,cyan,0,-0.41,0.27,yellow,0,0.05,0.05,0.15,0.27,-0.41,orange,k,701522,23,2020-08-05_11h46.05.603,CDT_GNG_IUS12,2020.1.2,Win32,60,k,1,1.070455,0,25,25,3,1,,,,,,,,,,,,,,,,,,,,,,,,,,,,,,,,,,,,,,,,,,,,,,,,
,,,,,,,,,,,,101,different,8,0.14,0.27,magenta,1,0.14,-0.27,cyan,1,-0.41,-0.14,yellow,1,-0.41,0.14,black,1,0.14,0.41,red,1,0.41,-0.41,blue,1,-0.14,-0.41,green,1,-0.27,0.27,orange,1,0.05,0.05,0.15,-0.41,0.14,magenta,l,701522,23,2020-08-05_11h46.05.603,CDT_GNG_IUS12,2020.1.2,Win32,60,l,1,0.760765,0,26,26,100,1,,,,,,,,,,,,,,,,,,,,,,,,,,,,,,,,,,,,,,,,,,,,,,,,
,,,,,,,,,,,,42,different,4,0.41,0.41,green,1,0.14,-0.14,red,1,-0.27,-0.14,cyan,1,-0.27,0.27,blue,1,0.27,0.27,orange,0,0.14,-0.27,black,0,-0.27,-0.41,yellow,0,-0.27,0.41,magenta,0,0.05,0.05,0.15,-0.27,0.27,red,l,701522,23,2020-08-05_11h46.05.603,CDT_GNG_IUS12,2020.1.2,Win32,60,l,1,1.00779,0,27,27,41,1,,,,,,,,,,,,,,,,,,,,,,,,,,,,,,,,,,,,,,,,,,,,,,,,
,,,,,,,,,,,,37,different,4,0.41,0.41,yellow,1,0.27,-0.14,black,1,-0.14,-0.14,orange,1,-0.41,0.14,green,1,0.14,0.14,cyan,0,0.27,-0.41,blue,0,-0.14,-0.27,magenta,0,-0.14,0.14,red,0,0.05,0.05,0.15,0.41,0.41,red,l,701522,23,2020-08-05_11h46.05.603,CDT_GNG_IUS12,2020.1.2,Win32,60,l,1,0.86663,0,28,28,36,1,,,,,,,,,,,,,,,,,,,,,,,,,,,,,,,,,,,,,,,,,,,,,,,,
,,,,,,,,,,,,73,same,8,0.14,0.14,blue,1,0.14,-0.41,yellow,1,-0.41,-0.41,red,1,-0.41,0.27,orange,1,0.27,0.41,magenta,1,0.14,-0.27,green,1,-0.41,-0.27,black,1,-0.27,0.27,cyan,1,0.05,0.05,0.15,0.27,0.41,magenta,k,701522,23,2020-08-05_11h46.05.603,CDT_GNG_IUS12,2020.1.2,Win32,60,l,0,1.337635,0,29,29,72,1,,,,,,,,,,,,,,,,,,,,,,,,,,,,,,,,,,,,,,,,,,,,,,,,
,,,,,,,,,,,,8,same,4,0.27,0.41,orange,1,0.41,-0.14,cyan,1,-0.14,-0.41,green,1,-0.14,0.41,black,1,0.41,0.41,blue,0,0.27,-0.41,yellow,0,-0.41,-0.27,red,0,-0.41,0.41,magenta,0,0.05,0.05,0.15,-0.14,-0.41,green,k,701522,23,2020-08-05_11h46.05.603,CDT_GNG_IUS12,2020.1.2,Win32,60,k,1,0.477075,0,30,30,7,1,,,,,,,,,,,,,,,,,,,,,,,,,,,,,,,,,,,,,,,,,,,,,,,,
,,,,,,,,,,,,31,different,4,0.27,0.41,orange,1,0.14,-0.14,black,1,-0.41,-0.41,yellow,1,-0.41,0.27,cyan,1,0.27,0.14,green,0,0.41,-0.27,blue,0,-0.14,-0.41,red,0,-0.41,0.14,magenta,0,0.05,0.05,0.15,-0.41,0.27,yellow,l,701522,23,2020-08-05_11h46.05.603,CDT_GNG_IUS12,2020.1.2,Win32,60,l,1,1.41003,0,31,31,30,1,,,,,,,,,,,,,,,,,,,,,,,,,,,,,,,,,,,,,,,,,,,,,,,,
,,,,,,,,,,,,34,different,4,0.14,0.14,cyan,1,0.14,-0.14,magenta,1,-0.41,-0.41,black,1,-0.41,0.14,yellow,1,0.27,0.27,orange,0,0.14,-0.41,green,0,-0.41,-0.14,red,0,-0.14,0.14,blue,0,0.05,0.05,0.15,0.14,-0.14,cyan,l,701522,23,2020-08-05_11h46.05.603,CDT_GNG_IUS12,2020.1.2,Win32,60,k,0,1.442025,0,32,32,33,1,,,,,,,,,,,,,,,,,,,,,,,,,,,,,,,,,,,,,,,,,,,,,,,,
,,,,,,,,,,,,100,different,8,0.41,0.27,black,1,0.41,-0.27,red,1,-0.14,-0.27,magenta,1,-0.14,0.27,orange,1,0.14,0.27,blue,1,0.27,-0.14,yellow,1,-0.41,-0.14,cyan,1,-0.41,0.14,green,1,0.05,0.05,0.15,0.41,0.27,orange,l,701522,23,2020-08-05_11h46.05.603,CDT_GNG_IUS12,2020.1.2,Win32,60,l,1,1.208795,0,33,33,99,1,,,,,,,,,,,,,,,,,,,,,,,,,,,,,,,,,,,,,,,,,,,,,,,,
,,,,,,,,,,,,104,different,8,0.41,0.41,cyan,1,0.41,-0.41,blue,1,-0.27,-0.14,green,1,-0.27,0.14,orange,1,0.14,0.41,red,1,0.27,-0.27,yellow,1,-0.41,-0.27,magenta,1,-0.14,0.41,black,1,0.05,0.05,0.15,-0.14,0.41,magenta,l,701522,23,2020-08-05_11h46.05.603,CDT_GNG_IUS12,2020.1.2,Win32,60,l,1,1.208615,0,34,34,103,1,,,,,,,,,,,,,,,,,,,,,,,,,,,,,,,,,,,,,,,,,,,,,,,,
,,,,,,,,,,,,80,same,8,0.41,0.14,red,1,0.41,-0.14,blue,1,-0.41,-0.41,black,1,-0.41,0.14,green,1,0.14,0.41,orange,1,0.27,-0.41,cyan,1,-0.41,-0.14,magenta,1,-0.41,0.41,yellow,1,0.05,0.05,0.15,0.27,-0.41,cyan,k,701522,23,2020-08-05_11h46.05.603,CDT_GNG_IUS12,2020.1.2,Win32,60,k,1,1.14261,0,35,35,79,1,,,,,,,,,,,,,,,,,,,,,,,,,,,,,,,,,,,,,,,,,,,,,,,,
,,,,,,,,,,,,74,same,8,0.41,0.41,blue,1,0.14,-0.14,orange,1,-0.27,-0.41,cyan,1,-0.27,0.41,yellow,1,0.41,0.27,black,1,0.41,-0.41,red,1,-0.14,-0.27,magenta,1,-0.27,0.14,green,1,0.05,0.05,0.15,0.41,0.27,black,k,701522,23,2020-08-05_11h46.05.603,CDT_GNG_IUS12,2020.1.2,Win32,60,k,1,1.61142,0,36,36,73,1,,,,,,,,,,,,,,,,,,,,,,,,,,,,,,,,,,,,,,,,,,,,,,,,
,,,,,,,,,,,,83,same,8,0.14,0.27,yellow,1,0.27,-0.41,orange,1,-0.27,-0.41,green,1,-0.41,0.14,cyan,1,0.41,0.27,blue,1,0.14,-0.14,magenta,1,-0.14,-0.14,red,1,-0.41,0.41,black,1,0.05,0.05,0.15,-0.41,0.41,black,k,701522,23,2020-08-05_11h46.05.603,CDT_GNG_IUS12,2020.1.2,Win32,60,l,0,0.99354,0,37,37,82,1,,,,,,,,,,,,,,,,,,,,,,,,,,,,,,,,,,,,,,,,,,,,,,,,
,,,,,,,,,,,,25,same,4,0.41,0.27,cyan,1,0.27,-0.27,yellow,1,-0.41,-0.14,black,1,-0.14,0.27,blue,1,0.41,0.14,green,0,0.14,-0.41,magenta,0,-0.41,-0.41,orange,0,-0.27,0.41,red,0,0.05,0.05,0.15,0.27,-0.27,yellow,k,701522,23,2020-08-05_11h46.05.603,CDT_GNG_IUS12,2020.1.2,Win32,60,k,1,1.286495,0,38,38,24,1,,,,,,,,,,,,,,,,,,,,,,,,,,,,,,,,,,,,,,,,,,,,,,,,
,,,,,,,,,,,,19,same,4,0.27,0.41,blue,1,0.14,-0.41,red,1,-0.14,-0.27,black,1,-0.14,0.27,magenta,1,0.27,0.14,yellow,0,0.27,-0.14,orange,0,-0.14,-0.41,green,0,-0.14,0.14,cyan,0,0.05,0.05,0.15,0.27,0.41,blue,k,701522,23,2020-08-05_11h46.05.603,CDT_GNG_IUS12,2020.1.2,Win32,60,k,1,1.069745,0,39,39,18,1,,,,,,,,,,,,,,,,,,,,,,,,,,,,,,,,,,,,,,,,,,,,,,,,
,,,,,,,,,,,,81,same,8,0.27,0.14,yellow,1,0.41,-0.14,blue,1,-0.41,-0.14,green,1,-0.41,0.14,orange,1,0.14,0.41,red,1,0.14,-0.27,magenta,1,-0.14,-0.27,cyan,1,-0.14,0.14,black,1,0.05,0.05,0.15,-0.41,0.14,orange,k,701522,23,2020-08-05_11h46.05.603,CDT_GNG_IUS12,2020.1.2,Win32,60,l,0,1.47428,0,40,40,80,1,,,,,,,,,,,,,,,,,,,,,,,,,,,,,,,,,,,,,,,,,,,,,,,,
,,,,,,,,,,,,32,different,4,0.41,0.27,orange,1,0.41,-0.41,green,1,-0.14,-0.14,cyan,1,-0.41,0.41,red,1,0.27,0.41,black,0,0.27,-0.41,magenta,0,-0.27,-0.14,blue,0,-0.14,0.14,yellow,0,0.05,0.05,0.15,-0.14,-0.14,blue,l,701522,23,2020-08-05_11h46.05.603,CDT_GNG_IUS12,2020.1.2,Win32,60,l,1,0.98286,0,41,41,31,1,,,,,,,,,,,,,,,,,,,,,,,,,,,,,,,,,,,,,,,,,,,,,,,,
,,,,,,,,,,,,18,same,4,0.41,0.27,orange,1,0.14,-0.27,blue,1,-0.27,-0.41,yellow,1,-0.41,0.27,magenta,1,0.14,0.41,red,0,0.14,-0.14,black,0,-0.41,-0.27,green,0,-0.41,0.41,cyan,0,0.05,0.05,0.15,0.14,-0.27,blue,k,701522,23,2020-08-05_11h46.05.603,CDT_GNG_IUS12,2020.1.2,Win32,60,k,1,1.46761,0,42,42,17,1,,,,,,,,,,,,,,,,,,,,,,,,,,,,,,,,,,,,,,,,,,,,,,,,
,,,,,,,,,,,,17,same,4,0.41,0.27,cyan,1,0.41,-0.41,black,1,-0.14,-0.27,magenta,1,-0.14,0.41,green,1,0.14,0.14,orange,0,0.14,-0.41,yellow,0,-0.14,-0.41,red,0,-0.27,0.14,blue,0,0.05,0.05,0.15,-0.14,0.41,green,k,701522,23,2020-08-05_11h46.05.603,CDT_GNG_IUS12,2020.1.2,Win32,60,k,1,0.901255,0,43,43,16,1,,,,,,,,,,,,,,,,,,,,,,,,,,,,,,,,,,,,,,,,,,,,,,,,
,,,,,,,,,,,,66,same,8,0.27,0.27,magenta,1,0.14,-0.41,green,1,-0.27,-0.14,yellow,1,-0.14,0.27,orange,1,0.41,0.41,red,1,0.14,-0.14,cyan,1,-0.14,-0.27,black,1,-0.27,0.41,blue,1,0.05,0.05,0.15,0.41,0.41,red,k,701522,23,2020-08-05_11h46.05.603,CDT_GNG_IUS12,2020.1.2,Win32,60,l,0,0.956525,0,44,44,65,1,,,,,,,,,,,,,,,,,,,,,,,,,,,,,,,,,,,,,,,,,,,,,,,,
,,,,,,,,,,,,111,different,8,0.27,0.14,red,1,0.41,-0.27,green,1,-0.27,-0.14,yellow,1,-0.14,0.14,orange,1,0.41,0.41,black,1,0.27,-0.27,cyan,1,-0.27,-0.41,blue,1,-0.27,0.14,magenta,1,0.05,0.05,0.15,-0.27,-0.41,red,l,701522,23,2020-08-05_11h46.05.603,CDT_GNG_IUS12,2020.1.2,Win32,60,l,1,0.86588,0,45,45,110,1,,,,,,,,,,,,,,,,,,,,,,,,,,,,,,,,,,,,,,,,,,,,,,,,
,,,,,,,,,,,,51,different,4,0.41,0.41,yellow,1,0.14,-0.27,red,1,-0.14,-0.27,cyan,1,-0.41,0.14,orange,1,0.14,0.41,green,0,0.27,-0.41,black,0,-0.27,-0.14,blue,0,-0.41,0.27,magenta,0,0.05,0.05,0.15,0.41,0.41,red,l,701522,23,2020-08-05_11h46.05.603,CDT_GNG_IUS12,2020.1.2,Win32,60,l,1,0.89161,0,46,46,50,1,,,,,,,,,,,,,,,,,,,,,,,,,,,,,,,,,,,,,,,,,,,,,,,,
,,,,,,,,,,,,58,different,4,0.14,0.41,blue,1,0.14,-0.14,black,1,-0.14,-0.14,yellow,1,-0.27,0.41,magenta,1,0.27,0.41,red,0,0.14,-0.27,cyan,0,-0.41,-0.27,orange,0,-0.27,0.27,green,0,0.05,0.05,0.15,0.14,0.41,yellow,l,701522,23,2020-08-05_11h46.05.603,CDT_GNG_IUS12,2020.1.2,Win32,60,l,1,0.927625,0,47,47,57,1,,,,,,,,,,,,,,,,,,,,,,,,,,,,,,,,,,,,,,,,,,,,,,,,
,,,,,,,,,,,,3,same,4,0.27,0.14,green,1,0.27,-0.27,orange,1,-0.27,-0.41,yellow,1,-0.41,0.41,magenta,1,0.14,0.41,black,0,0.14,-0.41,red,0,-0.27,-0.14,cyan,0,-0.14,0.14,blue,0,0.05,0.05,0.15,-0.27,-0.41,yellow,k,701522,23,2020-08-05_11h46.05.603,CDT_GNG_IUS12,2020.1.2,Win32,60,k,1,0.969075,0,48,48,2,1,,,,,,,,,,,,,,,,,,,,,,,,,,,,,,,,,,,,,,,,,,,,,,,,
,,,,,,,,,,,,67,same,8,0.14,0.27,yellow,1,0.27,-0.14,magenta,1,-0.27,-0.27,black,1,-0.41,0.41,blue,1,0.41,0.14,cyan,1,0.14,-0.14,red,1,-0.41,-0.14,orange,1,-0.41,0.27,green,1,0.05,0.05,0.15,-0.27,-0.27,black,k,701522,23,2020-08-05_11h46.05.603,CDT_GNG_IUS12,2020.1.2,Win32,60,k,1,1.25058,0,49,49,66,1,,,,,,,,,,,,,,,,,,,,,,,,,,,,,,,,,,,,,,,,,,,,,,,,
,,,,,,,,,,,,20,same,4,0.27,0.14,cyan,1,0.14,-0.14,orange,1,-0.27,-0.27,green,1,-0.41,0.27,yellow,1,0.14,0.41,black,0,0.41,-0.41,red,0,-0.27,-0.41,magenta,0,-0.27,0.27,blue,0,0.05,0.05,0.15,-0.27,-0.27,green,k,701522,23,2020-08-05_11h46.05.603,CDT_GNG_IUS12,2020.1.2,Win32,60,k,1,0.752415,0,50,50,19,1,,,,,,,,,,,,,,,,,,,,,,,,,,,,,,,,,,,,,,,,,,,,,,,,
,,,,,,,,,,,,76,same,8,0.14,0.27,orange,1,0.41,-0.14,cyan,1,-0.27,-0.27,blue,1,-0.14,0.14,black,1,0.27,0.41,green,1,0.27,-0.14,red,1,-0.27,-0.14,yellow,1,-0.27,0.27,magenta,1,0.05,0.05,0.15,0.41,-0.14,cyan,k,701522,23,2020-08-05_11h46.05.603,CDT_GNG_IUS12,2020.1.2,Win32,60,l,0,1.18795,0,51,51,75,1,,,,,,,,,,,,,,,,,,,,,,,,,,,,,,,,,,,,,,,,,,,,,,,,
,,,,,,,,,,,,92,different,8,0.27,0.27,yellow,1,0.14,-0.27,green,1,-0.41,-0.14,blue,1,-0.41,0.41,red,1,0.14,0.27,magenta,1,0.27,-0.14,cyan,1,-0.14,-0.14,orange,1,-0.27,0.27,black,1,0.05,0.05,0.15,-0.41,-0.14,magenta,l,701522,23,2020-08-05_11h46.05.603,CDT_GNG_IUS12,2020.1.2,Win32,60,l,1,1.55406,0,52,52,91,1,,,,,,,,,,,,,,,,,,,,,,,,,,,,,,,,,,,,,,,,,,,,,,,,
,,,,,,,,,,,,59,different,4,0.27,0.41,black,1,0.41,-0.14,blue,1,-0.27,-0.27,cyan,1,-0.14,0.41,green,1,0.14,0.27,red,0,0.41,-0.41,magenta,0,-0.14,-0.27,orange,0,-0.41,0.27,yellow,0,0.05,0.05,0.15,0.27,0.41,yellow,l,701522,23,2020-08-05_11h46.05.603,CDT_GNG_IUS12,2020.1.2,Win32,60,l,1,0.76417,0,53,53,58,1,,,,,,,,,,,,,,,,,,,,,,,,,,,,,,,,,,,,,,,,,,,,,,,,
,,,,,,,,,,,,2,same,4,0.27,0.41,magenta,1,0.41,-0.14,red,1,-0.27,-0.14,orange,1,-0.27,0.14,blue,1,0.14,0.14,cyan,0,0.14,-0.14,green,0,-0.14,-0.14,black,0,-0.14,0.41,yellow,0,0.05,0.05,0.15,-0.27,-0.14,orange,k,701522,23,2020-08-05_11h46.05.603,CDT_GNG_IUS12,2020.1.2,Win32,60,k,1,0.787155,0,54,54,1,1,,,,,,,,,,,,,,,,,,,,,,,,,,,,,,,,,,,,,,,,,,,,,,,,
,,,,,,,,,,,,72,same,8,0.27,0.41,blue,1,0.41,-0.27,magenta,1,-0.41,-0.41,yellow,1,-0.27,0.41,black,1,0.41,0.41,cyan,1,0.27,-0.41,green,1,-0.41,-0.27,orange,1,-0.14,0.27,red,1,0.05,0.05,0.15,-0.14,0.27,red,k,701522,23,2020-08-05_11h46.05.603,CDT_GNG_IUS12,2020.1.2,Win32,60,l,0,1.090595,0,55,55,71,1,,,,,,,,,,,,,,,,,,,,,,,,,,,,,,,,,,,,,,,,,,,,,,,,
,,,,,,,,,,,,117,different,8,0.14,0.41,black,1,0.14,-0.41,cyan,1,-0.41,-0.27,magenta,1,-0.27,0.41,yellow,1,0.41,0.27,orange,1,0.41,-0.14,red,1,-0.27,-0.27,green,1,-0.14,0.14,blue,1,0.05,0.05,0.15,0.41,-0.14,black,l,701522,23,2020-08-05_11h46.05.603,CDT_GNG_IUS12,2020.1.2,Win32,60,l,1,0.903195,0,56,56,116,1,,,,,,,,,,,,,,,,,,,,,,,,,,,,,,,,,,,,,,,,,,,,,,,,
,,,,,,,,,,,,49,different,4,0.27,0.14,green,1,0.41,-0.14,yellow,1,-0.27,-0.41,red,1,-0.14,0.14,cyan,1,0.14,0.14,blue,0,0.27,-0.27,black,0,-0.14,-0.41,orange,0,-0.41,0.14,magenta,0,0.05,0.05,0.15,0.27,0.14,yellow,l,701522,23,2020-08-05_11h46.05.603,CDT_GNG_IUS12,2020.1.2,Win32,60,k,0,1.011095,0,57,57,48,1,,,,,,,,,,,,,,,,,,,,,,,,,,,,,,,,,,,,,,,,,,,,,,,,
,,,,,,,,,,,,40,different,4,0.41,0.41,magenta,1,0.41,-0.27,cyan,1,-0.27,-0.41,yellow,1,-0.14,0.41,black,1,0.27,0.27,blue,0,0.41,-0.41,green,0,-0.14,-0.27,red,0,-0.27,0.27,orange,0,0.05,0.05,0.15,-0.27,-0.41,orange,l,701522,23,2020-08-05_11h46.05.603,CDT_GNG_IUS12,2020.1.2,Win32,60,k,0,1.0251,0,58,58,39,1,,,,,,,,,,,,,,,,,,,,,,,,,,,,,,,,,,,,,,,,,,,,,,,,
,,,,,,,,,,,,15,same,4,0.41,0.14,magenta,1,0.41,-0.27,blue,1,-0.27,-0.14,yellow,1,-0.14,0.41,green,1,0.41,0.27,red,0,0.14,-0.14,orange,0,-0.14,-0.14,cyan,0,-0.27,0.27,black,0,0.05,0.05,0.15,-0.14,0.41,green,k,701522,23,2020-08-05_11h46.05.603,CDT_GNG_IUS12,2020.1.2,Win32,60,k,1,0.7381,0,59,59,14,1,,,,,,,,,,,,,,,,,,,,,,,,,,,,,,,,,,,,,,,,,,,,,,,,
,,,,,,,,,,,,9,same,4,0.27,0.27,red,1,0.14,-0.27,orange,1,-0.14,-0.41,yellow,1,-0.27,0.41,blue,1,0.41,0.41,green,0,0.41,-0.41,cyan,0,-0.27,-0.41,magenta,0,-0.27,0.27,black,0,0.05,0.05,0.15,0.27,0.27,red,k,701522,23,2020-08-05_11h46.05.603,CDT_GNG_IUS12,2020.1.2,Win32,60,l,0,0.84117,0,60,60,8,1,,,,,,,,,,,,,,,,,,,,,,,,,,,,,,,,,,,,,,,,,,,,,,,,
,,,,,,,,,,,,116,different,8,0.27,0.14,green,1,0.41,-0.14,black,1,-0.27,-0.41,magenta,1,-0.41,0.14,cyan,1,0.41,0.41,blue,1,0.41,-0.27,yellow,1,-0.41,-0.27,red,1,-0.27,0.14,orange,1,0.05,0.05,0.15,0.41,-0.27,magenta,l,701522,23,2020-08-05_11h46.05.603,CDT_GNG_IUS12,2020.1.2,Win32,60,k,0,0.83051,0,61,61,115,1,,,,,,,,,,,,,,,,,,,,,,,,,,,,,,,,,,,,,,,,,,,,,,,,
,,,,,,,,,,,,30,same,4,0.14,0.41,black,1,0.41,-0.27,yellow,1,-0.14,-0.27,green,1,-0.41,0.14,orange,1,0.41,0.27,blue,0,0.14,-0.41,magenta,0,-0.27,-0.27,cyan,0,-0.41,0.41,red,0,0.05,0.05,0.15,0.14,0.41,black,k,701522,23,2020-08-05_11h46.05.603,CDT_GNG_IUS12,2020.1.2,Win32,60,k,1,1.046375,0,62,62,29,1,,,,,,,,,,,,,,,,,,,,,,,,,,,,,,,,,,,,,,,,,,,,,,,,
,,,,,,,,,,,,24,same,4,0.41,0.27,green,1,0.14,-0.27,black,1,-0.27,-0.27,yellow,1,-0.14,0.14,orange,1,0.41,0.14,blue,0,0.14,-0.14,cyan,0,-0.41,-0.14,red,0,-0.27,0.41,magenta,0,0.05,0.05,0.15,-0.14,0.14,orange,k,701522,23,2020-08-05_11h46.05.603,CDT_GNG_IUS12,2020.1.2,Win32,60,k,1,0.725285,0,63,63,23,1,,,,,,,,,,,,,,,,,,,,,,,,,,,,,,,,,,,,,,,,,,,,,,,,
,,,,,,,,,,,,44,different,4,0.27,0.27,black,1,0.41,-0.14,red,1,-0.41,-0.27,magenta,1,-0.14,0.14,green,1,0.41,0.41,cyan,0,0.14,-0.14,yellow,0,-0.27,-0.41,blue,0,-0.27,0.14,orange,0,0.05,0.05,0.15,0.41,-0.14,magenta,l,701522,23,2020-08-05_11h46.05.603,CDT_GNG_IUS12,2020.1.2,Win32,60,k,0,0.88153,0,64,64,43,1,,,,,,,,,,,,,,,,,,,,,,,,,,,,,,,,,,,,,,,,,,,,,,,,
,,,,,,,,,,,,106,different,8,0.41,0.41,black,1,0.14,-0.41,yellow,1,-0.41,-0.14,orange,1,-0.27,0.27,blue,1,0.14,0.41,red,1,0.41,-0.27,green,1,-0.14,-0.14,cyan,1,-0.14,0.14,magenta,1,0.05,0.05,0.15,-0.41,-0.14,green,l,701522,23,2020-08-05_11h46.05.603,CDT_GNG_IUS12,2020.1.2,Win32,60,l,1,0.98801,0,65,65,105,1,,,,,,,,,,,,,,,,,,,,,,,,,,,,,,,,,,,,,,,,,,,,,,,,
,,,,,,,,,,,,53,different,4,0.14,0.27,cyan,1,0.41,-0.14,yellow,1,-0.41,-0.41,green,1,-0.14,0.41,black,1,0.41,0.27,red,0,0.14,-0.14,magenta,0,-0.27,-0.27,blue,0,-0.27,0.27,orange,0,0.05,0.05,0.15,0.14,0.27,blue,l,701522,23,2020-08-05_11h46.05.603,CDT_GNG_IUS12,2020.1.2,Win32,60,l,1,0.81573,0,66,66,52,1,,,,,,,,,,,,,,,,,,,,,,,,,,,,,,,,,,,,,,,,,,,,,,,,
,,,,,,,,,,,,21,same,4,0.41,0.27,magenta,1,0.27,-0.41,black,1,-0.27,-0.14,orange,1,-0.41,0.41,green,1,0.27,0.14,yellow,0,0.27,-0.14,cyan,0,-0.27,-0.27,red,0,-0.41,0.27,blue,0,0.05,0.05,0.15,0.27,-0.41,black,k,701522,23,2020-08-05_11h46.05.603,CDT_GNG_IUS12,2020.1.2,Win32,60,k,1,0.85802,0,67,67,20,1,,,,,,,,,,,,,,,,,,,,,,,,,,,,,,,,,,,,,,,,,,,,,,,,
,,,,,,,,,,,,38,different,4,0.27,0.27,black,1,0.14,-0.27,green,1,-0.14,-0.27,magenta,1,-0.41,0.14,blue,1,0.14,0.41,orange,0,0.27,-0.41,yellow,0,-0.41,-0.14,cyan,0,-0.27,0.41,red,0,0.05,0.05,0.15,-0.14,-0.27,orange,l,701522,23,2020-08-05_11h46.05.603,CDT_GNG_IUS12,2020.1.2,Win32,60,l,1,1.507235,0,68,68,37,1,,,,,,,,,,,,,,,,,,,,,,,,,,,,,,,,,,,,,,,,,,,,,,,,
,,,,,,,,,,,,54,different,4,0.14,0.14,yellow,1,0.41,-0.41,magenta,1,-0.14,-0.41,black,1,-0.14,0.27,orange,1,0.41,0.27,cyan,0,0.41,-0.27,red,0,-0.27,-0.14,green,0,-0.27,0.27,blue,0,0.05,0.05,0.15,0.41,-0.41,cyan,l,701522,23,2020-08-05_11h46.05.603,CDT_GNG_IUS12,2020.1.2,Win32,60,l,1,1.458595,0,69,69,53,1,,,,,,,,,,,,,,,,,,,,,,,,,,,,,,,,,,,,,,,,,,,,,,,,
,,,,,,,,,,,,60,different,4,0.41,0.14,cyan,1,0.14,-0.41,green,1,-0.41,-0.41,yellow,1,-0.41,0.41,magenta,1,0.14,0.14,orange,0,0.41,-0.41,red,0,-0.14,-0.41,black,0,-0.27,0.27,blue,0,0.05,0.05,0.15,0.41,0.14,blue,l,701522,23,2020-08-05_11h46.05.603,CDT_GNG_IUS12,2020.1.2,Win32,60,l,1,0.70421,0,70,70,59,1,,,,,,,,,,,,,,,,,,,,,,,,,,,,,,,,,,,,,,,,,,,,,,,,
,,,,,,,,,,,,84,same,8,0.27,0.14,magenta,1,0.14,-0.14,yellow,1,-0.14,-0.14,blue,1,-0.27,0.27,red,1,0.41,0.14,cyan,1,0.41,-0.27,orange,1,-0.14,-0.27,black,1,-0.41,0.14,green,1,0.05,0.05,0.15,-0.27,0.27,red,k,701522,23,2020-08-05_11h46.05.603,CDT_GNG_IUS12,2020.1.2,Win32,60,k,1,0.667715,0,71,71,83,1,,,,,,,,,,,,,,,,,,,,,,,,,,,,,,,,,,,,,,,,,,,,,,,,
,,,,,,,,,,,,119,different,8,0.27,0.27,green,1,0.27,-0.14,orange,1,-0.41,-0.41,cyan,1,-0.27,0.27,blue,1,0.41,0.27,black,1,0.14,-0.41,red,1,-0.14,-0.41,yellow,1,-0.41,0.27,magenta,1,0.05,0.05,0.15,-0.41,0.27,cyan,l,701522,23,2020-08-05_11h46.05.603,CDT_GNG_IUS12,2020.1.2,Win32,60,k,0,2.77959,0,72,72,118,1,,,,,,,,,,,,,,,,,,,,,,,,,,,,,,,,,,,,,,,,,,,,,,,,
,,,,,,,,,,,,103,different,8,0.14,0.14,black,1,0.14,-0.27,cyan,1,-0.41,-0.41,green,1,-0.41,0.27,red,1,0.27,0.41,orange,1,0.27,-0.27,blue,1,-0.41,-0.14,magenta,1,-0.41,0.41,yellow,1,0.05,0.05,0.15,0.27,-0.27,magenta,l,701522,23,2020-08-05_11h46.05.603,CDT_GNG_IUS12,2020.1.2,Win32,60,l,1,0.84852,0,73,73,102,1,,,,,,,,,,,,,,,,,,,,,,,,,,,,,,,,,,,,,,,,,,,,,,,,
,,,,,,,,,,,,43,different,4,0.27,0.27,red,1,0.14,-0.27,orange,1,-0.41,-0.14,green,1,-0.27,0.27,cyan,1,0.41,0.41,black,0,0.27,-0.14,magenta,0,-0.41,-0.41,yellow,0,-0.41,0.41,blue,0,0.05,0.05,0.15,-0.41,-0.14,magenta,l,701522,23,2020-08-05_11h46.05.603,CDT_GNG_IUS12,2020.1.2,Win32,60,l,1,0.84131,0,74,74,42,1,,,,,,,,,,,,,,,,,,,,,,,,,,,,,,,,,,,,,,,,,,,,,,,,
,,,,,,,,,,,,50,different,4,0.41,0.14,black,1,0.14,-0.14,blue,1,-0.41,-0.41,red,1,-0.27,0.14,green,1,0.14,0.41,cyan,0,0.41,-0.14,magenta,0,-0.14,-0.27,yellow,0,-0.27,0.41,orange,0,0.05,0.05,0.15,-0.41,-0.41,orange,l,701522,23,2020-08-05_11h46.05.603,CDT_GNG_IUS12,2020.1.2,Win32,60,l,1,0.92097,0,75,75,49,1,,,,,,,,,,,,,,,,,,,,,,,,,,,,,,,,,,,,,,,,,,,,,,,,
,,,,,,,,,,,,47,different,4,0.27,0.27,magenta,1,0.41,-0.27,black,1,-0.14,-0.41,red,1,-0.14,0.41,green,1,0.41,0.41,cyan,0,0.27,-0.14,orange,0,-0.27,-0.14,blue,0,-0.27,0.14,yellow,0,0.05,0.05,0.15,0.27,0.27,blue,l,701522,23,2020-08-05_11h46.05.603,CDT_GNG_IUS12,2020.1.2,Win32,60,l,1,2.14251,0,76,76,46,1,,,,,,,,,,,,,,,,,,,,,,,,,,,,,,,,,,,,,,,,,,,,,,,,
,,,,,,,,,,,,96,different,8,0.14,0.14,yellow,1,0.14,-0.41,black,1,-0.27,-0.27,orange,1,-0.14,0.41,blue,1,0.14,0.27,magenta,1,0.41,-0.27,cyan,1,-0.41,-0.41,red,1,-0.41,0.41,green,1,0.05,0.05,0.15,0.41,-0.27,magenta,l,701522,23,2020-08-05_11h46.05.603,CDT_GNG_IUS12,2020.1.2,Win32,60,k,0,1.424495,0,77,77,95,1,,,,,,,,,,,,,,,,,,,,,,,,,,,,,,,,,,,,,,,,,,,,,,,,
,,,,,,,,,,,,64,same,8,0.41,0.14,green,1,0.14,-0.41,cyan,1,-0.14,-0.14,yellow,1,-0.14,0.27,red,1,0.27,0.14,blue,1,0.27,-0.27,magenta,1,-0.14,-0.27,orange,1,-0.14,0.41,black,1,0.05,0.05,0.15,-0.14,0.27,red,k,701522,23,2020-08-05_11h46.05.603,CDT_GNG_IUS12,2020.1.2,Win32,60,k,1,0.534745,0,78,78,63,1,,,,,,,,,,,,,,,,,,,,,,,,,,,,,,,,,,,,,,,,,,,,,,,,
,,,,,,,,,,,,112,different,8,0.27,0.41,magenta,1,0.14,-0.41,green,1,-0.14,-0.14,black,1,-0.27,0.27,cyan,1,0.41,0.41,red,1,0.14,-0.27,blue,1,-0.41,-0.14,orange,1,-0.14,0.14,yellow,1,0.05,0.05,0.15,0.41,0.41,blue,l,701522,23,2020-08-05_11h46.05.603,CDT_GNG_IUS12,2020.1.2,Win32,60,l,1,1.03982,0,79,79,111,1,,,,,,,,,,,,,,,,,,,,,,,,,,,,,,,,,,,,,,,,,,,,,,,,
,,,,,,,,,,,,115,different,8,0.14,0.27,green,1,0.27,-0.41,orange,1,-0.14,-0.14,yellow,1,-0.27,0.41,magenta,1,0.27,0.14,blue,1,0.14,-0.27,red,1,-0.41,-0.14,cyan,1,-0.41,0.14,black,1,0.05,0.05,0.15,0.14,-0.27,cyan,l,701522,23,2020-08-05_11h46.05.603,CDT_GNG_IUS12,2020.1.2,Win32,60,l,1,1.65427,0,80,80,114,1,,,,,,,,,,,,,,,,,,,,,,,,,,,,,,,,,,,,,,,,,,,,,,,,
,,,,,,,,,,,,63,same,8,0.27,0.27,magenta,1,0.27,-0.27,yellow,1,-0.27,-0.14,orange,1,-0.14,0.14,green,1,0.41,0.27,blue,1,0.41,-0.27,cyan,1,-0.41,-0.41,red,1,-0.41,0.27,black,1,0.05,0.05,0.15,0.27,0.27,magenta,k,701522,23,2020-08-05_11h46.05.603,CDT_GNG_IUS12,2020.1.2,Win32,60,l,0,0.98123,0,81,81,62,1,,,,,,,,,,,,,,,,,,,,,,,,,,,,,,,,,,,,,,,,,,,,,,,,
,,,,,,,,,,,,89,same,8,0.14,0.14,blue,1,0.14,-0.27,orange,1,-0.14,-0.27,yellow,1,-0.41,0.27,red,1,0.27,0.27,cyan,1,0.14,-0.14,green,1,-0.14,-0.41,magenta,1,-0.41,0.41,black,1,0.05,0.05,0.15,0.14,-0.27,orange,k,701522,23,2020-08-05_11h46.05.603,CDT_GNG_IUS12,2020.1.2,Win32,60,l,0,0.757015,0,82,82,88,1,,,,,,,,,,,,,,,,,,,,,,,,,,,,,,,,,,,,,,,,,,,,,,,,
,,,,,,,,,,,,98,different,8,0.41,0.27,black,1,0.14,-0.27,yellow,1,-0.14,-0.27,cyan,1,-0.27,0.14,red,1,0.27,0.27,green,1,0.41,-0.41,magenta,1,-0.41,-0.14,blue,1,-0.41,0.41,orange,1,0.05,0.05,0.15,0.41,0.27,red,l,701522,23,2020-08-05_11h46.05.603,CDT_GNG_IUS12,2020.1.2,Win32,60,l,1,0.74997,0,83,83,97,1,,,,,,,,,,,,,,,,,,,,,,,,,,,,,,,,,,,,,,,,,,,,,,,,
,,,,,,,,,,,,56,different,4,0.27,0.14,yellow,1,0.41,-0.14,blue,1,-0.14,-0.27,green,1,-0.41,0.14,cyan,1,0.14,0.14,magenta,0,0.41,-0.41,red,0,-0.41,-0.14,orange,0,-0.41,0.27,black,0,0.05,0.05,0.15,-0.14,-0.27,magenta,l,701522,23,2020-08-05_11h46.05.603,CDT_GNG_IUS12,2020.1.2,Win32,60,l,1,0.66687,0,84,84,55,1,,,,,,,,,,,,,,,,,,,,,,,,,,,,,,,,,,,,,,,,,,,,,,,,
,,,,,,,,,,,,26,same,4,0.14,0.14,black,1,0.14,-0.14,red,1,-0.41,-0.14,yellow,1,-0.14,0.41,orange,1,0.27,0.14,blue,0,0.14,-0.27,magenta,0,-0.27,-0.41,green,0,-0.14,0.27,cyan,0,0.05,0.05,0.15,-0.41,-0.14,yellow,k,701522,23,2020-08-05_11h46.05.603,CDT_GNG_IUS12,2020.1.2,Win32,60,k,1,0.70861,0,85,85,25,1,,,,,,,,,,,,,,,,,,,,,,,,,,,,,,,,,,,,,,,,,,,,,,,,
,,,,,,,,,,,,93,different,8,0.14,0.41,blue,1,0.14,-0.27,red,1,-0.41,-0.14,magenta,1,-0.14,0.27,black,1,0.41,0.27,yellow,1,0.41,-0.14,orange,1,-0.27,-0.14,green,1,-0.14,0.41,cyan,1,0.05,0.05,0.15,0.41,-0.14,blue,l,701522,23,2020-08-05_11h46.05.603,CDT_GNG_IUS12,2020.1.2,Win32,60,l,1,1.15447,0,86,86,92,1,,,,,,,,,,,,,,,,,,,,,,,,,,,,,,,,,,,,,,,,,,,,,,,,
,,,,,,,,,,,,41,different,4,0.41,0.41,green,1,0.27,-0.41,orange,1,-0.27,-0.41,black,1,-0.27,0.41,magenta,1,0.14,0.41,cyan,0,0.41,-0.27,blue,0,-0.14,-0.27,red,0,-0.27,0.14,yellow,0,0.05,0.05,0.15,-0.27,-0.41,cyan,l,701522,23,2020-08-05_11h46.05.603,CDT_GNG_IUS12,2020.1.2,Win32,60,l,1,0.788645,0,87,87,40,1,,,,,,,,,,,,,,,,,,,,,,,,,,,,,,,,,,,,,,,,,,,,,,,,
,,,,,,,,,,,,1,same,4,0.14,0.14,magenta,1,0.27,-0.14,blue,1,-0.27,-0.14,black,1,-0.27,0.27,green,1,0.41,0.41,red,0,0.27,-0.27,cyan,0,-0.14,-0.14,yellow,0,-0.27,0.41,orange,0,0.05,0.05,0.15,0.14,0.14,magenta,k,701522,23,2020-08-05_11h46.05.603,CDT_GNG_IUS12,2020.1.2,Win32,60,k,1,0.71005,0,88,88,0,1,,,,,,,,,,,,,,,,,,,,,,,,,,,,,,,,,,,,,,,,,,,,,,,,
,,,,,,,,,,,,46,different,4,0.14,0.14,red,1,0.14,-0.14,green,1,-0.14,-0.41,orange,1,-0.27,0.41,blue,1,0.41,0.27,cyan,0,0.14,-0.27,magenta,0,-0.14,-0.14,black,0,-0.41,0.27,yellow,0,0.05,0.05,0.15,-0.14,-0.41,blue,l,701522,23,2020-08-05_11h46.05.603,CDT_GNG_IUS12,2020.1.2,Win32,60,l,1,0.87027,0,89,89,45,1,,,,,,,,,,,,,,,,,,,,,,,,,,,,,,,,,,,,,,,,,,,,,,,,
,,,,,,,,,,,,23,same,4,0.41,0.14,cyan,1,0.14,-0.27,magenta,1,-0.14,-0.27,red,1,-0.14,0.27,green,1,0.41,0.27,blue,0,0.14,-0.41,yellow,0,-0.41,-0.27,orange,0,-0.27,0.41,black,0,0.05,0.05,0.15,-0.14,0.27,green,k,701522,23,2020-08-05_11h46.05.603,CDT_GNG_IUS12,2020.1.2,Win32,60,k,1,1.151215,0,90,90,22,1,,,,,,,,,,,,,,,,,,,,,,,,,,,,,,,,,,,,,,,,,,,,,,,,
,,,,,,,,,,,,107,different,8,0.27,0.41,green,1,0.27,-0.41,cyan,1,-0.41,-0.41,black,1,-0.14,0.41,blue,1,0.14,0.14,red,1,0.27,-0.27,yellow,1,-0.14,-0.41,magenta,1,-0.14,0.14,orange,1,0.05,0.05,0.15,-0.14,0.14,black,l,701522,23,2020-08-05_11h46.05.603,CDT_GNG_IUS12,2020.1.2,Win32,60,l,1,1.13944,0,91,91,106,1,,,,,,,,,,,,,,,,,,,,,,,,,,,,,,,,,,,,,,,,,,,,,,,,
,,,,,,,,,,,,78,same,8,0.41,0.14,green,1,0.14,-0.27,magenta,1,-0.41,-0.27,blue,1,-0.41,0.41,black,1,0.41,0.27,cyan,1,0.41,-0.14,orange,1,-0.14,-0.41,yellow,1,-0.14,0.41,red,1,0.05,0.05,0.15,-0.41,-0.27,blue,k,701522,23,2020-08-05_11h46.05.603,CDT_GNG_IUS12,2020.1.2,Win32,60,l,0,1.06754,0,92,92,77,1,,,,,,,,,,,,,,,,,,,,,,,,,,,,,,,,,,,,,,,,,,,,,,,,
,,,,,,,,,,,,55,different,4,0.14,0.14,black,1,0.41,-0.14,cyan,1,-0.27,-0.27,magenta,1,-0.14,0.41,blue,1,0.27,0.14,yellow,0,0.14,-0.27,red,0,-0.27,-0.41,orange,0,-0.27,0.41,green,0,0.05,0.05,0.15,0.14,0.14,yellow,l,701522,23,2020-08-05_11h46.05.603,CDT_GNG_IUS12,2020.1.2,Win32,60,l,1,1.52751,0,93,93,54,1,,,,,,,,,,,,,,,,,,,,,,,,,,,,,,,,,,,,,,,,,,,,,,,,
,,,,,,,,,,,,22,same,4,0.41,0.27,green,1,0.27,-0.14,black,1,-0.27,-0.41,cyan,1,-0.41,0.14,blue,1,0.14,0.14,magenta,0,0.41,-0.41,orange,0,-0.14,-0.27,red,0,-0.41,0.41,yellow,0,0.05,0.05,0.15,0.27,-0.14,black,k,701522,23,2020-08-05_11h46.05.603,CDT_GNG_IUS12,2020.1.2,Win32,60,k,1,0.85998,0,94,94,21,1,,,,,,,,,,,,,,,,,,,,,,,,,,,,,,,,,,,,,,,,,,,,,,,,
,,,,,,,,,,,,109,different,8,0.41,0.14,yellow,1,0.27,-0.27,cyan,1,-0.14,-0.27,magenta,1,-0.27,0.14,orange,1,0.41,0.41,green,1,0.27,-0.41,red,1,-0.27,-0.41,black,1,-0.27,0.41,blue,1,0.05,0.05,0.15,0.27,-0.27,green,l,701522,23,2020-08-05_11h46.05.603,CDT_GNG_IUS12,2020.1.2,Win32,60,k,0,1.25444,0,95,95,108,1,,,,,,,,,,,,,,,,,,,,,,,,,,,,,,,,,,,,,,,,,,,,,,,,
,,,,,,,,,,,,105,different,8,0.41,0.27,cyan,1,0.14,-0.14,magenta,1,-0.27,-0.14,blue,1,-0.41,0.41,yellow,1,0.41,0.41,red,1,0.14,-0.41,green,1,-0.27,-0.27,orange,1,-0.27,0.41,black,1,0.05,0.05,0.15,0.41,0.27,orange,l,701522,23,2020-08-05_11h46.05.603,CDT_GNG_IUS12,2020.1.2,Win32,60,l,1,0.892835,0,96,96,104,1,,,,,,,,,,,,,,,,,,,,,,,,,,,,,,,,,,,,,,,,,,,,,,,,
,,,,,,,,,,,,13,same,4,0.41,0.41,black,1,0.14,-0.14,red,1,-0.14,-0.14,orange,1,-0.14,0.14,cyan,1,0.14,0.14,green,0,0.27,-0.27,magenta,0,-0.27,-0.14,yellow,0,-0.14,0.41,blue,0,0.05,0.05,0.15,0.41,0.41,black,k,701522,23,2020-08-05_11h46.05.603,CDT_GNG_IUS12,2020.1.2,Win32,60,k,1,0.649515,0,97,97,12,1,,,,,,,,,,,,,,,,,,,,,,,,,,,,,,,,,,,,,,,,,,,,,,,,
,,,,,,,,,,,,79,same,8,0.27,0.14,green,1,0.41,-0.14,yellow,1,-0.27,-0.41,orange,1,-0.14,0.14,black,1,0.41,0.27,cyan,1,0.14,-0.14,red,1,-0.14,-0.27,blue,1,-0.27,0.41,magenta,1,0.05,0.05,0.15,0.41,0.27,cyan,k,701522,23,2020-08-05_11h46.05.603,CDT_GNG_IUS12,2020.1.2,Win32,60,l,0,0.923765,0,98,98,78,1,,,,,,,,,,,,,,,,,,,,,,,,,,,,,,,,,,,,,,,,,,,,,,,,
,,,,,,,,,,,,82,same,8,0.27,0.41,yellow,1,0.14,-0.14,magenta,1,-0.14,-0.14,orange,1,-0.14,0.41,black,1,0.14,0.41,red,1,0.27,-0.14,green,1,-0.27,-0.27,cyan,1,-0.41,0.41,blue,1,0.05,0.05,0.15,0.14,-0.14,magenta,k,701522,23,2020-08-05_11h46.05.603,CDT_GNG_IUS12,2020.1.2,Win32,60,k,1,0.992995,0,99,99,81,1,,,,,,,,,,,,,,,,,,,,,,,,,,,,,,,,,,,,,,,,,,,,,,,,
,,,,,,,,,,,,87,same,8,0.27,0.14,red,1,0.14,-0.14,yellow,1,-0.27,-0.14,orange,1,-0.27,0.27,magenta,1,0.41,0.27,blue,1,0.41,-0.41,green,1,-0.27,-0.27,black,1,-0.14,0.27,cyan,1,0.05,0.05,0.15,0.41,-0.41,green,k,701522,23,2020-08-05_11h46.05.603,CDT_GNG_IUS12,2020.1.2,Win32,60,l,0,1.08798,0,100,100,86,1,,,,,,,,,,,,,,,,,,,,,,,,,,,,,,,,,,,,,,,,,,,,,,,,
,,,,,,,,,,,,35,different,4,0.27,0.41,orange,1,0.41,-0.14,cyan,1,-0.27,-0.27,green,1,-0.14,0.27,yellow,1,0.41,0.27,black,0,0.41,-0.41,magenta,0,-0.14,-0.14,blue,0,-0.27,0.14,red,0,0.05,0.05,0.15,-0.14,0.27,blue,l,701522,23,2020-08-05_11h46.05.603,CDT_GNG_IUS12,2020.1.2,Win32,60,l,1,0.70949,0,101,101,34,1,,,,,,,,,,,,,,,,,,,,,,,,,,,,,,,,,,,,,,,,,,,,,,,,
,,,,,,,,,,,,94,different,8,0.41,0.27,yellow,1,0.41,-0.27,blue,1,-0.41,-0.14,magenta,1,-0.41,0.27,orange,1,0.41,0.41,red,1,0.41,-0.41,green,1,-0.14,-0.14,black,1,-0.41,0.14,cyan,1,0.05,0.05,0.15,-0.41,0.14,black,l,701522,23,2020-08-05_11h46.05.603,CDT_GNG_IUS12,2020.1.2,Win32,60,l,1,0.805505,0,102,102,93,1,,,,,,,,,,,,,,,,,,,,,,,,,,,,,,,,,,,,,,,,,,,,,,,,
,,,,,,,,,,,,61,same,8,0.41,0.41,orange,1,0.41,-0.41,magenta,1,-0.27,-0.41,blue,1,-0.14,0.27,yellow,1,0.14,0.41,red,1,0.14,-0.27,black,1,-0.41,-0.41,cyan,1,-0.27,0.14,green,1,0.05,0.05,0.15,-0.27,-0.41,blue,k,701522,23,2020-08-05_11h46.05.603,CDT_GNG_IUS12,2020.1.2,Win32,60,k,1,0.652675,0,103,103,60,1,,,,,,,,,,,,,,,,,,,,,,,,,,,,,,,,,,,,,,,,,,,,,,,,
,,,,,,,,,,,,39,different,4,0.41,0.27,green,1,0.41,-0.27,yellow,1,-0.27,-0.27,orange,1,-0.14,0.14,cyan,1,0.14,0.14,magenta,0,0.27,-0.41,blue,0,-0.14,-0.27,red,0,-0.41,0.27,black,0,0.05,0.05,0.15,-0.14,0.14,green,l,701522,23,2020-08-05_11h46.05.603,CDT_GNG_IUS12,2020.1.2,Win32,60,l,1,0.71149,0,104,104,38,1,,,,,,,,,,,,,,,,,,,,,,,,,,,,,,,,,,,,,,,,,,,,,,,,
,,,,,,,,,,,,7,same,4,0.41,0.41,yellow,1,0.41,-0.41,blue,1,-0.14,-0.41,black,1,-0.14,0.14,magenta,1,0.27,0.41,red,0,0.41,-0.27,green,0,-0.41,-0.14,cyan,0,-0.14,0.27,orange,0,0.05,0.05,0.15,-0.14,0.14,magenta,k,701522,23,2020-08-05_11h46.05.603,CDT_GNG_IUS12,2020.1.2,Win32,60,k,1,1.521915,0,105,105,6,1,,,,,,,,,,,,,,,,,,,,,,,,,,,,,,,,,,,,,,,,,,,,,,,,
,,,,,,,,,,,,108,different,8,0.27,0.41,magenta,1,0.27,-0.14,green,1,-0.14,-0.41,yellow,1,-0.41,0.41,red,1,0.41,0.27,blue,1,0.14,-0.27,cyan,1,-0.27,-0.27,orange,1,-0.41,0.14,black,1,0.05,0.05,0.15,0.27,0.41,black,l,701522,23,2020-08-05_11h46.05.603,CDT_GNG_IUS12,2020.1.2,Win32,60,l,1,0.95004,0,106,106,107,1,,,,,,,,,,,,,,,,,,,,,,,,,,,,,,,,,,,,,,,,,,,,,,,,
,,,,,,,,,,,,90,same,8,0.27,0.14,orange,1,0.14,-0.27,green,1,-0.14,-0.41,magenta,1,-0.14,0.27,cyan,1,0.41,0.41,blue,1,0.14,-0.14,black,1,-0.14,-0.14,yellow,1,-0.27,0.27,red,1,0.05,0.05,0.15,0.14,-0.14,black,k,701522,23,2020-08-05_11h46.05.603,CDT_GNG_IUS12,2020.1.2,Win32,60,k,1,0.741465,0,107,107,89,1,,,,,,,,,,,,,,,,,,,,,,,,,,,,,,,,,,,,,,,,,,,,,,,,
,,,,,,,,,,,,5,same,4,0.27,0.27,blue,1,0.14,-0.14,orange,1,-0.27,-0.27,black,1,-0.27,0.41,magenta,1,0.27,0.41,green,0,0.14,-0.41,cyan,0,-0.27,-0.41,yellow,0,-0.27,0.14,red,0,0.05,0.05,0.15,0.14,-0.14,orange,k,701522,23,2020-08-05_11h46.05.603,CDT_GNG_IUS12,2020.1.2,Win32,60,k,1,1.00935,0,108,108,4,1,,,,,,,,,,,,,,,,,,,,,,,,,,,,,,,,,,,,,,,,,,,,,,,,
,,,,,,,,,,,,71,same,8,0.14,0.41,red,1,0.27,-0.14,yellow,1,-0.27,-0.41,cyan,1,-0.41,0.27,blue,1,0.41,0.27,magenta,1,0.14,-0.41,orange,1,-0.14,-0.14,black,1,-0.41,0.14,green,1,0.05,0.05,0.15,-0.41,0.27,blue,k,701522,23,2020-08-05_11h46.05.603,CDT_GNG_IUS12,2020.1.2,Win32,60,k,1,0.907245,0,109,109,70,1,,,,,,,,,,,,,,,,,,,,,,,,,,,,,,,,,,,,,,,,,,,,,,,,
,,,,,,,,,,,,120,different,8,0.41,0.41,blue,1,0.14,-0.14,magenta,1,-0.27,-0.27,cyan,1,-0.27,0.41,orange,1,0.27,0.41,yellow,1,0.14,-0.41,red,1,-0.14,-0.27,green,1,-0.14,0.41,black,1,0.05,0.05,0.15,-0.14,0.41,orange,l,701522,23,2020-08-05_11h46.05.603,CDT_GNG_IUS12,2020.1.2,Win32,60,l,1,0.81738,0,110,110,119,1,,,,,,,,,,,,,,,,,,,,,,,,,,,,,,,,,,,,,,,,,,,,,,,,
,,,,,,,,,,,,113,different,8,0.41,0.27,magenta,1,0.27,-0.27,red,1,-0.41,-0.41,yellow,1,-0.14,0.27,green,1,0.41,0.14,orange,1,0.14,-0.41,blue,1,-0.14,-0.41,black,1,-0.41,0.27,cyan,1,0.05,0.05,0.15,0.41,0.14,yellow,l,701522,23,2020-08-05_11h46.05.603,CDT_GNG_IUS12,2020.1.2,Win32,60,l,1,0.987415,0,111,111,112,1,,,,,,,,,,,,,,,,,,,,,,,,,,,,,,,,,,,,,,,,,,,,,,,,
,,,,,,,,,,,,45,different,4,0.14,0.14,red,1,0.27,-0.27,black,1,-0.41,-0.27,cyan,1,-0.41,0.27,blue,1,0.27,0.27,magenta,0,0.14,-0.41,orange,0,-0.14,-0.14,green,0,-0.27,0.14,yellow,0,0.05,0.05,0.15,0.14,0.14,blue,l,701522,23,2020-08-05_11h46.05.603,CDT_GNG_IUS12,2020.1.2,Win32,60,l,1,0.874845,0,112,112,44,1,,,,,,,,,,,,,,,,,,,,,,,,,,,,,,,,,,,,,,,,,,,,,,,,
,,,,,,,,,,,,102,different,8,0.14,0.27,yellow,1,0.14,-0.41,green,1,-0.41,-0.27,red,1,-0.14,0.41,orange,1,0.41,0.41,magenta,1,0.27,-0.41,blue,1,-0.27,-0.41,cyan,1,-0.27,0.27,black,1,0.05,0.05,0.15,-0.27,0.27,yellow,l,701522,23,2020-08-05_11h46.05.603,CDT_GNG_IUS12,2020.1.2,Win32,60,l,1,0.75122,0,113,113,101,1,,,,,,,,,,,,,,,,,,,,,,,,,,,,,,,,,,,,,,,,,,,,,,,,
,,,,,,,,,,,,69,same,8,0.27,0.14,magenta,1,0.27,-0.41,yellow,1,-0.14,-0.41,green,1,-0.14,0.41,orange,1,0.14,0.41,red,1,0.14,-0.27,black,1,-0.14,-0.27,blue,1,-0.27,0.14,cyan,1,0.05,0.05,0.15,0.14,-0.27,black,k,701522,23,2020-08-05_11h46.05.603,CDT_GNG_IUS12,2020.1.2,Win32,60,k,1,0.69792,0,114,114,68,1,,,,,,,,,,,,,,,,,,,,,,,,,,,,,,,,,,,,,,,,,,,,,,,,
,,,,,,,,,,,,97,different,8,0.27,0.27,blue,1,0.14,-0.27,orange,1,-0.14,-0.14,black,1,-0.27,0.14,cyan,1,0.14,0.14,magenta,1,0.27,-0.41,yellow,1,-0.27,-0.41,green,1,-0.41,0.14,red,1,0.05,0.05,0.15,-0.27,0.14,black,l,701522,23,2020-08-05_11h46.05.603,CDT_GNG_IUS12,2020.1.2,Win32,60,l,1,0.745765,0,115,115,96,1,,,,,,,,,,,,,,,,,,,,,,,,,,,,,,,,,,,,,,,,,,,,,,,,
,,,,,,,,,,,,62,same,8,0.41,0.14,red,1,0.14,-0.27,cyan,1,-0.41,-0.27,orange,1,-0.27,0.27,magenta,1,0.14,0.27,green,1,0.14,-0.14,blue,1,-0.27,-0.41,black,1,-0.41,0.14,yellow,1,0.05,0.05,0.15,-0.27,0.27,magenta,k,701522,23,2020-08-05_11h46.05.603,CDT_GNG_IUS12,2020.1.2,Win32,60,l,0,0.7095,0,116,116,61,1,,,,,,,,,,,,,,,,,,,,,,,,,,,,,,,,,,,,,,,,,,,,,,,,
,,,,,,,,,,,,65,same,8,0.41,0.41,blue,1,0.27,-0.41,yellow,1,-0.27,-0.41,red,1,-0.41,0.27,cyan,1,0.14,0.27,black,1,0.27,-0.27,orange,1,-0.41,-0.41,magenta,1,-0.41,0.41,green,1,0.05,0.05,0.15,0.27,-0.27,orange,k,701522,23,2020-08-05_11h46.05.603,CDT_GNG_IUS12,2020.1.2,Win32,60,l,0,0.55675,0,117,117,64,1,,,,,,,,,,,,,,,,,,,,,,,,,,,,,,,,,,,,,,,,,,,,,,,,
,,,,,,,,,,,,6,same,4,0.41,0.27,orange,1,0.41,-0.14,magenta,1,-0.14,-0.27,black,1,-0.27,0.41,cyan,1,0.14,0.41,red,0,0.14,-0.41,blue,0,-0.14,-0.14,green,0,-0.41,0.41,yellow,0,0.05,0.05,0.15,-0.14,-0.27,black,k,701522,23,2020-08-05_11h46.05.603,CDT_GNG_IUS12,2020.1.2,Win32,60,k,1,0.6773,0,118,118,5,1,,,,,,,,,,,,,,,,,,,,,,,,,,,,,,,,,,,,,,,,,,,,,,,,
,,,,,,,,,,,,95,different,8,0.41,0.41,black,1,0.14,-0.14,cyan,1,-0.14,-0.41,orange,1,-0.14,0.27,blue,1,0.41,0.27,magenta,1,0.14,-0.41,green,1,-0.27,-0.27,red,1,-0.41,0.14,yellow,1,0.05,0.05,0.15,-0.14,0.27,green,l,701522,23,2020-08-05_11h46.05.603,CDT_GNG_IUS12,2020.1.2,Win32,60,l,1,0.775535,0,119,119,94,1,,,,,,,,,,,,,,,,,,,,,,,,,,,,,,,,,,,,,,,,,,,,,,,,
,,,,,,,,,,,,,,,,,,,,,,,,,,,,,,,,,,,,,,,,,,,,,,,,,,,,,space,701522,23,2020-08-05_11h46.05.603,CDT_GNG_IUS12,2020.1.2,Win32,60,,,,,,,,,space,1,0.43994,0,0,0,5,1,0,1,,,,,,,,,,,,,,,,,,,,,,,,,,,,,,,,,,,,,,
,,,,,,,,,,,,,,,,,,,,,,,,,,,,,,,,,,,,,,,,,,,,,,,,,,,,,space,701522,23,2020-08-05_11h46.05.603,CDT_GNG_IUS12,2020.1.2,Win32,60,,,,,,,,,space,1,0.39444,0,1,1,4,1,0,1,,,,,,,,,,,,,,,,,,,,,,,,,,,,,,,,,,,,,,
,,,,,,,,,,,,,,,,,,,,,,,,,,,,,,,,,,,,,,,,,,,,,,,,,,,,,,701522,23,2020-08-05_11h46.05.603,CDT_GNG_IUS12,2020.1.2,Win32,60,,,,,,,,,,1,,0,2,2,1,1,1,0,,,,,,,,,,,,,,,,,,,,,,,,,,,,,,,,,,,,,,
,,,,,,,,,,,,,,,,,,,,,,,,,,,,,,,,,,,,,,,,,,,,,,,,,,,,,,701522,23,2020-08-05_11h46.05.603,CDT_GNG_IUS12,2020.1.2,Win32,60,,,,,,,,,,1,,0,3,3,2,1,1,0,,,,,,,,,,,,,,,,,,,,,,,,,,,,,,,,,,,,,,
,,,,,,,,,,,,,,,,,,,,,,,,,,,,,,,,,,,,,,,,,,,,,,,,,,,,,space,701522,23,2020-08-05_11h46.05.603,CDT_GNG_IUS12,2020.1.2,Win32,60,,,,,,,,,space,1,0.298735,0,4,4,6,1,0,1,,,,,,,,,,,,,,,,,,,,,,,,,,,,,,,,,,,,,,
,,,,,,,,,,,,,,,,,,,,,,,,,,,,,,,,,,,,,,,,,,,,,,,,,,,,,,701522,23,2020-08-05_11h46.05.603,CDT_GNG_IUS12,2020.1.2,Win32,60,,,,,,,,,,1,,0,5,5,0,1,1,0,,,,,,,,,,,,,,,,,,,,,,,,,,,,,,,,,,,,,,
,,,,,,,,,,,,,,,,,,,,,,,,,,,,,,,,,,,,,,,,,,,,,,,,,,,,,,701522,23,2020-08-05_11h46.05.603,CDT_GNG_IUS12,2020.1.2,Win32,60,,,,,,,,,,1,,0,6,6,3,1,1,0,,,,,,,,,,,,,,,,,,,,,,,,,,,,,,,,,,,,,,
,,,,,,,,,,,,,,,,,,,,,,,,,,,,,,,,,,,,,,,,,,,,,,,,,,,,,space,701522,23,2020-08-05_11h46.05.603,CDT_GNG_IUS12,2020.1.2,Win32,60,,,,,,,,,space,1,0.42712,0,7,7,7,1,0,1,,,,,,,,,,,,,,,,,,,,,,,,,,,,,,,,,,,,,,
,,,,,,,,,,,,,,,,,,,,,,,,,,,,,,,,,,,,,,,,,,,,,,,,,,,,,space,701522,23,2020-08-05_11h46.05.603,CDT_GNG_IUS12,2020.1.2,Win32,60,,,,,,,,,,,,,,,,,0,1,space,1,0.299005,0,0,0,25,1,,,,,,,,,,,,,,,,,,,,,,,,,,,,,,
,,,,,,,,,,,,,,,,,,,,,,,,,,,,,,,,,,,,,,,,,,,,,,,,,,,,,space,701522,23,2020-08-05_11h46.05.603,CDT_GNG_IUS12,2020.1.2,Win32,60,,,,,,,,,,,,,,,,,0,1,,0,,0,1,1,10,1,,,,,,,,,,,,,,,,,,,,,,,,,,,,,,
,,,,,,,,,,,,,,,,,,,,,,,,,,,,,,,,,,,,,,,,,,,,,,,,,,,,,space,701522,23,2020-08-05_11h46.05.603,CDT_GNG_IUS12,2020.1.2,Win32,60,,,,,,,,,,,,,,,,,0,1,space,1,0.10021,0,2,2,43,1,,,,,,,,,,,,,,,,,,,,,,,,,,,,,,
,,,,,,,,,,,,,,,,,,,,,,,,,,,,,,,,,,,,,,,,,,,,,,,,,,,,,space,701522,23,2020-08-05_11h46.05.603,CDT_GNG_IUS12,2020.1.2,Win32,60,,,,,,,,,,,,,,,,,0,1,space,1,0.444095,0,3,3,49,1,,,,,,,,,,,,,,,,,,,,,,,,,,,,,,
,,,,,,,,,,,,,,,,,,,,,,,,,,,,,,,,,,,,,,,,,,,,,,,,,,,,,space,701522,23,2020-08-05_11h46.05.603,CDT_GNG_IUS12,2020.1.2,Win32,60,,,,,,,,,,,,,,,,,0,1,space,1,0.333615,0,4,4,38,1,,,,,,,,,,,,,,,,,,,,,,,,,,,,,,
,,,,,,,,,,,,,,,,,,,,,,,,,,,,,,,,,,,,,,,,,,,,,,,,,,,,,space,701522,23,2020-08-05_11h46.05.603,CDT_GNG_IUS12,2020.1.2,Win32,60,,,,,,,,,,,,,,,,,0,1,space,1,0.25753,0,5,5,35,1,,,,,,,,,,,,,,,,,,,,,,,,,,,,,,
,,,,,,,,,,,,,,,,,,,,,,,,,,,,,,,,,,,,,,,,,,,,,,,,,,,,,space,701522,23,2020-08-05_11h46.05.603,CDT_GNG_IUS12,2020.1.2,Win32,60,,,,,,,,,,,,,,,,,0,1,space,1,0.252485,0,6,6,37,1,,,,,,,,,,,,,,,,,,,,,,,,,,,,,,
,,,,,,,,,,,,,,,,,,,,,,,,,,,,,,,,,,,,,,,,,,,,,,,,,,,,,space,701522,23,2020-08-05_11h46.05.603,CDT_GNG_IUS12,2020.1.2,Win32,60,,,,,,,,,,,,,,,,,0,1,space,1,0.120815,0,7,7,21,1,,,,,,,,,,,,,,,,,,,,,,,,,,,,,,
,,,,,,,,,,,,,,,,,,,,,,,,,,,,,,,,,,,,,,,,,,,,,,,,,,,,,space,701522,23,2020-08-05_11h46.05.603,CDT_GNG_IUS12,2020.1.2,Win32,60,,,,,,,,,,,,,,,,,0,1,space,1,0.01158,0,8,8,16,1,,,,,,,,,,,,,,,,,,,,,,,,,,,,,,
,,,,,,,,,,,,,,,,,,,,,,,,,,,,,,,,,,,,,,,,,,,,,,,,,,,,,space,701522,23,2020-08-05_11h46.05.603,CDT_GNG_IUS12,2020.1.2,Win32,60,,,,,,,,,,,,,,,,,0,1,space,1,0.39924,0,9,9,26,1,,,,,,,,,,,,,,,,,,,,,,,,,,,,,,
,,,,,,,,,,,,,,,,,,,,,,,,,,,,,,,,,,,,,,,,,,,,,,,,,,,,,space,701522,23,2020-08-05_11h46.05.603,CDT_GNG_IUS12,2020.1.2,Win32,60,,,,,,,,,,,,,,,,,0,1,space,1,0.264645,0,10,10,33,1,,,,,,,,,,,,,,,,,,,,,,,,,,,,,,
,,,,,,,,,,,,,,,,,,,,,,,,,,,,,,,,,,,,,,,,,,,,,,,,,,,,,,701522,23,2020-08-05_11h46.05.603,CDT_GNG_IUS12,2020.1.2,Win32,60,,,,,,,,,,,,,,,,,1,0,,1,,0,11,11,8,1,,,,,,,,,,,,,,,,,,,,,,,,,,,,,,
,,,,,,,,,,,,,,,,,,,,,,,,,,,,,,,,,,,,,,,,,,,,,,,,,,,,,,701522,23,2020-08-05_11h46.05.603,CDT_GNG_IUS12,2020.1.2,Win32,60,,,,,,,,,,,,,,,,,1,0,,1,,0,12,12,1,1,,,,,,,,,,,,,,,,,,,,,,,,,,,,,,
,,,,,,,,,,,,,,,,,,,,,,,,,,,,,,,,,,,,,,,,,,,,,,,,,,,,,space,701522,23,2020-08-05_11h46.05.603,CDT_GNG_IUS12,2020.1.2,Win32,60,,,,,,,,,,,,,,,,,0,1,space,1,0.258815,0,13,13,46,1,,,,,,,,,,,,,,,,,,,,,,,,,,,,,,
,,,,,,,,,,,,,,,,,,,,,,,,,,,,,,,,,,,,,,,,,,,,,,,,,,,,,space,701522,23,2020-08-05_11h46.05.603,CDT_GNG_IUS12,2020.1.2,Win32,60,,,,,,,,,,,,,,,,,0,1,space,1,0.388405,0,14,14,23,1,,,,,,,,,,,,,,,,,,,,,,,,,,,,,,
,,,,,,,,,,,,,,,,,,,,,,,,,,,,,,,,,,,,,,,,,,,,,,,,,,,,,space,701522,23,2020-08-05_11h46.05.603,CDT_GNG_IUS12,2020.1.2,Win32,60,,,,,,,,,,,,,,,,,0,1,space,1,0.34267,0,15,15,47,1,,,,,,,,,,,,,,,,,,,,,,,,,,,,,,
,,,,,,,,,,,,,,,,,,,,,,,,,,,,,,,,,,,,,,,,,,,,,,,,,,,,,,701522,23,2020-08-05_11h46.05.603,CDT_GNG_IUS12,2020.1.2,Win32,60,,,,,,,,,,,,,,,,,1,0,,1,,0,16,16,4,1,,,,,,,,,,,,,,,,,,,,,,,,,,,,,,
,,,,,,,,,,,,,,,,,,,,,,,,,,,,,,,,,,,,,,,,,,,,,,,,,,,,,space,701522,23,2020-08-05_11h46.05.603,CDT_GNG_IUS12,2020.1.2,Win32,60,,,,,,,,,,,,,,,,,0,1,space,1,0.266165,0,17,17,13,1,,,,,,,,,,,,,,,,,,,,,,,,,,,,,,
,,,,,,,,,,,,,,,,,,,,,,,,,,,,,,,,,,,,,,,,,,,,,,,,,,,,,space,701522,23,2020-08-05_11h46.05.603,CDT_GNG_IUS12,2020.1.2,Win32,60,,,,,,,,,,,,,,,,,0,1,space,1,0.35445,0,18,18,36,1,,,,,,,,,,,,,,,,,,,,,,,,,,,,,,
,,,,,,,,,,,,,,,,,,,,,,,,,,,,,,,,,,,,,,,,,,,,,,,,,,,,,space,701522,23,2020-08-05_11h46.05.603,CDT_GNG_IUS12,2020.1.2,Win32,60,,,,,,,,,,,,,,,,,0,1,space,1,0.32656,0,19,19,30,1,,,,,,,,,,,,,,,,,,,,,,,,,,,,,,
,,,,,,,,,,,,,,,,,,,,,,,,,,,,,,,,,,,,,,,,,,,,,,,,,,,,,space,701522,23,2020-08-05_11h46.05.603,CDT_GNG_IUS12,2020.1.2,Win32,60,,,,,,,,,,,,,,,,,0,1,space,1,0.296375,0,20,20,44,1,,,,,,,,,,,,,,,,,,,,,,,,,,,,,,
,,,,,,,,,,,,,,,,,,,,,,,,,,,,,,,,,,,,,,,,,,,,,,,,,,,,,space,701522,23,2020-08-05_11h46.05.603,CDT_GNG_IUS12,2020.1.2,Win32,60,,,,,,,,,,,,,,,,,0,1,space,1,0.26484,0,21,21,11,1,,,,,,,,,,,,,,,,,,,,,,,,,,,,,,
,,,,,,,,,,,,,,,,,,,,,,,,,,,,,,,,,,,,,,,,,,,,,,,,,,,,,space,701522,23,2020-08-05_11h46.05.603,CDT_GNG_IUS12,2020.1.2,Win32,60,,,,,,,,,,,,,,,,,0,1,space,1,0.25388,0,22,22,29,1,,,,,,,,,,,,,,,,,,,,,,,,,,,,,,
,,,,,,,,,,,,,,,,,,,,,,,,,,,,,,,,,,,,,,,,,,,,,,,,,,,,,space,701522,23,2020-08-05_11h46.05.603,CDT_GNG_IUS12,2020.1.2,Win32,60,,,,,,,,,,,,,,,,,0,1,space,1,0.210015,0,23,23,42,1,,,,,,,,,,,,,,,,,,,,,,,,,,,,,,
,,,,,,,,,,,,,,,,,,,,,,,,,,,,,,,,,,,,,,,,,,,,,,,,,,,,,space,701522,23,2020-08-05_11h46.05.603,CDT_GNG_IUS12,2020.1.2,Win32,60,,,,,,,,,,,,,,,,,0,1,space,1,0.24052,0,24,24,15,1,,,,,,,,,,,,,,,,,,,,,,,,,,,,,,
,,,,,,,,,,,,,,,,,,,,,,,,,,,,,,,,,,,,,,,,,,,,,,,,,,,,,space,701522,23,2020-08-05_11h46.05.603,CDT_GNG_IUS12,2020.1.2,Win32,60,,,,,,,,,,,,,,,,,0,1,space,1,0.154725,0,25,25,18,1,,,,,,,,,,,,,,,,,,,,,,,,,,,,,,
,,,,,,,,,,,,,,,,,,,,,,,,,,,,,,,,,,,,,,,,,,,,,,,,,,,,,,701522,23,2020-08-05_11h46.05.603,CDT_GNG_IUS12,2020.1.2,Win32,60,,,,,,,,,,,,,,,,,1,0,,1,,0,26,26,5,1,,,,,,,,,,,,,,,,,,,,,,,,,,,,,,
,,,,,,,,,,,,,,,,,,,,,,,,,,,,,,,,,,,,,,,,,,,,,,,,,,,,,,701522,23,2020-08-05_11h46.05.603,CDT_GNG_IUS12,2020.1.2,Win32,60,,,,,,,,,,,,,,,,,1,0,,1,,0,27,27,2,1,,,,,,,,,,,,,,,,,,,,,,,,,,,,,,
,,,,,,,,,,,,,,,,,,,,,,,,,,,,,,,,,,,,,,,,,,,,,,,,,,,,,space,701522,23,2020-08-05_11h46.05.603,CDT_GNG_IUS12,2020.1.2,Win32,60,,,,,,,,,,,,,,,,,0,1,space,1,0.315,0,28,28,31,1,,,,,,,,,,,,,,,,,,,,,,,,,,,,,,
,,,,,,,,,,,,,,,,,,,,,,,,,,,,,,,,,,,,,,,,,,,,,,,,,,,,,space,701522,23,2020-08-05_11h46.05.603,CDT_GNG_IUS12,2020.1.2,Win32,60,,,,,,,,,,,,,,,,,0,1,space,1,0.375705,0,29,29,27,1,,,,,,,,,,,,,,,,,,,,,,,,,,,,,,
,,,,,,,,,,,,,,,,,,,,,,,,,,,,,,,,,,,,,,,,,,,,,,,,,,,,,,701522,23,2020-08-05_11h46.05.603,CDT_GNG_IUS12,2020.1.2,Win32,60,,,,,,,,,,,,,,,,,1,0,,1,,0,30,30,6,1,,,,,,,,,,,,,,,,,,,,,,,,,,,,,,
,,,,,,,,,,,,,,,,,,,,,,,,,,,,,,,,,,,,,,,,,,,,,,,,,,,,,,701522,23,2020-08-05_11h46.05.603,CDT_GNG_IUS12,2020.1.2,Win32,60,,,,,,,,,,,,,,,,,1,0,,1,,0,31,31,9,1,,,,,,,,,,,,,,,,,,,,,,,,,,,,,,
,,,,,,,,,,,,,,,,,,,,,,,,,,,,,,,,,,,,,,,,,,,,,,,,,,,,,space,701522,23,2020-08-05_11h46.05.603,CDT_GNG_IUS12,2020.1.2,Win32,60,,,,,,,,,,,,,,,,,0,1,space,1,0.49599,0,32,32,39,1,,,,,,,,,,,,,,,,,,,,,,,,,,,,,,
,,,,,,,,,,,,,,,,,,,,,,,,,,,,,,,,,,,,,,,,,,,,,,,,,,,,,space,701522,23,2020-08-05_11h46.05.603,CDT_GNG_IUS12,2020.1.2,Win32,60,,,,,,,,,,,,,,,,,0,1,space,1,0.34349,0,33,33,14,1,,,,,,,,,,,,,,,,,,,,,,,,,,,,,,
,,,,,,,,,,,,,,,,,,,,,,,,,,,,,,,,,,,,,,,,,,,,,,,,,,,,,space,701522,23,2020-08-05_11h46.05.603,CDT_GNG_IUS12,2020.1.2,Win32,60,,,,,,,,,,,,,,,,,0,1,space,1,0.28159,0,34,34,24,1,,,,,,,,,,,,,,,,,,,,,,,,,,,,,,
,,,,,,,,,,,,,,,,,,,,,,,,,,,,,,,,,,,,,,,,,,,,,,,,,,,,,space,701522,23,2020-08-05_11h46.05.603,CDT_GNG_IUS12,2020.1.2,Win32,60,,,,,,,,,,,,,,,,,0,1,space,1,0.245545,0,35,35,32,1,,,,,,,,,,,,,,,,,,,,,,,,,,,,,,
,,,,,,,,,,,,,,,,,,,,,,,,,,,,,,,,,,,,,,,,,,,,,,,,,,,,,,701522,23,2020-08-05_11h46.05.603,CDT_GNG_IUS12,2020.1.2,Win32,60,,,,,,,,,,,,,,,,,1,0,space,0,0.028245,0,36,36,3,1,,,,,,,,,,,,,,,,,,,,,,,,,,,,,,
,,,,,,,,,,,,,,,,,,,,,,,,,,,,,,,,,,,,,,,,,,,,,,,,,,,,,space,701522,23,2020-08-05_11h46.05.603,CDT_GNG_IUS12,2020.1.2,Win32,60,,,,,,,,,,,,,,,,,0,1,,0,,0,37,37,28,1,,,,,,,,,,,,,,,,,,,,,,,,,,,,,,
,,,,,,,,,,,,,,,,,,,,,,,,,,,,,,,,,,,,,,,,,,,,,,,,,,,,,,701522,23,2020-08-05_11h46.05.603,CDT_GNG_IUS12,2020.1.2,Win32,60,,,,,,,,,,,,,,,,,1,0,space,0,0.30973,0,38,38,7,1,,,,,,,,,,,,,,,,,,,,,,,,,,,,,,
,,,,,,,,,,,,,,,,,,,,,,,,,,,,,,,,,,,,,,,,,,,,,,,,,,,,,space,701522,23,2020-08-05_11h46.05.603,CDT_GNG_IUS12,2020.1.2,Win32,60,,,,,,,,,,,,,,,,,0,1,,0,,0,39,39,19,1,,,,,,,,,,,,,,,,,,,,,,,,,,,,,,
,,,,,,,,,,,,,,,,,,,,,,,,,,,,,,,,,,,,,,,,,,,,,,,,,,,,,space,701522,23,2020-08-05_11h46.05.603,CDT_GNG_IUS12,2020.1.2,Win32,60,,,,,,,,,,,,,,,,,0,1,,0,,0,40,40,12,1,,,,,,,,,,,,,,,,,,,,,,,,,,,,,,
,,,,,,,,,,,,,,,,,,,,,,,,,,,,,,,,,,,,,,,,,,,,,,,,,,,,,space,701522,23,2020-08-05_11h46.05.603,CDT_GNG_IUS12,2020.1.2,Win32,60,,,,,,,,,,,,,,,,,0,1,space,1,0.082915,0,41,41,41,1,,,,,,,,,,,,,,,,,,,,,,,,,,,,,,
,,,,,,,,,,,,,,,,,,,,,,,,,,,,,,,,,,,,,,,,,,,,,,,,,,,,,space,701522,23,2020-08-05_11h46.05.603,CDT_GNG_IUS12,2020.1.2,Win32,60,,,,,,,,,,,,,,,,,0,1,space,1,0.301935,0,42,42,48,1,,,,,,,,,,,,,,,,,,,,,,,,,,,,,,
,,,,,,,,,,,,,,,,,,,,,,,,,,,,,,,,,,,,,,,,,,,,,,,,,,,,,space,701522,23,2020-08-05_11h46.05.603,CDT_GNG_IUS12,2020.1.2,Win32,60,,,,,,,,,,,,,,,,,0,1,space,1,0.370625,0,43,43,34,1,,,,,,,,,,,,,,,,,,,,,,,,,,,,,,
,,,,,,,,,,,,,,,,,,,,,,,,,,,,,,,,,,,,,,,,,,,,,,,,,,,,,space,701522,23,2020-08-05_11h46.05.603,CDT_GNG_IUS12,2020.1.2,Win32,60,,,,,,,,,,,,,,,,,0,1,space,1,0.35651,0,44,44,22,1,,,,,,,,,,,,,,,,,,,,,,,,,,,,,,
,,,,,,,,,,,,,,,,,,,,,,,,,,,,,,,,,,,,,,,,,,,,,,,,,,,,,,701522,23,2020-08-05_11h46.05.603,CDT_GNG_IUS12,2020.1.2,Win32,60,,,,,,,,,,,,,,,,,1,0,,1,,0,45,45,0,1,,,,,,,,,,,,,,,,,,,,,,,,,,,,,,
,,,,,,,,,,,,,,,,,,,,,,,,,,,,,,,,,,,,,,,,,,,,,,,,,,,,,space,701522,23,2020-08-05_11h46.05.603,CDT_GNG_IUS12,2020.1.2,Win32,60,,,,,,,,,,,,,,,,,0,1,space,1,0.20239,0,46,46,40,1,,,,,,,,,,,,,,,,,,,,,,,,,,,,,,
,,,,,,,,,,,,,,,,,,,,,,,,,,,,,,,,,,,,,,,,,,,,,,,,,,,,,space,701522,23,2020-08-05_11h46.05.603,CDT_GNG_IUS12,2020.1.2,Win32,60,,,,,,,,,,,,,,,,,0,1,space,1,0.313765,0,47,47,45,1,,,,,,,,,,,,,,,,,,,,,,,,,,,,,,
,,,,,,,,,,,,,,,,,,,,,,,,,,,,,,,,,,,,,,,,,,,,,,,,,,,,,space,701522,23,2020-08-05_11h46.05.603,CDT_GNG_IUS12,2020.1.2,Win32,60,,,,,,,,,,,,,,,,,0,1,space,1,0.25028,0,48,48,17,1,,,,,,,,,,,,,,,,,,,,,,,,,,,,,,
,,,,,,,,,,,,,,,,,,,,,,,,,,,,,,,,,,,,,,,,,,,,,,,,,,,,,space,701522,23,2020-08-05_11h46.05.603,CDT_GNG_IUS12,2020.1.2,Win32,60,,,,,,,,,,,,,,,,,0,1,space,1,0.30784,0,49,49,20,1,,,,,,,,,,,,,,,,,,,,,,,,,,,,,,
,,,,,,,,,,,,,,,,,,,,,,,,,,,,,,,,,,,,,,,,,,,,,,,,,,,,,space,701522,23,2020-08-05_11h46.05.603,CDT_GNG_IUS12,2020.1.2,Win32,60,,,,,,,,,,,,,,,,,0,1,space,1,0.256325,,,,,,0,0,0,29,1,,,,,,,,,,,,,,,,,,,,,,,,,
,,,,,,,,,,,,,,,,,,,,,,,,,,,,,,,,,,,,,,,,,,,,,,,,,,,,,space,701522,23,2020-08-05_11h46.05.603,CDT_GNG_IUS12,2020.1.2,Win32,60,,,,,,,,,,,,,,,,,0,1,space,1,0.21718,,,,,,0,1,1,27,1,,,,,,,,,,,,,,,,,,,,,,,,,
,,,,,,,,,,,,,,,,,,,,,,,,,,,,,,,,,,,,,,,,,,,,,,,,,,,,,space,701522,23,2020-08-05_11h46.05.603,CDT_GNG_IUS12,2020.1.2,Win32,60,,,,,,,,,,,,,,,,,0,1,space,1,0.256185,,,,,,0,2,2,23,1,,,,,,,,,,,,,,,,,,,,,,,,,
,,,,,,,,,,,,,,,,,,,,,,,,,,,,,,,,,,,,,,,,,,,,,,,,,,,,,space,701522,23,2020-08-05_11h46.05.603,CDT_GNG_IUS12,2020.1.2,Win32,60,,,,,,,,,,,,,,,,,0,1,space,1,0.2258,,,,,,0,3,3,36,1,,,,,,,,,,,,,,,,,,,,,,,,,
,,,,,,,,,,,,,,,,,,,,,,,,,,,,,,,,,,,,,,,,,,,,,,,,,,,,,space,701522,23,2020-08-05_11h46.05.603,CDT_GNG_IUS12,2020.1.2,Win32,60,,,,,,,,,,,,,,,,,0,1,space,1,0.1794,,,,,,0,4,4,21,1,,,,,,,,,,,,,,,,,,,,,,,,,
,,,,,,,,,,,,,,,,,,,,,,,,,,,,,,,,,,,,,,,,,,,,,,,,,,,,,space,701522,23,2020-08-05_11h46.05.603,CDT_GNG_IUS12,2020.1.2,Win32,60,,,,,,,,,,,,,,,,,0,1,space,1,0.134785,,,,,,0,5,5,17,1,,,,,,,,,,,,,,,,,,,,,,,,,
,,,,,,,,,,,,,,,,,,,,,,,,,,,,,,,,,,,,,,,,,,,,,,,,,,,,,space,701522,23,2020-08-05_11h46.05.603,CDT_GNG_IUS12,2020.1.2,Win32,60,,,,,,,,,,,,,,,,,0,1,space,1,0.11095,,,,,,0,6,6,12,1,,,,,,,,,,,,,,,,,,,,,,,,,
,,,,,,,,,,,,,,,,,,,,,,,,,,,,,,,,,,,,,,,,,,,,,,,,,,,,,,701522,23,2020-08-05_11h46.05.603,CDT_GNG_IUS12,2020.1.2,Win32,60,,,,,,,,,,,,,,,,,1,0,space,0,0.03101,,,,,,0,7,7,9,1,,,,,,,,,,,,,,,,,,,,,,,,,
,,,,,,,,,,,,,,,,,,,,,,,,,,,,,,,,,,,,,,,,,,,,,,,,,,,,,space,701522,23,2020-08-05_11h46.05.603,CDT_GNG_IUS12,2020.1.2,Win32,60,,,,,,,,,,,,,,,,,0,1,,0,,,,,,,0,8,8,37,1,,,,,,,,,,,,,,,,,,,,,,,,,
,,,,,,,,,,,,,,,,,,,,,,,,,,,,,,,,,,,,,,,,,,,,,,,,,,,,,space,701522,23,2020-08-05_11h46.05.603,CDT_GNG_IUS12,2020.1.2,Win32,60,,,,,,,,,,,,,,,,,0,1,space,1,0.122145,,,,,,0,9,9,30,1,,,,,,,,,,,,,,,,,,,,,,,,,
,,,,,,,,,,,,,,,,,,,,,,,,,,,,,,,,,,,,,,,,,,,,,,,,,,,,,space,701522,23,2020-08-05_11h46.05.603,CDT_GNG_IUS12,2020.1.2,Win32,60,,,,,,,,,,,,,,,,,0,1,space,1,0.532335,,,,,,0,10,10,14,1,,,,,,,,,,,,,,,,,,,,,,,,,
,,,,,,,,,,,,,,,,,,,,,,,,,,,,,,,,,,,,,,,,,,,,,,,,,,,,,space,701522,23,2020-08-05_11h46.05.603,CDT_GNG_IUS12,2020.1.2,Win32,60,,,,,,,,,,,,,,,,,0,1,space,1,0.417925,,,,,,0,11,11,28,1,,,,,,,,,,,,,,,,,,,,,,,,,
,,,,,,,,,,,,,,,,,,,,,,,,,,,,,,,,,,,,,,,,,,,,,,,,,,,,,space,701522,23,2020-08-05_11h46.05.603,CDT_GNG_IUS12,2020.1.2,Win32,60,,,,,,,,,,,,,,,,,0,1,space,1,0.379045,,,,,,0,12,12,46,1,,,,,,,,,,,,,,,,,,,,,,,,,
,,,,,,,,,,,,,,,,,,,,,,,,,,,,,,,,,,,,,,,,,,,,,,,,,,,,,space,701522,23,2020-08-05_11h46.05.603,CDT_GNG_IUS12,2020.1.2,Win32,60,,,,,,,,,,,,,,,,,0,1,space,1,0.35471,,,,,,0,13,13,47,1,,,,,,,,,,,,,,,,,,,,,,,,,
,,,,,,,,,,,,,,,,,,,,,,,,,,,,,,,,,,,,,,,,,,,,,,,,,,,,,,701522,23,2020-08-05_11h46.05.603,CDT_GNG_IUS12,2020.1.2,Win32,60,,,,,,,,,,,,,,,,,1,0,,1,,,,,,,0,14,14,8,1,,,,,,,,,,,,,,,,,,,,,,,,,
,,,,,,,,,,,,,,,,,,,,,,,,,,,,,,,,,,,,,,,,,,,,,,,,,,,,,space,701522,23,2020-08-05_11h46.05.603,CDT_GNG_IUS12,2020.1.2,Win32,60,,,,,,,,,,,,,,,,,0,1,space,1,0.20139,,,,,,0,15,15,10,1,,,,,,,,,,,,,,,,,,,,,,,,,
,,,,,,,,,,,,,,,,,,,,,,,,,,,,,,,,,,,,,,,,,,,,,,,,,,,,,space,701522,23,2020-08-05_11h46.05.603,CDT_GNG_IUS12,2020.1.2,Win32,60,,,,,,,,,,,,,,,,,0,1,space,1,0.28501,,,,,,0,16,16,39,1,,,,,,,,,,,,,,,,,,,,,,,,,
,,,,,,,,,,,,,,,,,,,,,,,,,,,,,,,,,,,,,,,,,,,,,,,,,,,,,space,701522,23,2020-08-05_11h46.05.603,CDT_GNG_IUS12,2020.1.2,Win32,60,,,,,,,,,,,,,,,,,0,1,space,1,0.305795,,,,,,0,17,17,16,1,,,,,,,,,,,,,,,,,,,,,,,,,
,,,,,,,,,,,,,,,,,,,,,,,,,,,,,,,,,,,,,,,,,,,,,,,,,,,,,space,701522,23,2020-08-05_11h46.05.603,CDT_GNG_IUS12,2020.1.2,Win32,60,,,,,,,,,,,,,,,,,0,1,space,1,0.318615,,,,,,0,18,18,38,1,,,,,,,,,,,,,,,,,,,,,,,,,
,,,,,,,,,,,,,,,,,,,,,,,,,,,,,,,,,,,,,,,,,,,,,,,,,,,,,space,701522,23,2020-08-05_11h46.05.603,CDT_GNG_IUS12,2020.1.2,Win32,60,,,,,,,,,,,,,,,,,0,1,space,1,0.345495,,,,,,0,19,19,31,1,,,,,,,,,,,,,,,,,,,,,,,,,
,,,,,,,,,,,,,,,,,,,,,,,,,,,,,,,,,,,,,,,,,,,,,,,,,,,,,space,701522,23,2020-08-05_11h46.05.603,CDT_GNG_IUS12,2020.1.2,Win32,60,,,,,,,,,,,,,,,,,0,1,space,1,0.37839,,,,,,0,20,20,33,1,,,,,,,,,,,,,,,,,,,,,,,,,
,,,,,,,,,,,,,,,,,,,,,,,,,,,,,,,,,,,,,,,,,,,,,,,,,,,,,,701522,23,2020-08-05_11h46.05.603,CDT_GNG_IUS12,2020.1.2,Win32,60,,,,,,,,,,,,,,,,,1,0,,1,,,,,,,0,21,21,7,1,,,,,,,,,,,,,,,,,,,,,,,,,
,,,,,,,,,,,,,,,,,,,,,,,,,,,,,,,,,,,,,,,,,,,,,,,,,,,,,space,701522,23,2020-08-05_11h46.05.603,CDT_GNG_IUS12,2020.1.2,Win32,60,,,,,,,,,,,,,,,,,0,1,space,1,0.38538,,,,,,0,22,22,40,1,,,,,,,,,,,,,,,,,,,,,,,,,
,,,,,,,,,,,,,,,,,,,,,,,,,,,,,,,,,,,,,,,,,,,,,,,,,,,,,,701522,23,2020-08-05_11h46.05.603,CDT_GNG_IUS12,2020.1.2,Win32,60,,,,,,,,,,,,,,,,,1,0,,1,,,,,,,0,23,23,3,1,,,,,,,,,,,,,,,,,,,,,,,,,
,,,,,,,,,,,,,,,,,,,,,,,,,,,,,,,,,,,,,,,,,,,,,,,,,,,,,space,701522,23,2020-08-05_11h46.05.603,CDT_GNG_IUS12,2020.1.2,Win32,60,,,,,,,,,,,,,,,,,0,1,space,1,0.299465,,,,,,0,24,24,15,1,,,,,,,,,,,,,,,,,,,,,,,,,
,,,,,,,,,,,,,,,,,,,,,,,,,,,,,,,,,,,,,,,,,,,,,,,,,,,,,space,701522,23,2020-08-05_11h46.05.603,CDT_GNG_IUS12,2020.1.2,Win32,60,,,,,,,,,,,,,,,,,0,1,space,1,0.40943,,,,,,0,25,25,34,1,,,,,,,,,,,,,,,,,,,,,,,,,
,,,,,,,,,,,,,,,,,,,,,,,,,,,,,,,,,,,,,,,,,,,,,,,,,,,,,space,701522,23,2020-08-05_11h46.05.603,CDT_GNG_IUS12,2020.1.2,Win32,60,,,,,,,,,,,,,,,,,0,1,space,1,0.376235,,,,,,0,26,26,48,1,,,,,,,,,,,,,,,,,,,,,,,,,
,,,,,,,,,,,,,,,,,,,,,,,,,,,,,,,,,,,,,,,,,,,,,,,,,,,,,,701522,23,2020-08-05_11h46.05.603,CDT_GNG_IUS12,2020.1.2,Win32,60,,,,,,,,,,,,,,,,,1,0,,1,,,,,,,0,27,27,4,1,,,,,,,,,,,,,,,,,,,,,,,,,
,,,,,,,,,,,,,,,,,,,,,,,,,,,,,,,,,,,,,,,,,,,,,,,,,,,,,space,701522,23,2020-08-05_11h46.05.603,CDT_GNG_IUS12,2020.1.2,Win32,60,,,,,,,,,,,,,,,,,0,1,space,1,0.205605,,,,,,0,28,28,22,1,,,,,,,,,,,,,,,,,,,,,,,,,
,,,,,,,,,,,,,,,,,,,,,,,,,,,,,,,,,,,,,,,,,,,,,,,,,,,,,space,701522,23,2020-08-05_11h46.05.603,CDT_GNG_IUS12,2020.1.2,Win32,60,,,,,,,,,,,,,,,,,0,1,space,1,0.30141,,,,,,0,29,29,32,1,,,,,,,,,,,,,,,,,,,,,,,,,
,,,,,,,,,,,,,,,,,,,,,,,,,,,,,,,,,,,,,,,,,,,,,,,,,,,,,,701522,23,2020-08-05_11h46.05.603,CDT_GNG_IUS12,2020.1.2,Win32,60,,,,,,,,,,,,,,,,,1,0,,1,,,,,,,0,30,30,5,1,,,,,,,,,,,,,,,,,,,,,,,,,
,,,,,,,,,,,,,,,,,,,,,,,,,,,,,,,,,,,,,,,,,,,,,,,,,,,,,space,701522,23,2020-08-05_11h46.05.603,CDT_GNG_IUS12,2020.1.2,Win32,60,,,,,,,,,,,,,,,,,0,1,space,1,0.24401,,,,,,0,31,31,20,1,,,,,,,,,,,,,,,,,,,,,,,,,
,,,,,,,,,,,,,,,,,,,,,,,,,,,,,,,,,,,,,,,,,,,,,,,,,,,,,space,701522,23,2020-08-05_11h46.05.603,CDT_GNG_IUS12,2020.1.2,Win32,60,,,,,,,,,,,,,,,,,0,1,space,1,0.2799,,,,,,0,32,32,18,1,,,,,,,,,,,,,,,,,,,,,,,,,
,,,,,,,,,,,,,,,,,,,,,,,,,,,,,,,,,,,,,,,,,,,,,,,,,,,,,space,701522,23,2020-08-05_11h46.05.603,CDT_GNG_IUS12,2020.1.2,Win32,60,,,,,,,,,,,,,,,,,0,1,space,1,0.25973,,,,,,0,33,33,25,1,,,,,,,,,,,,,,,,,,,,,,,,,
,,,,,,,,,,,,,,,,,,,,,,,,,,,,,,,,,,,,,,,,,,,,,,,,,,,,,space,701522,23,2020-08-05_11h46.05.603,CDT_GNG_IUS12,2020.1.2,Win32,60,,,,,,,,,,,,,,,,,0,1,space,1,0.231495,,,,,,0,34,34,41,1,,,,,,,,,,,,,,,,,,,,,,,,,
,,,,,,,,,,,,,,,,,,,,,,,,,,,,,,,,,,,,,,,,,,,,,,,,,,,,,,701522,23,2020-08-05_11h46.05.603,CDT_GNG_IUS12,2020.1.2,Win32,60,,,,,,,,,,,,,,,,,1,0,,1,,,,,,,0,35,35,6,1,,,,,,,,,,,,,,,,,,,,,,,,,
,,,,,,,,,,,,,,,,,,,,,,,,,,,,,,,,,,,,,,,,,,,,,,,,,,,,,,701522,23,2020-08-05_11h46.05.603,CDT_GNG_IUS12,2020.1.2,Win32,60,,,,,,,,,,,,,,,,,1,0,,1,,,,,,,0,36,36,2,1,,,,,,,,,,,,,,,,,,,,,,,,,
,,,,,,,,,,,,,,,,,,,,,,,,,,,,,,,,,,,,,,,,,,,,,,,,,,,,,space,701522,23,2020-08-05_11h46.05.603,CDT_GNG_IUS12,2020.1.2,Win32,60,,,,,,,,,,,,,,,,,0,1,space,1,0.27729,,,,,,0,37,37,26,1,,,,,,,,,,,,,,,,,,,,,,,,,
,,,,,,,,,,,,,,,,,,,,,,,,,,,,,,,,,,,,,,,,,,,,,,,,,,,,,space,701522,23,2020-08-05_11h46.05.603,CDT_GNG_IUS12,2020.1.2,Win32,60,,,,,,,,,,,,,,,,,0,1,space,1,0.39686,,,,,,0,38,38,13,1,,,,,,,,,,,,,,,,,,,,,,,,,
,,,,,,,,,,,,,,,,,,,,,,,,,,,,,,,,,,,,,,,,,,,,,,,,,,,,,space,701522,23,2020-08-05_11h46.05.603,CDT_GNG_IUS12,2020.1.2,Win32,60,,,,,,,,,,,,,,,,,0,1,space,1,0.315535,,,,,,0,39,39,11,1,,,,,,,,,,,,,,,,,,,,,,,,,
,,,,,,,,,,,,,,,,,,,,,,,,,,,,,,,,,,,,,,,,,,,,,,,,,,,,,space,701522,23,2020-08-05_11h46.05.603,CDT_GNG_IUS12,2020.1.2,Win32,60,,,,,,,,,,,,,,,,,0,1,space,1,0.30965,,,,,,0,40,40,24,1,,,,,,,,,,,,,,,,,,,,,,,,,
,,,,,,,,,,,,,,,,,,,,,,,,,,,,,,,,,,,,,,,,,,,,,,,,,,,,,space,701522,23,2020-08-05_11h46.05.603,CDT_GNG_IUS12,2020.1.2,Win32,60,,,,,,,,,,,,,,,,,0,1,space,1,0.299975,,,,,,0,41,41,42,1,,,,,,,,,,,,,,,,,,,,,,,,,
,,,,,,,,,,,,,,,,,,,,,,,,,,,,,,,,,,,,,,,,,,,,,,,,,,,,,space,701522,23,2020-08-05_11h46.05.603,CDT_GNG_IUS12,2020.1.2,Win32,60,,,,,,,,,,,,,,,,,0,1,space,1,0.256215,,,,,,0,42,42,35,1,,,,,,,,,,,,,,,,,,,,,,,,,
,,,,,,,,,,,,,,,,,,,,,,,,,,,,,,,,,,,,,,,,,,,,,,,,,,,,,space,701522,23,2020-08-05_11h46.05.603,CDT_GNG_IUS12,2020.1.2,Win32,60,,,,,,,,,,,,,,,,,0,1,space,1,0.27274,,,,,,0,43,43,19,1,,,,,,,,,,,,,,,,,,,,,,,,,
,,,,,,,,,,,,,,,,,,,,,,,,,,,,,,,,,,,,,,,,,,,,,,,,,,,,,space,701522,23,2020-08-05_11h46.05.603,CDT_GNG_IUS12,2020.1.2,Win32,60,,,,,,,,,,,,,,,,,0,1,space,1,0.252355,,,,,,0,44,44,43,1,,,,,,,,,,,,,,,,,,,,,,,,,
,,,,,,,,,,,,,,,,,,,,,,,,,,,,,,,,,,,,,,,,,,,,,,,,,,,,,space,701522,23,2020-08-05_11h46.05.603,CDT_GNG_IUS12,2020.1.2,Win32,60,,,,,,,,,,,,,,,,,0,1,space,1,0.27324,,,,,,0,45,45,44,1,,,,,,,,,,,,,,,,,,,,,,,,,
,,,,,,,,,,,,,,,,,,,,,,,,,,,,,,,,,,,,,,,,,,,,,,,,,,,,,space,701522,23,2020-08-05_11h46.05.603,CDT_GNG_IUS12,2020.1.2,Win32,60,,,,,,,,,,,,,,,,,0,1,space,1,0.26052,,,,,,0,46,46,49,1,,,,,,,,,,,,,,,,,,,,,,,,,
,,,,,,,,,,,,,,,,,,,,,,,,,,,,,,,,,,,,,,,,,,,,,,,,,,,,,space,701522,23,2020-08-05_11h46.05.603,CDT_GNG_IUS12,2020.1.2,Win32,60,,,,,,,,,,,,,,,,,0,1,space,1,0.32012,,,,,,0,47,47,45,1,,,,,,,,,,,,,,,,,,,,,,,,,
,,,,,,,,,,,,,,,,,,,,,,,,,,,,,,,,,,,,,,,,,,,,,,,,,,,,,,701522,23,2020-08-05_11h46.05.603,CDT_GNG_IUS12,2020.1.2,Win32,60,,,,,,,,,,,,,,,,,1,0,,1,,,,,,,0,48,48,0,1,,,,,,,,,,,,,,,,,,,,,,,,,
,,,,,,,,,,,,,,,,,,,,,,,,,,,,,,,,,,,,,,,,,,,,,,,,,,,,,,701522,23,2020-08-05_11h46.05.603,CDT_GNG_IUS12,2020.1.2,Win32,60,,,,,,,,,,,,,,,,,1,0,,1,,,,,,,0,49,49,1,1,,,,,,,,,,,,,,,,,,,,,,,,,
,,,,,,,,,,,,,,,,,,,,,,,,,,,,,,,,,,,,,,,,,,,,,,,,,,,,,space,701522,23,2020-08-05_11h46.05.603,CDT_GNG_IUS12,2020.1.2,Win32,60,,,,,,,,,,,,,,,,,0,1,space,1,0.32933,,,,,,,,,,,0,0,0,44,1,,,,,,,,,,,,,,,,,,,,
,,,,,,,,,,,,,,,,,,,,,,,,,,,,,,,,,,,,,,,,,,,,,,,,,,,,,,701522,23,2020-08-05_11h46.05.603,CDT_GNG_IUS12,2020.1.2,Win32,60,,,,,,,,,,,,,,,,,1,0,,1,,,,,,,,,,,,0,1,1,4,1,,,,,,,,,,,,,,,,,,,,
,,,,,,,,,,,,,,,,,,,,,,,,,,,,,,,,,,,,,,,,,,,,,,,,,,,,,space,701522,23,2020-08-05_11h46.05.603,CDT_GNG_IUS12,2020.1.2,Win32,60,,,,,,,,,,,,,,,,,0,1,space,1,0.256265,,,,,,,,,,,0,2,2,24,1,,,,,,,,,,,,,,,,,,,,
,,,,,,,,,,,,,,,,,,,,,,,,,,,,,,,,,,,,,,,,,,,,,,,,,,,,,space,701522,23,2020-08-05_11h46.05.603,CDT_GNG_IUS12,2020.1.2,Win32,60,,,,,,,,,,,,,,,,,0,1,space,1,0.26616,,,,,,,,,,,0,3,3,16,1,,,,,,,,,,,,,,,,,,,,
,,,,,,,,,,,,,,,,,,,,,,,,,,,,,,,,,,,,,,,,,,,,,,,,,,,,,space,701522,23,2020-08-05_11h46.05.603,CDT_GNG_IUS12,2020.1.2,Win32,60,,,,,,,,,,,,,,,,,0,1,space,1,0.250495,,,,,,,,,,,0,4,4,47,1,,,,,,,,,,,,,,,,,,,,
,,,,,,,,,,,,,,,,,,,,,,,,,,,,,,,,,,,,,,,,,,,,,,,,,,,,,space,701522,23,2020-08-05_11h46.05.603,CDT_GNG_IUS12,2020.1.2,Win32,60,,,,,,,,,,,,,,,,,0,1,space,1,0.237655,,,,,,,,,,,0,5,5,11,1,,,,,,,,,,,,,,,,,,,,
,,,,,,,,,,,,,,,,,,,,,,,,,,,,,,,,,,,,,,,,,,,,,,,,,,,,,space,701522,23,2020-08-05_11h46.05.603,CDT_GNG_IUS12,2020.1.2,Win32,60,,,,,,,,,,,,,,,,,0,1,space,1,0.09757,,,,,,,,,,,0,6,6,23,1,,,,,,,,,,,,,,,,,,,,
,,,,,,,,,,,,,,,,,,,,,,,,,,,,,,,,,,,,,,,,,,,,,,,,,,,,,,701522,23,2020-08-05_11h46.05.603,CDT_GNG_IUS12,2020.1.2,Win32,60,,,,,,,,,,,,,,,,,1,0,space,0,0.059305,,,,,,,,,,,0,7,7,3,1,,,,,,,,,,,,,,,,,,,,
,,,,,,,,,,,,,,,,,,,,,,,,,,,,,,,,,,,,,,,,,,,,,,,,,,,,,space,701522,23,2020-08-05_11h46.05.603,CDT_GNG_IUS12,2020.1.2,Win32,60,,,,,,,,,,,,,,,,,0,1,,0,,,,,,,,,,,,0,8,8,30,1,,,,,,,,,,,,,,,,,,,,
,,,,,,,,,,,,,,,,,,,,,,,,,,,,,,,,,,,,,,,,,,,,,,,,,,,,,space,701522,23,2020-08-05_11h46.05.603,CDT_GNG_IUS12,2020.1.2,Win32,60,,,,,,,,,,,,,,,,,0,1,space,1,0.07305,,,,,,,,,,,0,9,9,42,1,,,,,,,,,,,,,,,,,,,,
,,,,,,,,,,,,,,,,,,,,,,,,,,,,,,,,,,,,,,,,,,,,,,,,,,,,,space,701522,23,2020-08-05_11h46.05.603,CDT_GNG_IUS12,2020.1.2,Win32,60,,,,,,,,,,,,,,,,,0,1,space,1,0.4589,,,,,,,,,,,0,10,10,35,1,,,,,,,,,,,,,,,,,,,,
,,,,,,,,,,,,,,,,,,,,,,,,,,,,,,,,,,,,,,,,,,,,,,,,,,,,,space,701522,23,2020-08-05_11h46.05.603,CDT_GNG_IUS12,2020.1.2,Win32,60,,,,,,,,,,,,,,,,,0,1,space,1,0.31525,,,,,,,,,,,0,11,11,10,1,,,,,,,,,,,,,,,,,,,,
,,,,,,,,,,,,,,,,,,,,,,,,,,,,,,,,,,,,,,,,,,,,,,,,,,,,,space,701522,23,2020-08-05_11h46.05.603,CDT_GNG_IUS12,2020.1.2,Win32,60,,,,,,,,,,,,,,,,,0,1,space,1,0.441395,,,,,,,,,,,0,12,12,15,1,,,,,,,,,,,,,,,,,,,,
,,,,,,,,,,,,,,,,,,,,,,,,,,,,,,,,,,,,,,,,,,,,,,,,,,,,,space,701522,23,2020-08-05_11h46.05.603,CDT_GNG_IUS12,2020.1.2,Win32,60,,,,,,,,,,,,,,,,,0,1,space,1,0.38315,,,,,,,,,,,0,13,13,48,1,,,,,,,,,,,,,,,,,,,,
,,,,,,,,,,,,,,,,,,,,,,,,,,,,,,,,,,,,,,,,,,,,,,,,,,,,,space,701522,23,2020-08-05_11h46.05.603,CDT_GNG_IUS12,2020.1.2,Win32,60,,,,,,,,,,,,,,,,,0,1,space,1,0.32598,,,,,,,,,,,0,14,14,34,1,,,,,,,,,,,,,,,,,,,,
,,,,,,,,,,,,,,,,,,,,,,,,,,,,,,,,,,,,,,,,,,,,,,,,,,,,,,701522,23,2020-08-05_11h46.05.603,CDT_GNG_IUS12,2020.1.2,Win32,60,,,,,,,,,,,,,,,,,1,0,,1,,,,,,,,,,,,0,15,15,8,1,,,,,,,,,,,,,,,,,,,,
,,,,,,,,,,,,,,,,,,,,,,,,,,,,,,,,,,,,,,,,,,,,,,,,,,,,,space,701522,23,2020-08-05_11h46.05.603,CDT_GNG_IUS12,2020.1.2,Win32,60,,,,,,,,,,,,,,,,,0,1,space,1,0.295815,,,,,,,,,,,0,16,16,45,1,,,,,,,,,,,,,,,,,,,,
,,,,,,,,,,,,,,,,,,,,,,,,,,,,,,,,,,,,,,,,,,,,,,,,,,,,,space,701522,23,2020-08-05_11h46.05.603,CDT_GNG_IUS12,2020.1.2,Win32,60,,,,,,,,,,,,,,,,,0,1,space,1,0.376145,,,,,,,,,,,0,17,17,29,1,,,,,,,,,,,,,,,,,,,,
,,,,,,,,,,,,,,,,,,,,,,,,,,,,,,,,,,,,,,,,,,,,,,,,,,,,,space,701522,23,2020-08-05_11h46.05.603,CDT_GNG_IUS12,2020.1.2,Win32,60,,,,,,,,,,,,,,,,,0,1,space,1,0.373895,,,,,,,,,,,0,18,18,25,1,,,,,,,,,,,,,,,,,,,,
,,,,,,,,,,,,,,,,,,,,,,,,,,,,,,,,,,,,,,,,,,,,,,,,,,,,,space,701522,23,2020-08-05_11h46.05.603,CDT_GNG_IUS12,2020.1.2,Win32,60,,,,,,,,,,,,,,,,,0,1,space,1,0.37611,,,,,,,,,,,0,19,19,38,1,,,,,,,,,,,,,,,,,,,,
,,,,,,,,,,,,,,,,,,,,,,,,,,,,,,,,,,,,,,,,,,,,,,,,,,,,,space,701522,23,2020-08-05_11h46.05.603,CDT_GNG_IUS12,2020.1.2,Win32,60,,,,,,,,,,,,,,,,,0,1,space,1,0.47901,,,,,,,,,,,0,20,20,32,1,,,,,,,,,,,,,,,,,,,,
,,,,,,,,,,,,,,,,,,,,,,,,,,,,,,,,,,,,,,,,,,,,,,,,,,,,,,701522,23,2020-08-05_11h46.05.603,CDT_GNG_IUS12,2020.1.2,Win32,60,,,,,,,,,,,,,,,,,1,0,,1,,,,,,,,,,,,0,21,21,1,1,,,,,,,,,,,,,,,,,,,,
,,,,,,,,,,,,,,,,,,,,,,,,,,,,,,,,,,,,,,,,,,,,,,,,,,,,,,701522,23,2020-08-05_11h46.05.603,CDT_GNG_IUS12,2020.1.2,Win32,60,,,,,,,,,,,,,,,,,1,0,,1,,,,,,,,,,,,0,22,22,0,1,,,,,,,,,,,,,,,,,,,,
,,,,,,,,,,,,,,,,,,,,,,,,,,,,,,,,,,,,,,,,,,,,,,,,,,,,,space,701522,23,2020-08-05_11h46.05.603,CDT_GNG_IUS12,2020.1.2,Win32,60,,,,,,,,,,,,,,,,,0,1,space,1,0.311985,,,,,,,,,,,0,23,23,49,1,,,,,,,,,,,,,,,,,,,,
,,,,,,,,,,,,,,,,,,,,,,,,,,,,,,,,,,,,,,,,,,,,,,,,,,,,,space,701522,23,2020-08-05_11h46.05.603,CDT_GNG_IUS12,2020.1.2,Win32,60,,,,,,,,,,,,,,,,,0,1,space,1,0.309055,,,,,,,,,,,0,24,24,26,1,,,,,,,,,,,,,,,,,,,,
,,,,,,,,,,,,,,,,,,,,,,,,,,,,,,,,,,,,,,,,,,,,,,,,,,,,,space,701522,23,2020-08-05_11h46.05.603,CDT_GNG_IUS12,2020.1.2,Win32,60,,,,,,,,,,,,,,,,,0,1,space,1,0.298575,,,,,,,,,,,0,25,25,41,1,,,,,,,,,,,,,,,,,,,,
,,,,,,,,,,,,,,,,,,,,,,,,,,,,,,,,,,,,,,,,,,,,,,,,,,,,,space,701522,23,2020-08-05_11h46.05.603,CDT_GNG_IUS12,2020.1.2,Win32,60,,,,,,,,,,,,,,,,,0,1,space,1,0.3297,,,,,,,,,,,0,26,26,40,1,,,,,,,,,,,,,,,,,,,,
,,,,,,,,,,,,,,,,,,,,,,,,,,,,,,,,,,,,,,,,,,,,,,,,,,,,,space,701522,23,2020-08-05_11h46.05.603,CDT_GNG_IUS12,2020.1.2,Win32,60,,,,,,,,,,,,,,,,,0,1,space,1,0.2435,,,,,,,,,,,0,27,27,43,1,,,,,,,,,,,,,,,,,,,,
,,,,,,,,,,,,,,,,,,,,,,,,,,,,,,,,,,,,,,,,,,,,,,,,,,,,,space,701522,23,2020-08-05_11h46.05.603,CDT_GNG_IUS12,2020.1.2,Win32,60,,,,,,,,,,,,,,,,,0,1,space,1,0.253215,,,,,,,,,,,0,28,28,36,1,,,,,,,,,,,,,,,,,,,,
,,,,,,,,,,,,,,,,,,,,,,,,,,,,,,,,,,,,,,,,,,,,,,,,,,,,,space,701522,23,2020-08-05_11h46.05.603,CDT_GNG_IUS12,2020.1.2,Win32,60,,,,,,,,,,,,,,,,,0,1,space,1,0.2501,,,,,,,,,,,0,29,29,46,1,,,,,,,,,,,,,,,,,,,,
,,,,,,,,,,,,,,,,,,,,,,,,,,,,,,,,,,,,,,,,,,,,,,,,,,,,,space,701522,23,2020-08-05_11h46.05.603,CDT_GNG_IUS12,2020.1.2,Win32,60,,,,,,,,,,,,,,,,,0,1,space,1,0.188655,,,,,,,,,,,0,30,30,20,1,,,,,,,,,,,,,,,,,,,,
,,,,,,,,,,,,,,,,,,,,,,,,,,,,,,,,,,,,,,,,,,,,,,,,,,,,,space,701522,23,2020-08-05_11h46.05.603,CDT_GNG_IUS12,2020.1.2,Win32,60,,,,,,,,,,,,,,,,,0,1,space,1,0.226655,,,,,,,,,,,0,31,31,31,1,,,,,,,,,,,,,,,,,,,,
,,,,,,,,,,,,,,,,,,,,,,,,,,,,,,,,,,,,,,,,,,,,,,,,,,,,,space,701522,23,2020-08-05_11h46.05.603,CDT_GNG_IUS12,2020.1.2,Win32,60,,,,,,,,,,,,,,,,,0,1,space,1,0.133485,,,,,,,,,,,0,32,32,33,1,,,,,,,,,,,,,,,,,,,,
,,,,,,,,,,,,,,,,,,,,,,,,,,,,,,,,,,,,,,,,,,,,,,,,,,,,,space,701522,23,2020-08-05_11h46.05.603,CDT_GNG_IUS12,2020.1.2,Win32,60,,,,,,,,,,,,,,,,,0,1,space,1,0.150015,,,,,,,,,,,0,33,33,13,1,,,,,,,,,,,,,,,,,,,,
,,,,,,,,,,,,,,,,,,,,,,,,,,,,,,,,,,,,,,,,,,,,,,,,,,,,,,701522,23,2020-08-05_11h46.05.603,CDT_GNG_IUS12,2020.1.2,Win32,60,,,,,,,,,,,,,,,,,1,0,space,0,0.152365,,,,,,,,,,,0,34,34,7,1,,,,,,,,,,,,,,,,,,,,
,,,,,,,,,,,,,,,,,,,,,,,,,,,,,,,,,,,,,,,,,,,,,,,,,,,,,space,701522,23,2020-08-05_11h46.05.603,CDT_GNG_IUS12,2020.1.2,Win32,60,,,,,,,,,,,,,,,,,0,1,space,1,0.570145,,,,,,,,,,,0,35,35,27,1,,,,,,,,,,,,,,,,,,,,
,,,,,,,,,,,,,,,,,,,,,,,,,,,,,,,,,,,,,,,,,,,,,,,,,,,,,space,701522,23,2020-08-05_11h46.05.603,CDT_GNG_IUS12,2020.1.2,Win32,60,,,,,,,,,,,,,,,,,0,1,space,1,0.385575,,,,,,,,,,,0,36,36,14,1,,,,,,,,,,,,,,,,,,,,
,,,,,,,,,,,,,,,,,,,,,,,,,,,,,,,,,,,,,,,,,,,,,,,,,,,,,space,701522,23,2020-08-05_11h46.05.603,CDT_GNG_IUS12,2020.1.2,Win32,60,,,,,,,,,,,,,,,,,0,1,space,1,0.37542,,,,,,,,,,,0,37,37,21,1,,,,,,,,,,,,,,,,,,,,
,,,,,,,,,,,,,,,,,,,,,,,,,,,,,,,,,,,,,,,,,,,,,,,,,,,,,,701522,23,2020-08-05_11h46.05.603,CDT_GNG_IUS12,2020.1.2,Win32,60,,,,,,,,,,,,,,,,,1,0,,1,,,,,,,,,,,,0,38,38,2,1,,,,,,,,,,,,,,,,,,,,
,,,,,,,,,,,,,,,,,,,,,,,,,,,,,,,,,,,,,,,,,,,,,,,,,,,,,space,701522,23,2020-08-05_11h46.05.603,CDT_GNG_IUS12,2020.1.2,Win32,60,,,,,,,,,,,,,,,,,0,1,space,1,0.286045,,,,,,,,,,,0,39,39,22,1,,,,,,,,,,,,,,,,,,,,
,,,,,,,,,,,,,,,,,,,,,,,,,,,,,,,,,,,,,,,,,,,,,,,,,,,,,space,701522,23,2020-08-05_11h46.05.603,CDT_GNG_IUS12,2020.1.2,Win32,60,,,,,,,,,,,,,,,,,0,1,space,1,0.31374,,,,,,,,,,,0,40,40,12,1,,,,,,,,,,,,,,,,,,,,
,,,,,,,,,,,,,,,,,,,,,,,,,,,,,,,,,,,,,,,,,,,,,,,,,,,,,space,701522,23,2020-08-05_11h46.05.603,CDT_GNG_IUS12,2020.1.2,Win32,60,,,,,,,,,,,,,,,,,0,1,space,1,0.395695,,,,,,,,,,,0,41,41,37,1,,,,,,,,,,,,,,,,,,,,
,,,,,,,,,,,,,,,,,,,,,,,,,,,,,,,,,,,,,,,,,,,,,,,,,,,,,,701522,23,2020-08-05_11h46.05.603,CDT_GNG_IUS12,2020.1.2,Win32,60,,,,,,,,,,,,,,,,,1,0,,1,,,,,,,,,,,,0,42,42,6,1,,,,,,,,,,,,,,,,,,,,
,,,,,,,,,,,,,,,,,,,,,,,,,,,,,,,,,,,,,,,,,,,,,,,,,,,,,space,701522,23,2020-08-05_11h46.05.603,CDT_GNG_IUS12,2020.1.2,Win32,60,,,,,,,,,,,,,,,,,0,1,space,1,0.41211,,,,,,,,,,,0,43,43,39,1,,,,,,,,,,,,,,,,,,,,
,,,,,,,,,,,,,,,,,,,,,,,,,,,,,,,,,,,,,,,,,,,,,,,,,,,,,space,701522,23,2020-08-05_11h46.05.603,CDT_GNG_IUS12,2020.1.2,Win32,60,,,,,,,,,,,,,,,,,0,1,space,1,0.459085,,,,,,,,,,,0,44,44,18,1,,,,,,,,,,,,,,,,,,,,
,,,,,,,,,,,,,,,,,,,,,,,,,,,,,,,,,,,,,,,,,,,,,,,,,,,,,space,701522,23,2020-08-05_11h46.05.603,CDT_GNG_IUS12,2020.1.2,Win32,60,,,,,,,,,,,,,,,,,0,1,space,1,0.332795,,,,,,,,,,,0,45,45,17,1,,,,,,,,,,,,,,,,,,,,
,,,,,,,,,,,,,,,,,,,,,,,,,,,,,,,,,,,,,,,,,,,,,,,,,,,,,space,701522,23,2020-08-05_11h46.05.603,CDT_GNG_IUS12,2020.1.2,Win32,60,,,,,,,,,,,,,,,,,0,1,,0,,,,,,,,,,,,0,46,46,19,1,,,,,,,,,,,,,,,,,,,,
,,,,,,,,,,,,,,,,,,,,,,,,,,,,,,,,,,,,,,,,,,,,,,,,,,,,,space,701522,23,2020-08-05_11h46.05.603,CDT_GNG_IUS12,2020.1.2,Win32,60,,,,,,,,,,,,,,,,,0,1,space,1,0.294325,,,,,,,,,,,0,47,47,28,1,,,,,,,,,,,,,,,,,,,,
,,,,,,,,,,,,,,,,,,,,,,,,,,,,,,,,,,,,,,,,,,,,,,,,,,,,,,701522,23,2020-08-05_11h46.05.603,CDT_GNG_IUS12,2020.1.2,Win32,60,,,,,,,,,,,,,,,,,1,0,,1,,,,,,,,,,,,0,48,48,5,1,,,,,,,,,,,,,,,,,,,,
,,,,,,,,,,,,,,,,,,,,,,,,,,,,,,,,,,,,,,,,,,,,,,,,,,,,,,701522,23,2020-08-05_11h46.05.603,CDT_GNG_IUS12,2020.1.2,Win32,60,,,,,,,,,,,,,,,,,1,0,,1,,,,,,,,,,,,0,49,49,9,1,,,,,,,,,,,,,,,,,,,,
,,,,,,,,,,,,,,,,,,,,,,,,,,,,,,,,,,,,,,,,,,,,,,,,,,,,,,701522,23,2020-08-05_11h46.05.603,CDT_GNG_IUS12,2020.1.2,Win32,60,,,,,,,,,,,,,,,,,,,,,,,,,,,,,,,,,,,,,5.009259259,13.193895,0,0,0,0,1,1,"On a scale from 0 to 10, indicate your personal perception of your proficiency level for English (10 being the highest score)",,,,,,,,,,,
,,,,,,,,,,,,,,,,,,,,,,,,,,,,,,,,,,,,,,,,,,,,,,,,,,,,,,701522,23,2020-08-05_11h46.05.603,CDT_GNG_IUS12,2020.1.2,Win32,60,,,,,,,,,,,,,,,,,,,,,,,,,,,,,,,,,,,,,6.925925926,12.18498,0,1,1,1,1,2,"On a scale from 0 to 10, indicate how frequently you are exposed to English (10 being 'always', 0 being 'never')",,,,,,,,,,,
,,,,,,,,,,,,,,,,,,,,,,,,,,,,,,,,,,,,,,,,,,,,,,,,,,,,,,701522,23,2020-08-05_11h46.05.603,CDT_GNG_IUS12,2020.1.2,Win32,60,,,,,,,,,,,,,,,,,,,,,,,,,,,,,,,,,,,,,,,,,,,,,"On a scale from 0 to 10, indicate your personal perception of your proficiency level for English (10 being the highest score)",4.003703704,29.378035,0,0,0,0,1,1,Unforeseen events upset me greatly.,,
,,,,,,,,,,,,,,,,,,,,,,,,,,,,,,,,,,,,,,,,,,,,,,,,,,,,,,701522,23,2020-08-05_11h46.05.603,CDT_GNG_IUS12,2020.1.2,Win32,60,,,,,,,,,,,,,,,,,,,,,,,,,,,,,,,,,,,,,,,,,,,,,"On a scale from 0 to 10, indicate how frequently you are exposed to English (10 being 'always', 0 being 'never')",4.018518519,9.283225,0,1,1,1,1,2,It frustrates me not having all the information I need.,,
,,,,,,,,,,,,,,,,,,,,,,,,,,,,,,,,,,,,,,,,,,,,,,,,,,,,,,701522,23,2020-08-05_11h46.05.603,CDT_GNG_IUS12,2020.1.2,Win32,60,,,,,,,,,,,,,,,,,,,,,,,,,,,,,,,,,,,,,,,,,,,,,,3.025925926,6.12033,0,2,2,2,1,3,One should always look ahead so as to avoid surprises.,,
,,,,,,,,,,,,,,,,,,,,,,,,,,,,,,,,,,,,,,,,,,,,,,,,,,,,,,701522,23,2020-08-05_11h46.05.603,CDT_GNG_IUS12,2020.1.2,Win32,60,,,,,,,,,,,,,,,,,,,,,,,,,,,,,,,,,,,,,,,,,,,,,,3.011111111,6.99873,0,3,3,3,1,4,"A small, unforeseen event can spoil everything, even with the best of planning. ",,
,,,,,,,,,,,,,,,,,,,,,,,,,,,,,,,,,,,,,,,,,,,,,,,,,,,,,,701522,23,2020-08-05_11h46.05.603,CDT_GNG_IUS12,2020.1.2,Win32,60,,,,,,,,,,,,,,,,,,,,,,,,,,,,,,,,,,,,,,,,,,,,,,2.062962963,5.981535,0,4,4,4,1,5,I always want to know what the future has in store for me.,,
,,,,,,,,,,,,,,,,,,,,,,,,,,,,,,,,,,,,,,,,,,,,,,,,,,,,,,701522,23,2020-08-05_11h46.05.603,CDT_GNG_IUS12,2020.1.2,Win32,60,,,,,,,,,,,,,,,,,,,,,,,,,,,,,,,,,,,,,,,,,,,,,,3.014814815,4.55646,0,5,5,5,1,6,I can't stand being taken by surprise.,,
,,,,,,,,,,,,,,,,,,,,,,,,,,,,,,,,,,,,,,,,,,,,,,,,,,,,,,701522,23,2020-08-05_11h46.05.603,CDT_GNG_IUS12,2020.1.2,Win32,60,,,,,,,,,,,,,,,,,,,,,,,,,,,,,,,,,,,,,,,,,,,,,,3.977777778,3.38636,0,6,6,6,1,7,I should be able to organize everything in advance,,
,,,,,,,,,,,,,,,,,,,,,,,,,,,,,,,,,,,,,,,,,,,,,,,,,,,,,,701522,23,2020-08-05_11h46.05.603,CDT_GNG_IUS12,2020.1.2,Win32,60,,,,,,,,,,,,,,,,,,,,,,,,,,,,,,,,,,,,,,,,,,,,,,1,3.51726,0,7,7,7,1,8,Uncertainty keeps me from living a full life.,,
,,,,,,,,,,,,,,,,,,,,,,,,,,,,,,,,,,,,,,,,,,,,,,,,,,,,,,701522,23,2020-08-05_11h46.05.603,CDT_GNG_IUS12,2020.1.2,Win32,60,,,,,,,,,,,,,,,,,,,,,,,,,,,,,,,,,,,,,,,,,,,,,,2.007407407,5.82829,0,8,8,8,1,9,"When it's time to act, uncertainty paralyses me. ",,
,,,,,,,,,,,,,,,,,,,,,,,,,,,,,,,,,,,,,,,,,,,,,,,,,,,,,,701522,23,2020-08-05_11h46.05.603,CDT_GNG_IUS12,2020.1.2,Win32,60,,,,,,,,,,,,,,,,,,,,,,,,,,,,,,,,,,,,,,,,,,,,,,1,5.028525,0,9,9,9,1,10,"When I am uncertain, I can't function very well. ",,
,,,,,,,,,,,,,,,,,,,,,,,,,,,,,,,,,,,,,,,,,,,,,,,,,,,,,,701522,23,2020-08-05_11h46.05.603,CDT_GNG_IUS12,2020.1.2,Win32,60,,,,,,,,,,,,,,,,,,,,,,,,,,,,,,,,,,,,,,,,,,,,,,2.037037037,2.925945,0,10,10,10,1,11,The smallest doubt can stop me from acting. ,,
,,,,,,,,,,,,,,,,,,,,,,,,,,,,,,,,,,,,,,,,,,,,,,,,,,,,,,701522,23,2020-08-05_11h46.05.603,CDT_GNG_IUS12,2020.1.2,Win32,60,,,,,,,,,,,,,,,,,,,,,,,,,,,,,,,,,,,,,,,,,,,,,,3.033333333,4.46387,0,11,11,11,1,12,I must get away from all uncertain situations. ,,
,,,,,,,,,,,,,,,,,,,,,,,,,,,,,,,,,,,,,,,,,,,,,,,,,,,,,,701522,23,2020-08-05_11h46.05.603,CDT_GNG_IUS12,2020.1.2,Win32,60,,,,,,,,,,,,,,,,,,,,,,,,,,,,,,,,,,,,,,,,,,,,,,,,,,,,,,,x,73.18332
