key_resp_6.keys,key_resp_6.rt,key_resp_2.keys,key_resp_2.corr,key_resp_2.rt,CDT_trials_train.thisRepN,CDT_trials_train.thisTrialN,CDT_trials_train.thisN,CDT_trials_train.thisIndex,CDT_trials_train.ran,trialnum,condit,stimamt,stim1posx,stim1posy,stim1col,stim1opa,stim2posx,stim2posy,stim2col,stim2opa,stim3posx,stim3posy,stim3col,stim3opa,stim4posx,stim4posy,stim4col,stim4opa,stim5posx,stim5posy,stim5col,stim5opa,stim6posx,stim6posy,stim6col,stim6opa,stimsizex,stimsizey,stimdur,targetposx,targetposy,targetcol,corrAns,participant,age,date,expName,psychopyVersion,OS,frameRate,key_resp_5.keys,key_resp.keys,key_resp.corr,key_resp.rt,CDT_trials.thisRepN,CDT_trials.thisTrialN,CDT_trials.thisN,CDT_trials.thisIndex,CDT_trials.ran,key_resp_5.rt,trialResp_Train.keys,trialResp_Train.corr,GNGtrials_train.thisRepN,GNGtrials_train.thisTrialN,GNGtrials_train.thisN,GNGtrials_train.thisIndex,GNGtrials_train.ran,orangeOpacity,blueOpacity,trialResp_Train.rt,trialResp.keys,trialResp.corr,trialResp.rt,GNG_trials_1.thisRepN,GNG_trials_1.thisTrialN,GNG_trials_1.thisN,GNG_trials_1.thisIndex,GNG_trials_1.ran,GNG_trials_2.thisRepN,GNG_trials_2.thisTrialN,GNG_trials_2.thisN,GNG_trials_2.thisIndex,GNG_trials_2.ran,GNG_trials_3.thisRepN,GNG_trials_3.thisTrialN,GNG_trials_3.thisN,GNG_trials_3.thisIndex,GNG_trials_3.ran,slider_2.response,slider_2.rt,engprof_trials.thisRepN,engprof_trials.thisTrialN,engprof_trials.thisN,engprof_trials.thisIndex,engprof_trials.ran,qpnumber,qproficiency,slider.response,slider.rt,IUS12_trials.thisRepN,IUS12_trials.thisTrialN,IUS12_trials.thisN,IUS12_trials.thisIndex,IUS12_trials.ran,qnumber,qenglish,key_resp_end.keys,key_resp_end.rt
y,23.686725,l,0,1.01202,0,0,0,0,1,1,same,4,0.273779233,-0.054755847,black,1,-0.16426754,-0.273779233,magenta,1,-0.16426754,0.16426754,orange,1,0.16426754,0.054755847,yellow,1,0.16426754,-0.054755847,cyan,0,-0.054755847,-0.16426754,blue,0,0.05,0.05,0.15,-0.16426754,0.16426754,orange,k,7497,35,2020-08-21_21h31.36.395,CDT_GNG_IUS12,2020.1.2,Win32,60,,,,,,,,,,,,,,,,,,,,,,,,,,,,,,,,,,,,,,,,,,,,,,,,,,,,,,,,,,
,,k,0,2.28866,0,1,1,1,1,2,different,4,0.054755847,-0.054755847,orange,1,-0.273779233,0.273779233,magenta,1,0.273779233,0.16426754,yellow,1,-0.273779233,-0.16426754,blue,1,0.273779233,-0.054755847,red,0,-0.273779233,0.054755847,cyan,0,0.05,0.05,0.15,-0.273779233,-0.16426754,black,l,7497,35,2020-08-21_21h31.36.395,CDT_GNG_IUS12,2020.1.2,Win32,60,,,,,,,,,,,,,,,,,,,,,,,,,,,,,,,,,,,,,,,,,,,,,,,,,,,,,,,,,,
,,l,0,1.66525,0,2,2,2,1,3,same,6,-0.054755847,0.273779233,green,1,0.273779233,-0.273779233,magenta,1,0.273779233,0.16426754,cyan,1,-0.054755847,-0.054755847,black,1,-0.273779233,0.16426754,orange,1,0.16426754,-0.054755847,blue,1,0.05,0.05,0.15,-0.054755847,0.273779233,green,k,7497,35,2020-08-21_21h31.36.395,CDT_GNG_IUS12,2020.1.2,Win32,60,,,,,,,,,,,,,,,,,,,,,,,,,,,,,,,,,,,,,,,,,,,,,,,,,,,,,,,,,,
,,l,1,1.22138,0,3,3,3,1,4,different,6,0.16426754,-0.054755847,orange,1,-0.054755847,0.273779233,red,1,0.273779233,0.273779233,green,1,-0.054755847,-0.273779233,yellow,1,0.273779233,-0.054755847,blue,1,-0.16426754,0.16426754,black,1,0.05,0.05,0.15,0.273779233,0.273779233,cyan,l,7497,35,2020-08-21_21h31.36.395,CDT_GNG_IUS12,2020.1.2,Win32,60,,,,,,,,,,,,,,,,,,,,,,,,,,,,,,,,,,,,,,,,,,,,,,,,,,,,,,,,,,
,,,,,,,,,,108,different,6,-0.273779233,-0.054755847,magenta,1,0.054755847,0.16426754,red,1,-0.16426754,0.054755847,cyan,1,0.054755847,-0.273779233,green,1,-0.273779233,-0.16426754,orange,1,0.273779233,0.273779233,black,1,0.05,0.05,0.15,-0.273779233,-0.054755847,blue,l,7497,35,2020-08-21_21h31.36.395,CDT_GNG_IUS12,2020.1.2,Win32,60,,l,1,1.317515,0,0,0,107,1,,,,,,,,,,,,,,,,,,,,,,,,,,,,,,,,,,,,,,,,,,,,,,,,,
,,,,,,,,,,29,same,4,0.273779233,0.054755847,magenta,1,-0.054755847,0.273779233,cyan,1,0.16426754,-0.054755847,green,1,-0.16426754,-0.054755847,black,1,0.273779233,0.16426754,orange,0,-0.16426754,0.054755847,blue,0,0.05,0.05,0.15,0.16426754,-0.054755847,green,k,7497,35,2020-08-21_21h31.36.395,CDT_GNG_IUS12,2020.1.2,Win32,60,,l,0,0.901365,0,1,1,28,1,,,,,,,,,,,,,,,,,,,,,,,,,,,,,,,,,,,,,,,,,,,,,,,,,
,,,,,,,,,,116,different,6,-0.273779233,0.16426754,green,1,-0.054755847,-0.054755847,orange,1,0.273779233,-0.273779233,cyan,1,0.054755847,0.273779233,red,1,-0.054755847,0.16426754,blue,1,-0.16426754,-0.054755847,yellow,1,0.05,0.05,0.15,-0.054755847,-0.054755847,magenta,l,7497,35,2020-08-21_21h31.36.395,CDT_GNG_IUS12,2020.1.2,Win32,60,,l,1,0.87238,0,2,2,115,1,,,,,,,,,,,,,,,,,,,,,,,,,,,,,,,,,,,,,,,,,,,,,,,,,
,,,,,,,,,,18,same,4,-0.054755847,0.273779233,black,1,-0.16426754,-0.16426754,cyan,1,0.054755847,0.16426754,red,1,0.273779233,-0.273779233,magenta,1,-0.16426754,0.273779233,orange,0,-0.054755847,-0.273779233,green,0,0.05,0.05,0.15,0.273779233,-0.273779233,magenta,k,7497,35,2020-08-21_21h31.36.395,CDT_GNG_IUS12,2020.1.2,Win32,60,,k,1,1.04346,0,3,3,17,1,,,,,,,,,,,,,,,,,,,,,,,,,,,,,,,,,,,,,,,,,,,,,,,,,
,,,,,,,,,,42,different,4,0.273779233,0.16426754,cyan,1,-0.054755847,0.16426754,magenta,1,0.16426754,-0.054755847,green,1,-0.16426754,-0.16426754,red,1,0.16426754,0.273779233,black,0,-0.054755847,0.273779233,yellow,0,0.05,0.05,0.15,0.273779233,0.16426754,blue,l,7497,35,2020-08-21_21h31.36.395,CDT_GNG_IUS12,2020.1.2,Win32,60,,k,0,2.253455,0,4,4,41,1,,,,,,,,,,,,,,,,,,,,,,,,,,,,,,,,,,,,,,,,,,,,,,,,,
,,,,,,,,,,115,different,6,-0.16426754,0.273779233,magenta,1,-0.273779233,-0.054755847,blue,1,0.273779233,0.273779233,red,1,0.054755847,-0.273779233,cyan,1,-0.054755847,0.16426754,green,1,-0.273779233,-0.273779233,yellow,1,0.05,0.05,0.15,-0.273779233,-0.054755847,yellow,l,7497,35,2020-08-21_21h31.36.395,CDT_GNG_IUS12,2020.1.2,Win32,60,,l,1,0.920675,0,5,5,114,1,,,,,,,,,,,,,,,,,,,,,,,,,,,,,,,,,,,,,,,,,,,,,,,,,
,,,,,,,,,,12,same,4,0.054755847,0.054755847,blue,1,-0.273779233,-0.054755847,magenta,1,-0.054755847,0.273779233,black,1,0.16426754,-0.16426754,green,1,0.16426754,0.16426754,yellow,0,-0.16426754,-0.054755847,orange,0,0.05,0.05,0.15,0.054755847,0.054755847,blue,k,7497,35,2020-08-21_21h31.36.395,CDT_GNG_IUS12,2020.1.2,Win32,60,,k,1,1.12608,0,6,6,11,1,,,,,,,,,,,,,,,,,,,,,,,,,,,,,,,,,,,,,,,,,,,,,,,,,
,,,,,,,,,,64,same,6,0.16426754,0.273779233,black,1,-0.16426754,-0.16426754,orange,1,0.16426754,-0.16426754,red,1,-0.273779233,0.054755847,magenta,1,0.054755847,0.16426754,cyan,1,-0.054755847,-0.16426754,yellow,1,0.05,0.05,0.15,0.16426754,0.273779233,black,k,7497,35,2020-08-21_21h31.36.395,CDT_GNG_IUS12,2020.1.2,Win32,60,,k,1,1.231485,0,7,7,63,1,,,,,,,,,,,,,,,,,,,,,,,,,,,,,,,,,,,,,,,,,,,,,,,,,
,,,,,,,,,,101,different,6,0.273779233,0.273779233,yellow,1,0.054755847,-0.16426754,black,1,-0.054755847,0.054755847,cyan,1,-0.054755847,-0.16426754,magenta,1,0.273779233,0.054755847,green,1,0.16426754,-0.16426754,blue,1,0.05,0.05,0.15,0.273779233,0.273779233,green,l,7497,35,2020-08-21_21h31.36.395,CDT_GNG_IUS12,2020.1.2,Win32,60,,l,1,1.25882,0,8,8,100,1,,,,,,,,,,,,,,,,,,,,,,,,,,,,,,,,,,,,,,,,,,,,,,,,,
,,,,,,,,,,15,same,4,0.054755847,-0.273779233,yellow,1,-0.273779233,-0.054755847,cyan,1,0.273779233,0.16426754,green,1,-0.16426754,0.16426754,blue,1,0.273779233,-0.054755847,magenta,0,-0.16426754,-0.054755847,orange,0,0.05,0.05,0.15,-0.273779233,-0.054755847,cyan,k,7497,35,2020-08-21_21h31.36.395,CDT_GNG_IUS12,2020.1.2,Win32,60,,l,0,1.43733,0,9,9,14,1,,,,,,,,,,,,,,,,,,,,,,,,,,,,,,,,,,,,,,,,,,,,,,,,,
,,,,,,,,,,13,same,4,0.16426754,0.273779233,orange,1,0.054755847,-0.273779233,blue,1,-0.054755847,0.054755847,magenta,1,-0.054755847,-0.16426754,black,1,0.054755847,0.16426754,yellow,0,0.16426754,-0.054755847,cyan,0,0.05,0.05,0.15,0.054755847,-0.273779233,blue,k,7497,35,2020-08-21_21h31.36.395,CDT_GNG_IUS12,2020.1.2,Win32,60,,k,1,0.827195,0,10,10,12,1,,,,,,,,,,,,,,,,,,,,,,,,,,,,,,,,,,,,,,,,,,,,,,,,,
,,,,,,,,,,103,different,6,-0.273779233,-0.16426754,black,1,0.273779233,-0.054755847,cyan,1,0.054755847,0.273779233,magenta,1,-0.054755847,0.16426754,orange,1,-0.16426754,-0.16426754,green,1,0.273779233,-0.16426754,red,1,0.05,0.05,0.15,-0.273779233,-0.16426754,blue,l,7497,35,2020-08-21_21h31.36.395,CDT_GNG_IUS12,2020.1.2,Win32,60,,l,1,1.074215,0,11,11,102,1,,,,,,,,,,,,,,,,,,,,,,,,,,,,,,,,,,,,,,,,,,,,,,,,,
,,,,,,,,,,55,different,4,0.273779233,0.054755847,yellow,1,0.054755847,-0.16426754,green,1,-0.273779233,-0.16426754,orange,1,-0.273779233,0.273779233,blue,1,0.273779233,0.273779233,red,0,0.273779233,-0.16426754,cyan,0,0.05,0.05,0.15,0.054755847,-0.16426754,red,l,7497,35,2020-08-21_21h31.36.395,CDT_GNG_IUS12,2020.1.2,Win32,60,,l,1,0.69699,0,12,12,54,1,,,,,,,,,,,,,,,,,,,,,,,,,,,,,,,,,,,,,,,,,,,,,,,,,
,,,,,,,,,,59,different,4,0.16426754,-0.16426754,red,1,-0.054755847,-0.16426754,cyan,1,0.054755847,0.16426754,yellow,1,-0.16426754,0.273779233,green,1,0.16426754,-0.054755847,orange,0,-0.16426754,-0.054755847,black,0,0.05,0.05,0.15,-0.16426754,0.273779233,black,l,7497,35,2020-08-21_21h31.36.395,CDT_GNG_IUS12,2020.1.2,Win32,60,,l,1,0.807015,0,13,13,58,1,,,,,,,,,,,,,,,,,,,,,,,,,,,,,,,,,,,,,,,,,,,,,,,,,
,,,,,,,,,,84,same,6,-0.273779233,-0.16426754,black,1,0.273779233,0.273779233,blue,1,-0.054755847,0.054755847,red,1,0.16426754,-0.054755847,orange,1,-0.16426754,-0.16426754,cyan,1,0.16426754,0.16426754,magenta,1,0.05,0.05,0.15,-0.16426754,-0.16426754,cyan,k,7497,35,2020-08-21_21h31.36.395,CDT_GNG_IUS12,2020.1.2,Win32,60,,k,1,0.90454,0,14,14,83,1,,,,,,,,,,,,,,,,,,,,,,,,,,,,,,,,,,,,,,,,,,,,,,,,,
,,,,,,,,,,11,same,4,0.273779233,0.16426754,black,1,-0.054755847,0.273779233,cyan,1,0.16426754,-0.054755847,blue,1,-0.273779233,-0.16426754,orange,1,0.054755847,0.273779233,magenta,0,-0.273779233,0.054755847,green,0,0.05,0.05,0.15,0.273779233,0.16426754,black,k,7497,35,2020-08-21_21h31.36.395,CDT_GNG_IUS12,2020.1.2,Win32,60,,k,1,1.34349,0,15,15,10,1,,,,,,,,,,,,,,,,,,,,,,,,,,,,,,,,,,,,,,,,,,,,,,,,,
,,,,,,,,,,99,different,6,0.054755847,0.16426754,orange,1,0.16426754,-0.16426754,yellow,1,-0.16426754,0.273779233,red,1,-0.273779233,-0.054755847,magenta,1,0.16426754,0.054755847,black,1,0.054755847,-0.054755847,green,1,0.05,0.05,0.15,-0.16426754,0.273779233,blue,l,7497,35,2020-08-21_21h31.36.395,CDT_GNG_IUS12,2020.1.2,Win32,60,,l,1,1.12193,0,16,16,98,1,,,,,,,,,,,,,,,,,,,,,,,,,,,,,,,,,,,,,,,,,,,,,,,,,
,,,,,,,,,,8,same,4,0.16426754,-0.16426754,blue,1,-0.16426754,-0.054755847,red,1,-0.273779233,0.16426754,green,1,0.054755847,0.054755847,cyan,1,0.16426754,-0.273779233,magenta,0,-0.054755847,-0.054755847,orange,0,0.05,0.05,0.15,-0.273779233,0.16426754,green,k,7497,35,2020-08-21_21h31.36.395,CDT_GNG_IUS12,2020.1.2,Win32,60,,l,0,0.77791,0,17,17,7,1,,,,,,,,,,,,,,,,,,,,,,,,,,,,,,,,,,,,,,,,,,,,,,,,,
,,,,,,,,,,20,same,4,0.273779233,0.054755847,magenta,1,0.054755847,-0.273779233,black,1,-0.054755847,0.16426754,blue,1,-0.273779233,-0.054755847,orange,1,0.054755847,0.054755847,red,0,0.054755847,-0.054755847,cyan,0,0.05,0.05,0.15,-0.054755847,0.16426754,blue,k,7497,35,2020-08-21_21h31.36.395,CDT_GNG_IUS12,2020.1.2,Win32,60,,l,0,1.227215,0,18,18,19,1,,,,,,,,,,,,,,,,,,,,,,,,,,,,,,,,,,,,,,,,,,,,,,,,,
,,,,,,,,,,61,same,6,0.273779233,0.16426754,cyan,1,0.273779233,-0.273779233,blue,1,-0.16426754,-0.16426754,green,1,-0.16426754,0.273779233,black,1,0.16426754,0.054755847,red,1,0.273779233,-0.16426754,yellow,1,0.05,0.05,0.15,0.273779233,-0.16426754,yellow,k,7497,35,2020-08-21_21h31.36.395,CDT_GNG_IUS12,2020.1.2,Win32,60,,k,1,0.89092,0,19,19,60,1,,,,,,,,,,,,,,,,,,,,,,,,,,,,,,,,,,,,,,,,,,,,,,,,,
,,,,,,,,,,77,same,6,0.273779233,0.273779233,black,1,-0.273779233,-0.16426754,red,1,0.16426754,-0.054755847,magenta,1,-0.054755847,0.16426754,cyan,1,0.16426754,0.273779233,orange,1,-0.16426754,-0.273779233,blue,1,0.05,0.05,0.15,-0.273779233,-0.16426754,red,k,7497,35,2020-08-21_21h31.36.395,CDT_GNG_IUS12,2020.1.2,Win32,60,,k,1,0.76145,0,20,20,76,1,,,,,,,,,,,,,,,,,,,,,,,,,,,,,,,,,,,,,,,,,,,,,,,,,
,,,,,,,,,,43,different,4,-0.16426754,-0.054755847,red,1,0.273779233,0.054755847,cyan,1,-0.16426754,0.054755847,orange,1,0.054755847,-0.054755847,blue,1,-0.054755847,-0.273779233,magenta,0,0.273779233,0.273779233,yellow,0,0.05,0.05,0.15,-0.16426754,-0.054755847,yellow,l,7497,35,2020-08-21_21h31.36.395,CDT_GNG_IUS12,2020.1.2,Win32,60,,l,1,0.822315,0,21,21,42,1,,,,,,,,,,,,,,,,,,,,,,,,,,,,,,,,,,,,,,,,,,,,,,,,,
,,,,,,,,,,4,same,4,0.16426754,-0.16426754,black,1,-0.054755847,0.16426754,yellow,1,0.16426754,0.16426754,blue,1,-0.16426754,-0.16426754,green,1,0.054755847,-0.16426754,magenta,0,-0.054755847,0.273779233,orange,0,0.05,0.05,0.15,0.16426754,-0.16426754,black,k,7497,35,2020-08-21_21h31.36.395,CDT_GNG_IUS12,2020.1.2,Win32,60,,l,0,0.568525,0,22,22,3,1,,,,,,,,,,,,,,,,,,,,,,,,,,,,,,,,,,,,,,,,,,,,,,,,,
,,,,,,,,,,1,same,4,-0.16426754,-0.273779233,orange,1,0.054755847,0.16426754,yellow,1,-0.16426754,0.16426754,green,1,0.054755847,-0.054755847,red,1,-0.273779233,-0.16426754,cyan,0,0.16426754,0.16426754,blue,0,0.05,0.05,0.15,0.054755847,0.16426754,yellow,k,7497,35,2020-08-21_21h31.36.395,CDT_GNG_IUS12,2020.1.2,Win32,60,,k,1,0.899605,0,23,23,0,1,,,,,,,,,,,,,,,,,,,,,,,,,,,,,,,,,,,,,,,,,,,,,,,,,
,,,,,,,,,,45,different,4,0.054755847,0.16426754,blue,1,-0.054755847,-0.273779233,magenta,1,-0.16426754,0.16426754,black,1,0.054755847,-0.16426754,orange,1,0.273779233,0.273779233,green,0,-0.273779233,-0.16426754,cyan,0,0.05,0.05,0.15,-0.16426754,0.16426754,magenta,l,7497,35,2020-08-21_21h31.36.395,CDT_GNG_IUS12,2020.1.2,Win32,60,,l,1,1.02635,0,24,24,44,1,,,,,,,,,,,,,,,,,,,,,,,,,,,,,,,,,,,,,,,,,,,,,,,,,
,,,,,,,,,,39,different,4,0.054755847,0.054755847,green,1,0.273779233,-0.16426754,yellow,1,-0.16426754,0.054755847,orange,1,-0.273779233,-0.054755847,red,1,0.273779233,0.054755847,blue,0,0.054755847,-0.16426754,cyan,0,0.05,0.05,0.15,-0.273779233,-0.054755847,cyan,l,7497,35,2020-08-21_21h31.36.395,CDT_GNG_IUS12,2020.1.2,Win32,60,,l,1,0.813075,0,25,25,38,1,,,,,,,,,,,,,,,,,,,,,,,,,,,,,,,,,,,,,,,,,,,,,,,,,
,,,,,,,,,,98,different,6,-0.054755847,-0.16426754,magenta,1,0.273779233,0.273779233,green,1,0.273779233,-0.273779233,red,1,-0.16426754,0.273779233,blue,1,-0.273779233,-0.16426754,cyan,1,0.273779233,0.054755847,black,1,0.05,0.05,0.15,-0.16426754,0.273779233,cyan,l,7497,35,2020-08-21_21h31.36.395,CDT_GNG_IUS12,2020.1.2,Win32,60,,l,1,1.01867,0,26,26,97,1,,,,,,,,,,,,,,,,,,,,,,,,,,,,,,,,,,,,,,,,,,,,,,,,,
,,,,,,,,,,6,same,4,0.273779233,0.273779233,blue,1,-0.273779233,-0.16426754,magenta,1,-0.054755847,0.054755847,green,1,0.054755847,-0.054755847,black,1,0.054755847,0.054755847,orange,0,-0.054755847,-0.054755847,red,0,0.05,0.05,0.15,-0.054755847,0.054755847,green,k,7497,35,2020-08-21_21h31.36.395,CDT_GNG_IUS12,2020.1.2,Win32,60,,l,0,1.017865,0,27,27,5,1,,,,,,,,,,,,,,,,,,,,,,,,,,,,,,,,,,,,,,,,,,,,,,,,,
,,,,,,,,,,69,same,6,-0.054755847,-0.054755847,black,1,0.273779233,-0.054755847,orange,1,-0.273779233,0.16426754,blue,1,0.054755847,0.054755847,yellow,1,-0.16426754,-0.16426754,green,1,0.054755847,-0.16426754,magenta,1,0.05,0.05,0.15,-0.16426754,-0.16426754,green,k,7497,35,2020-08-21_21h31.36.395,CDT_GNG_IUS12,2020.1.2,Win32,60,,k,1,0.839375,0,28,28,68,1,,,,,,,,,,,,,,,,,,,,,,,,,,,,,,,,,,,,,,,,,,,,,,,,,
,,,,,,,,,,40,different,4,-0.273779233,-0.273779233,magenta,1,0.054755847,-0.16426754,yellow,1,-0.16426754,0.054755847,red,1,0.273779233,0.273779233,orange,1,-0.054755847,-0.054755847,cyan,0,0.16426754,-0.16426754,green,0,0.05,0.05,0.15,0.273779233,0.273779233,black,l,7497,35,2020-08-21_21h31.36.395,CDT_GNG_IUS12,2020.1.2,Win32,60,,l,1,0.91312,0,29,29,39,1,,,,,,,,,,,,,,,,,,,,,,,,,,,,,,,,,,,,,,,,,,,,,,,,,
,,,,,,,,,,46,different,4,-0.16426754,0.273779233,yellow,1,-0.16426754,-0.16426754,green,1,0.16426754,0.054755847,black,1,0.273779233,-0.054755847,red,1,-0.16426754,0.16426754,blue,0,-0.273779233,-0.054755847,cyan,0,0.05,0.05,0.15,0.16426754,0.054755847,cyan,l,7497,35,2020-08-21_21h31.36.395,CDT_GNG_IUS12,2020.1.2,Win32,60,,l,1,0.607725,0,30,30,45,1,,,,,,,,,,,,,,,,,,,,,,,,,,,,,,,,,,,,,,,,,,,,,,,,,
,,,,,,,,,,114,different,6,-0.16426754,0.16426754,black,1,-0.054755847,-0.273779233,orange,1,0.054755847,0.16426754,magenta,1,0.273779233,-0.16426754,green,1,-0.054755847,0.16426754,cyan,1,-0.273779233,-0.273779233,yellow,1,0.05,0.05,0.15,0.054755847,0.16426754,blue,l,7497,35,2020-08-21_21h31.36.395,CDT_GNG_IUS12,2020.1.2,Win32,60,,l,1,1.02258,0,31,31,113,1,,,,,,,,,,,,,,,,,,,,,,,,,,,,,,,,,,,,,,,,,,,,,,,,,
,,,,,,,,,,86,same,6,0.054755847,0.273779233,green,1,-0.054755847,0.273779233,red,1,0.16426754,-0.16426754,yellow,1,-0.054755847,-0.273779233,black,1,0.273779233,0.273779233,cyan,1,-0.273779233,0.054755847,orange,1,0.05,0.05,0.15,-0.273779233,0.054755847,orange,k,7497,35,2020-08-21_21h31.36.395,CDT_GNG_IUS12,2020.1.2,Win32,60,,l,0,0.73233,0,32,32,85,1,,,,,,,,,,,,,,,,,,,,,,,,,,,,,,,,,,,,,,,,,,,,,,,,,
,,,,,,,,,,92,different,6,0.16426754,0.16426754,green,1,-0.054755847,-0.054755847,cyan,1,-0.054755847,0.054755847,red,1,0.16426754,-0.054755847,magenta,1,0.054755847,0.16426754,orange,1,-0.273779233,-0.16426754,yellow,1,0.05,0.05,0.15,0.16426754,0.16426754,cyan,l,7497,35,2020-08-21_21h31.36.395,CDT_GNG_IUS12,2020.1.2,Win32,60,,k,0,0.92874,0,33,33,91,1,,,,,,,,,,,,,,,,,,,,,,,,,,,,,,,,,,,,,,,,,,,,,,,,,
,,,,,,,,,,71,same,6,-0.054755847,-0.16426754,orange,1,0.273779233,0.054755847,green,1,0.16426754,-0.16426754,yellow,1,-0.054755847,0.054755847,blue,1,-0.054755847,-0.273779233,black,1,0.054755847,0.16426754,cyan,1,0.05,0.05,0.15,-0.054755847,0.054755847,blue,k,7497,35,2020-08-21_21h31.36.395,CDT_GNG_IUS12,2020.1.2,Win32,60,,l,0,1.108845,0,34,34,70,1,,,,,,,,,,,,,,,,,,,,,,,,,,,,,,,,,,,,,,,,,,,,,,,,,
,,,,,,,,,,111,different,6,0.273779233,0.273779233,green,1,0.054755847,-0.16426754,red,1,-0.16426754,-0.16426754,black,1,-0.16426754,0.16426754,magenta,1,0.054755847,0.054755847,blue,1,0.273779233,-0.16426754,yellow,1,0.05,0.05,0.15,0.273779233,-0.16426754,green,l,7497,35,2020-08-21_21h31.36.395,CDT_GNG_IUS12,2020.1.2,Win32,60,,l,1,0.755345,0,35,35,110,1,,,,,,,,,,,,,,,,,,,,,,,,,,,,,,,,,,,,,,,,,,,,,,,,,
,,,,,,,,,,102,different,6,-0.273779233,-0.273779233,magenta,1,0.054755847,0.16426754,green,1,0.16426754,-0.273779233,yellow,1,-0.16426754,0.054755847,orange,1,-0.16426754,-0.273779233,red,1,0.273779233,0.054755847,cyan,1,0.05,0.05,0.15,-0.273779233,-0.273779233,yellow,l,7497,35,2020-08-21_21h31.36.395,CDT_GNG_IUS12,2020.1.2,Win32,60,,k,0,0.80699,0,36,36,101,1,,,,,,,,,,,,,,,,,,,,,,,,,,,,,,,,,,,,,,,,,,,,,,,,,
,,,,,,,,,,62,same,6,0.054755847,-0.054755847,yellow,1,-0.273779233,-0.16426754,green,1,0.273779233,0.054755847,orange,1,-0.16426754,0.054755847,cyan,1,0.054755847,-0.273779233,red,1,-0.054755847,-0.054755847,blue,1,0.05,0.05,0.15,0.054755847,-0.054755847,yellow,k,7497,35,2020-08-21_21h31.36.395,CDT_GNG_IUS12,2020.1.2,Win32,60,,k,1,1.4353,0,37,37,61,1,,,,,,,,,,,,,,,,,,,,,,,,,,,,,,,,,,,,,,,,,,,,,,,,,
,,,,,,,,,,16,same,4,0.16426754,0.16426754,cyan,1,-0.16426754,-0.273779233,red,1,-0.16426754,0.16426754,black,1,0.273779233,-0.054755847,yellow,1,0.273779233,0.273779233,orange,0,-0.054755847,-0.273779233,blue,0,0.05,0.05,0.15,-0.16426754,-0.273779233,red,k,7497,35,2020-08-21_21h31.36.395,CDT_GNG_IUS12,2020.1.2,Win32,60,,k,1,0.951535,0,38,38,15,1,,,,,,,,,,,,,,,,,,,,,,,,,,,,,,,,,,,,,,,,,,,,,,,,,
,,,,,,,,,,79,same,6,0.054755847,-0.16426754,black,1,-0.054755847,-0.273779233,yellow,1,-0.273779233,0.273779233,red,1,0.054755847,0.054755847,magenta,1,0.16426754,-0.054755847,cyan,1,-0.16426754,-0.054755847,orange,1,0.05,0.05,0.15,0.054755847,0.054755847,magenta,k,7497,35,2020-08-21_21h31.36.395,CDT_GNG_IUS12,2020.1.2,Win32,60,,l,0,0.98708,0,39,39,78,1,,,,,,,,,,,,,,,,,,,,,,,,,,,,,,,,,,,,,,,,,,,,,,,,,
,,,,,,,,,,76,same,6,0.16426754,0.054755847,cyan,1,0.273779233,-0.273779233,red,1,-0.054755847,-0.273779233,magenta,1,-0.054755847,0.16426754,yellow,1,0.054755847,0.273779233,blue,1,0.054755847,-0.273779233,green,1,0.05,0.05,0.15,0.16426754,0.054755847,cyan,k,7497,35,2020-08-21_21h31.36.395,CDT_GNG_IUS12,2020.1.2,Win32,60,,k,1,1.150755,0,40,40,75,1,,,,,,,,,,,,,,,,,,,,,,,,,,,,,,,,,,,,,,,,,,,,,,,,,
,,,,,,,,,,113,different,6,-0.273779233,0.054755847,black,1,-0.16426754,-0.16426754,blue,1,0.054755847,-0.16426754,orange,1,0.16426754,0.16426754,red,1,-0.273779233,0.273779233,green,1,-0.273779233,-0.16426754,magenta,1,0.05,0.05,0.15,-0.273779233,-0.16426754,black,l,7497,35,2020-08-21_21h31.36.395,CDT_GNG_IUS12,2020.1.2,Win32,60,,k,0,0.85814,0,41,41,112,1,,,,,,,,,,,,,,,,,,,,,,,,,,,,,,,,,,,,,,,,,,,,,,,,,
,,,,,,,,,,27,same,4,-0.273779233,0.054755847,blue,1,-0.16426754,-0.16426754,black,1,0.16426754,-0.273779233,cyan,1,0.273779233,0.054755847,red,1,-0.054755847,0.273779233,magenta,0,-0.054755847,-0.273779233,yellow,0,0.05,0.05,0.15,0.273779233,0.054755847,red,k,7497,35,2020-08-21_21h31.36.395,CDT_GNG_IUS12,2020.1.2,Win32,60,,k,1,1.51802,0,42,42,26,1,,,,,,,,,,,,,,,,,,,,,,,,,,,,,,,,,,,,,,,,,,,,,,,,,
,,,,,,,,,,83,same,6,0.054755847,-0.16426754,cyan,1,-0.16426754,-0.16426754,blue,1,0.273779233,0.054755847,magenta,1,-0.273779233,0.273779233,green,1,0.273779233,-0.16426754,orange,1,-0.054755847,-0.054755847,yellow,1,0.05,0.05,0.15,-0.054755847,-0.054755847,yellow,k,7497,35,2020-08-21_21h31.36.395,CDT_GNG_IUS12,2020.1.2,Win32,60,,k,1,1.595655,0,43,43,82,1,,,,,,,,,,,,,,,,,,,,,,,,,,,,,,,,,,,,,,,,,,,,,,,,,
,,,,,,,,,,47,different,4,-0.16426754,-0.054755847,orange,1,0.273779233,0.054755847,black,1,-0.16426754,0.16426754,red,1,0.273779233,-0.16426754,blue,1,-0.054755847,-0.273779233,green,0,0.16426754,0.16426754,yellow,0,0.05,0.05,0.15,0.273779233,0.054755847,red,l,7497,35,2020-08-21_21h31.36.395,CDT_GNG_IUS12,2020.1.2,Win32,60,,l,1,0.923245,0,44,44,46,1,,,,,,,,,,,,,,,,,,,,,,,,,,,,,,,,,,,,,,,,,,,,,,,,,
,,,,,,,,,,119,different,6,-0.273779233,0.054755847,cyan,1,-0.273779233,-0.273779233,blue,1,0.16426754,0.054755847,orange,1,0.054755847,-0.16426754,yellow,1,-0.273779233,0.273779233,black,1,-0.054755847,-0.054755847,green,1,0.05,0.05,0.15,-0.273779233,-0.273779233,cyan,l,7497,35,2020-08-21_21h31.36.395,CDT_GNG_IUS12,2020.1.2,Win32,60,,l,1,2.315185,0,45,45,118,1,,,,,,,,,,,,,,,,,,,,,,,,,,,,,,,,,,,,,,,,,,,,,,,,,
,,,,,,,,,,53,different,4,-0.16426754,0.054755847,green,1,0.273779233,0.054755847,cyan,1,-0.273779233,-0.273779233,magenta,1,0.054755847,-0.16426754,black,1,-0.054755847,0.16426754,red,0,0.273779233,0.273779233,blue,0,0.05,0.05,0.15,-0.273779233,-0.273779233,black,l,7497,35,2020-08-21_21h31.36.395,CDT_GNG_IUS12,2020.1.2,Win32,60,,l,1,1.30459,0,46,46,52,1,,,,,,,,,,,,,,,,,,,,,,,,,,,,,,,,,,,,,,,,,,,,,,,,,
,,,,,,,,,,67,same,6,0.273779233,-0.054755847,magenta,1,0.16426754,0.273779233,orange,1,-0.273779233,0.273779233,cyan,1,-0.16426754,-0.054755847,yellow,1,0.16426754,-0.16426754,blue,1,0.16426754,0.16426754,red,1,0.05,0.05,0.15,-0.273779233,0.273779233,cyan,k,7497,35,2020-08-21_21h31.36.395,CDT_GNG_IUS12,2020.1.2,Win32,60,,l,0,1.500755,0,47,47,66,1,,,,,,,,,,,,,,,,,,,,,,,,,,,,,,,,,,,,,,,,,,,,,,,,,
,,,,,,,,,,97,different,6,-0.273779233,-0.273779233,orange,1,0.054755847,-0.273779233,blue,1,0.16426754,0.16426754,green,1,-0.16426754,0.054755847,cyan,1,-0.16426754,-0.16426754,black,1,0.273779233,-0.16426754,yellow,1,0.05,0.05,0.15,-0.16426754,0.054755847,yellow,l,7497,35,2020-08-21_21h31.36.395,CDT_GNG_IUS12,2020.1.2,Win32,60,,l,1,1.353095,0,48,48,96,1,,,,,,,,,,,,,,,,,,,,,,,,,,,,,,,,,,,,,,,,,,,,,,,,,
,,,,,,,,,,96,different,6,-0.16426754,-0.16426754,green,1,-0.16426754,0.054755847,black,1,0.054755847,0.16426754,cyan,1,0.16426754,-0.273779233,yellow,1,-0.273779233,-0.273779233,blue,1,-0.054755847,0.054755847,red,1,0.05,0.05,0.15,-0.16426754,0.054755847,magenta,l,7497,35,2020-08-21_21h31.36.395,CDT_GNG_IUS12,2020.1.2,Win32,60,,l,1,0.772725,0,49,49,95,1,,,,,,,,,,,,,,,,,,,,,,,,,,,,,,,,,,,,,,,,,,,,,,,,,
,,,,,,,,,,50,different,4,-0.16426754,0.054755847,black,1,-0.273779233,-0.16426754,magenta,1,0.054755847,0.054755847,cyan,1,0.273779233,-0.16426754,green,1,-0.273779233,0.273779233,yellow,0,-0.16426754,-0.054755847,orange,0,0.05,0.05,0.15,-0.273779233,-0.16426754,yellow,l,7497,35,2020-08-21_21h31.36.395,CDT_GNG_IUS12,2020.1.2,Win32,60,,l,1,0.759745,0,50,50,49,1,,,,,,,,,,,,,,,,,,,,,,,,,,,,,,,,,,,,,,,,,,,,,,,,,
,,,,,,,,,,105,different,6,0.054755847,0.273779233,cyan,1,0.273779233,-0.16426754,magenta,1,-0.16426754,-0.054755847,yellow,1,-0.16426754,0.16426754,blue,1,0.273779233,0.16426754,orange,1,0.16426754,-0.273779233,green,1,0.05,0.05,0.15,0.16426754,-0.273779233,blue,l,7497,35,2020-08-21_21h31.36.395,CDT_GNG_IUS12,2020.1.2,Win32,60,,k,0,1.49155,0,51,51,104,1,,,,,,,,,,,,,,,,,,,,,,,,,,,,,,,,,,,,,,,,,,,,,,,,,
,,,,,,,,,,81,same,6,-0.273779233,-0.273779233,green,1,-0.273779233,0.16426754,blue,1,0.054755847,-0.16426754,black,1,0.273779233,0.054755847,cyan,1,-0.16426754,-0.273779233,orange,1,-0.054755847,0.054755847,red,1,0.05,0.05,0.15,0.054755847,-0.16426754,black,k,7497,35,2020-08-21_21h31.36.395,CDT_GNG_IUS12,2020.1.2,Win32,60,,k,1,0.825455,0,52,52,80,1,,,,,,,,,,,,,,,,,,,,,,,,,,,,,,,,,,,,,,,,,,,,,,,,,
,,,,,,,,,,17,same,4,0.16426754,0.273779233,yellow,1,-0.054755847,0.16426754,orange,1,0.273779233,-0.054755847,cyan,1,-0.273779233,-0.054755847,green,1,0.16426754,0.16426754,blue,0,-0.054755847,0.273779233,magenta,0,0.05,0.05,0.15,0.16426754,0.273779233,yellow,k,7497,35,2020-08-21_21h31.36.395,CDT_GNG_IUS12,2020.1.2,Win32,60,,l,0,0.873735,0,53,53,16,1,,,,,,,,,,,,,,,,,,,,,,,,,,,,,,,,,,,,,,,,,,,,,,,,,
,,,,,,,,,,34,different,4,0.16426754,0.16426754,yellow,1,0.273779233,-0.16426754,cyan,1,-0.273779233,-0.273779233,magenta,1,-0.273779233,0.16426754,green,1,0.054755847,0.054755847,black,0,0.273779233,-0.273779233,orange,0,0.05,0.05,0.15,0.16426754,0.16426754,cyan,l,7497,35,2020-08-21_21h31.36.395,CDT_GNG_IUS12,2020.1.2,Win32,60,,k,0,1.268165,0,54,54,33,1,,,,,,,,,,,,,,,,,,,,,,,,,,,,,,,,,,,,,,,,,,,,,,,,,
,,,,,,,,,,36,different,4,-0.16426754,-0.054755847,cyan,1,0.16426754,0.054755847,red,1,0.16426754,-0.054755847,black,1,-0.273779233,0.273779233,orange,1,-0.054755847,-0.054755847,yellow,0,0.273779233,0.273779233,green,0,0.05,0.05,0.15,0.16426754,-0.054755847,orange,l,7497,35,2020-08-21_21h31.36.395,CDT_GNG_IUS12,2020.1.2,Win32,60,,l,1,0.62319,0,55,55,35,1,,,,,,,,,,,,,,,,,,,,,,,,,,,,,,,,,,,,,,,,,,,,,,,,,
,,,,,,,,,,51,different,4,-0.16426754,-0.273779233,yellow,1,0.16426754,-0.273779233,cyan,1,0.273779233,0.054755847,blue,1,-0.054755847,0.273779233,green,1,-0.16426754,-0.054755847,black,0,0.273779233,-0.273779233,red,0,0.05,0.05,0.15,0.16426754,-0.273779233,red,l,7497,35,2020-08-21_21h31.36.395,CDT_GNG_IUS12,2020.1.2,Win32,60,,l,1,0.77171,0,56,56,50,1,,,,,,,,,,,,,,,,,,,,,,,,,,,,,,,,,,,,,,,,,,,,,,,,,
,,,,,,,,,,118,different,6,-0.16426754,-0.16426754,red,1,0.273779233,0.16426754,orange,1,-0.16426754,0.273779233,cyan,1,0.16426754,-0.273779233,black,1,-0.054755847,-0.054755847,yellow,1,0.054755847,0.054755847,green,1,0.05,0.05,0.15,-0.054755847,-0.054755847,magenta,l,7497,35,2020-08-21_21h31.36.395,CDT_GNG_IUS12,2020.1.2,Win32,60,,l,1,0.794655,0,57,57,117,1,,,,,,,,,,,,,,,,,,,,,,,,,,,,,,,,,,,,,,,,,,,,,,,,,
,,,,,,,,,,37,different,4,0.273779233,-0.273779233,cyan,1,-0.054755847,0.054755847,orange,1,-0.054755847,-0.16426754,yellow,1,0.16426754,0.054755847,blue,1,0.054755847,-0.273779233,red,0,-0.273779233,0.16426754,green,0,0.05,0.05,0.15,-0.054755847,0.054755847,green,l,7497,35,2020-08-21_21h31.36.395,CDT_GNG_IUS12,2020.1.2,Win32,60,,l,1,0.69819,0,58,58,36,1,,,,,,,,,,,,,,,,,,,,,,,,,,,,,,,,,,,,,,,,,,,,,,,,,
,,,,,,,,,,73,same,6,0.054755847,0.16426754,blue,1,-0.273779233,0.273779233,red,1,-0.273779233,-0.16426754,green,1,0.054755847,-0.054755847,orange,1,0.16426754,0.16426754,black,1,-0.054755847,0.16426754,magenta,1,0.05,0.05,0.15,-0.273779233,0.273779233,red,k,7497,35,2020-08-21_21h31.36.395,CDT_GNG_IUS12,2020.1.2,Win32,60,s,k,1,0.86317,0,59,59,72,1,3.17509,,,,,,,,,,,,,,,,,,,,,,,,,,,,,,,,,,,,,,,,,,,,,,,,
,,,,,,,,,,38,different,4,0.273779233,-0.16426754,red,1,-0.054755847,0.16426754,blue,1,-0.273779233,-0.054755847,green,1,0.273779233,0.054755847,cyan,1,0.16426754,-0.054755847,orange,0,-0.054755847,0.054755847,yellow,0,0.05,0.05,0.15,0.273779233,0.054755847,black,l,7497,35,2020-08-21_21h31.36.395,CDT_GNG_IUS12,2020.1.2,Win32,60,,k,0,1.09668,0,60,60,37,1,,,,,,,,,,,,,,,,,,,,,,,,,,,,,,,,,,,,,,,,,,,,,,,,,
,,,,,,,,,,58,different,4,-0.16426754,0.273779233,blue,1,0.16426754,0.273779233,yellow,1,0.273779233,-0.16426754,black,1,-0.16426754,-0.054755847,cyan,1,-0.16426754,0.16426754,green,0,0.16426754,0.054755847,orange,0,0.05,0.05,0.15,0.273779233,-0.16426754,magenta,l,7497,35,2020-08-21_21h31.36.395,CDT_GNG_IUS12,2020.1.2,Win32,60,,l,1,0.54649,0,61,61,57,1,,,,,,,,,,,,,,,,,,,,,,,,,,,,,,,,,,,,,,,,,,,,,,,,,
,,,,,,,,,,52,different,4,-0.273779233,-0.16426754,magenta,1,-0.273779233,0.054755847,green,1,0.273779233,-0.054755847,cyan,1,0.273779233,0.054755847,black,1,-0.16426754,-0.16426754,orange,0,-0.054755847,0.054755847,red,0,0.05,0.05,0.15,-0.273779233,-0.16426754,black,l,7497,35,2020-08-21_21h31.36.395,CDT_GNG_IUS12,2020.1.2,Win32,60,,k,0,1.61938,0,62,62,51,1,,,,,,,,,,,,,,,,,,,,,,,,,,,,,,,,,,,,,,,,,,,,,,,,,
,,,,,,,,,,120,different,6,0.16426754,-0.054755847,blue,1,-0.16426754,-0.273779233,cyan,1,0.16426754,0.16426754,magenta,1,-0.273779233,0.273779233,black,1,0.273779233,-0.16426754,green,1,-0.273779233,-0.16426754,orange,1,0.05,0.05,0.15,0.16426754,0.16426754,yellow,l,7497,35,2020-08-21_21h31.36.395,CDT_GNG_IUS12,2020.1.2,Win32,60,,l,1,0.57161,0,63,63,119,1,,,,,,,,,,,,,,,,,,,,,,,,,,,,,,,,,,,,,,,,,,,,,,,,,
,,,,,,,,,,66,same,6,0.273779233,-0.273779233,cyan,1,-0.273779233,-0.054755847,black,1,-0.273779233,0.054755847,yellow,1,0.273779233,0.16426754,green,1,0.054755847,-0.16426754,orange,1,-0.273779233,-0.16426754,magenta,1,0.05,0.05,0.15,0.273779233,0.16426754,green,k,7497,35,2020-08-21_21h31.36.395,CDT_GNG_IUS12,2020.1.2,Win32,60,,k,1,0.95868,0,64,64,65,1,,,,,,,,,,,,,,,,,,,,,,,,,,,,,,,,,,,,,,,,,,,,,,,,,
,,,,,,,,,,2,same,4,0.273779233,0.054755847,magenta,1,-0.273779233,0.273779233,red,1,-0.054755847,-0.054755847,yellow,1,0.273779233,-0.273779233,blue,1,0.054755847,0.16426754,green,0,-0.16426754,0.054755847,cyan,0,0.05,0.05,0.15,0.273779233,-0.273779233,blue,k,7497,35,2020-08-21_21h31.36.395,CDT_GNG_IUS12,2020.1.2,Win32,60,,k,1,0.926165,0,65,65,1,1,,,,,,,,,,,,,,,,,,,,,,,,,,,,,,,,,,,,,,,,,,,,,,,,,
,,,,,,,,,,21,same,4,0.273779233,0.273779233,black,1,-0.273779233,-0.273779233,blue,1,0.054755847,-0.16426754,yellow,1,-0.273779233,0.054755847,cyan,1,0.16426754,0.273779233,magenta,0,-0.054755847,-0.054755847,green,0,0.05,0.05,0.15,0.273779233,0.273779233,black,k,7497,35,2020-08-21_21h31.36.395,CDT_GNG_IUS12,2020.1.2,Win32,60,,k,1,0.773235,0,66,66,20,1,,,,,,,,,,,,,,,,,,,,,,,,,,,,,,,,,,,,,,,,,,,,,,,,,
,,,,,,,,,,3,same,4,-0.054755847,-0.054755847,yellow,1,-0.054755847,0.054755847,cyan,1,0.16426754,-0.273779233,black,1,0.273779233,0.273779233,magenta,1,-0.054755847,-0.273779233,orange,0,-0.273779233,0.054755847,green,0,0.05,0.05,0.15,0.273779233,0.273779233,magenta,k,7497,35,2020-08-21_21h31.36.395,CDT_GNG_IUS12,2020.1.2,Win32,60,,k,1,0.840385,0,67,67,2,1,,,,,,,,,,,,,,,,,,,,,,,,,,,,,,,,,,,,,,,,,,,,,,,,,
,,,,,,,,,,78,same,6,0.054755847,0.054755847,black,1,-0.054755847,0.16426754,red,1,0.273779233,-0.273779233,blue,1,-0.054755847,-0.054755847,magenta,1,0.16426754,0.054755847,yellow,1,-0.273779233,0.16426754,cyan,1,0.05,0.05,0.15,-0.054755847,0.16426754,red,k,7497,35,2020-08-21_21h31.36.395,CDT_GNG_IUS12,2020.1.2,Win32,60,,l,0,0.735065,0,68,68,77,1,,,,,,,,,,,,,,,,,,,,,,,,,,,,,,,,,,,,,,,,,,,,,,,,,
,,,,,,,,,,10,same,4,0.273779233,0.273779233,green,1,-0.16426754,-0.054755847,yellow,1,-0.16426754,0.16426754,cyan,1,0.273779233,-0.16426754,blue,1,0.273779233,0.054755847,orange,0,-0.273779233,-0.16426754,red,0,0.05,0.05,0.15,0.273779233,0.273779233,green,k,7497,35,2020-08-21_21h31.36.395,CDT_GNG_IUS12,2020.1.2,Win32,60,,k,1,0.78145,0,69,69,9,1,,,,,,,,,,,,,,,,,,,,,,,,,,,,,,,,,,,,,,,,,,,,,,,,,
,,,,,,,,,,23,same,4,0.273779233,-0.16426754,yellow,1,0.054755847,0.273779233,red,1,-0.054755847,0.054755847,black,1,-0.273779233,-0.054755847,orange,1,0.273779233,-0.054755847,green,0,0.273779233,0.054755847,magenta,0,0.05,0.05,0.15,-0.054755847,0.054755847,black,k,7497,35,2020-08-21_21h31.36.395,CDT_GNG_IUS12,2020.1.2,Win32,60,,k,1,0.813245,0,70,70,22,1,,,,,,,,,,,,,,,,,,,,,,,,,,,,,,,,,,,,,,,,,,,,,,,,,
,,,,,,,,,,60,different,4,0.273779233,0.273779233,red,1,-0.273779233,-0.054755847,blue,1,-0.273779233,0.054755847,magenta,1,0.054755847,-0.273779233,black,1,0.273779233,0.054755847,orange,0,-0.054755847,-0.16426754,yellow,0,0.05,0.05,0.15,-0.273779233,0.054755847,yellow,l,7497,35,2020-08-21_21h31.36.395,CDT_GNG_IUS12,2020.1.2,Win32,60,,l,1,0.689085,0,71,71,59,1,,,,,,,,,,,,,,,,,,,,,,,,,,,,,,,,,,,,,,,,,,,,,,,,,
,,,,,,,,,,94,different,6,0.273779233,-0.273779233,green,1,-0.16426754,-0.054755847,black,1,-0.273779233,0.16426754,blue,1,0.273779233,0.054755847,cyan,1,0.16426754,-0.16426754,magenta,1,-0.054755847,-0.054755847,orange,1,0.05,0.05,0.15,0.273779233,-0.273779233,magenta,l,7497,35,2020-08-21_21h31.36.395,CDT_GNG_IUS12,2020.1.2,Win32,60,,k,0,0.832165,0,72,72,93,1,,,,,,,,,,,,,,,,,,,,,,,,,,,,,,,,,,,,,,,,,,,,,,,,,
,,,,,,,,,,95,different,6,-0.273779233,-0.16426754,magenta,1,0.16426754,0.273779233,green,1,-0.273779233,0.273779233,black,1,0.16426754,-0.273779233,orange,1,-0.054755847,-0.16426754,blue,1,0.16426754,0.054755847,cyan,1,0.05,0.05,0.15,0.16426754,0.273779233,black,l,7497,35,2020-08-21_21h31.36.395,CDT_GNG_IUS12,2020.1.2,Win32,60,,k,0,0.984205,0,73,73,94,1,,,,,,,,,,,,,,,,,,,,,,,,,,,,,,,,,,,,,,,,,,,,,,,,,
,,,,,,,,,,19,same,4,-0.054755847,-0.16426754,orange,1,-0.273779233,0.273779233,red,1,0.273779233,0.054755847,yellow,1,0.273779233,-0.16426754,magenta,1,-0.273779233,-0.054755847,black,0,-0.054755847,0.273779233,blue,0,0.05,0.05,0.15,0.273779233,-0.16426754,magenta,k,7497,35,2020-08-21_21h31.36.395,CDT_GNG_IUS12,2020.1.2,Win32,60,,k,1,0.815355,0,74,74,18,1,,,,,,,,,,,,,,,,,,,,,,,,,,,,,,,,,,,,,,,,,,,,,,,,,
,,,,,,,,,,82,same,6,-0.054755847,-0.16426754,red,1,0.273779233,-0.054755847,cyan,1,0.16426754,0.273779233,blue,1,-0.054755847,0.054755847,black,1,-0.16426754,-0.16426754,yellow,1,0.273779233,-0.16426754,green,1,0.05,0.05,0.15,-0.16426754,-0.16426754,yellow,k,7497,35,2020-08-21_21h31.36.395,CDT_GNG_IUS12,2020.1.2,Win32,60,,k,1,1.12766,0,75,75,81,1,,,,,,,,,,,,,,,,,,,,,,,,,,,,,,,,,,,,,,,,,,,,,,,,,
,,,,,,,,,,65,same,6,-0.273779233,-0.16426754,cyan,1,-0.054755847,0.054755847,blue,1,0.054755847,-0.054755847,red,1,0.273779233,0.054755847,green,1,-0.16426754,-0.054755847,orange,1,-0.273779233,0.273779233,yellow,1,0.05,0.05,0.15,-0.273779233,-0.16426754,cyan,k,7497,35,2020-08-21_21h31.36.395,CDT_GNG_IUS12,2020.1.2,Win32,60,,l,0,0.690495,0,76,76,64,1,,,,,,,,,,,,,,,,,,,,,,,,,,,,,,,,,,,,,,,,,,,,,,,,,
,,,,,,,,,,14,same,4,0.16426754,0.16426754,magenta,1,-0.16426754,0.16426754,blue,1,0.16426754,-0.16426754,green,1,-0.16426754,-0.16426754,red,1,0.16426754,0.273779233,cyan,0,-0.16426754,0.273779233,orange,0,0.05,0.05,0.15,-0.16426754,0.16426754,blue,k,7497,35,2020-08-21_21h31.36.395,CDT_GNG_IUS12,2020.1.2,Win32,60,,k,1,0.911515,0,77,77,13,1,,,,,,,,,,,,,,,,,,,,,,,,,,,,,,,,,,,,,,,,,,,,,,,,,
,,,,,,,,,,7,same,4,-0.16426754,-0.054755847,yellow,1,0.273779233,0.16426754,magenta,1,-0.16426754,0.054755847,cyan,1,0.054755847,-0.054755847,black,1,-0.054755847,-0.054755847,orange,0,0.273779233,0.273779233,blue,0,0.05,0.05,0.15,0.054755847,-0.054755847,black,k,7497,35,2020-08-21_21h31.36.395,CDT_GNG_IUS12,2020.1.2,Win32,60,,k,1,1.02882,0,78,78,6,1,,,,,,,,,,,,,,,,,,,,,,,,,,,,,,,,,,,,,,,,,,,,,,,,,
,,,,,,,,,,72,same,6,0.273779233,-0.16426754,blue,1,0.16426754,0.273779233,yellow,1,-0.16426754,0.273779233,magenta,1,-0.273779233,-0.054755847,orange,1,0.054755847,-0.16426754,cyan,1,0.273779233,0.054755847,black,1,0.05,0.05,0.15,-0.16426754,0.273779233,magenta,k,7497,35,2020-08-21_21h31.36.395,CDT_GNG_IUS12,2020.1.2,Win32,60,,k,1,0.874675,0,79,79,71,1,,,,,,,,,,,,,,,,,,,,,,,,,,,,,,,,,,,,,,,,,,,,,,,,,
,,,,,,,,,,112,different,6,-0.273779233,-0.16426754,magenta,1,-0.054755847,0.054755847,orange,1,0.054755847,0.273779233,cyan,1,0.16426754,-0.273779233,yellow,1,-0.273779233,-0.273779233,black,1,-0.16426754,0.054755847,red,1,0.05,0.05,0.15,-0.16426754,0.054755847,orange,l,7497,35,2020-08-21_21h31.36.395,CDT_GNG_IUS12,2020.1.2,Win32,60,,l,1,0.85382,0,80,80,111,1,,,,,,,,,,,,,,,,,,,,,,,,,,,,,,,,,,,,,,,,,,,,,,,,,
,,,,,,,,,,89,same,6,-0.054755847,-0.273779233,cyan,1,-0.16426754,0.16426754,green,1,0.273779233,0.273779233,black,1,0.273779233,-0.273779233,orange,1,-0.273779233,-0.16426754,magenta,1,-0.16426754,0.273779233,yellow,1,0.05,0.05,0.15,-0.16426754,0.273779233,yellow,k,7497,35,2020-08-21_21h31.36.395,CDT_GNG_IUS12,2020.1.2,Win32,60,,l,0,0.77231,0,81,81,88,1,,,,,,,,,,,,,,,,,,,,,,,,,,,,,,,,,,,,,,,,,,,,,,,,,
,,,,,,,,,,90,same,6,0.16426754,-0.054755847,black,1,-0.273779233,-0.054755847,orange,1,-0.16426754,0.16426754,cyan,1,0.273779233,0.273779233,blue,1,0.054755847,-0.054755847,magenta,1,-0.273779233,-0.273779233,yellow,1,0.05,0.05,0.15,-0.273779233,-0.054755847,orange,k,7497,35,2020-08-21_21h31.36.395,CDT_GNG_IUS12,2020.1.2,Win32,60,,l,0,0.79924,0,82,82,89,1,,,,,,,,,,,,,,,,,,,,,,,,,,,,,,,,,,,,,,,,,,,,,,,,,
,,,,,,,,,,109,different,6,-0.273779233,-0.16426754,blue,1,0.054755847,-0.16426754,black,1,-0.054755847,0.054755847,cyan,1,0.054755847,0.16426754,green,1,-0.054755847,-0.054755847,yellow,1,0.16426754,-0.273779233,orange,1,0.05,0.05,0.15,-0.273779233,-0.16426754,green,l,7497,35,2020-08-21_21h31.36.395,CDT_GNG_IUS12,2020.1.2,Win32,60,,l,1,0.88829,0,83,83,108,1,,,,,,,,,,,,,,,,,,,,,,,,,,,,,,,,,,,,,,,,,,,,,,,,,
,,,,,,,,,,63,same,6,-0.273779233,0.273779233,red,1,-0.273779233,-0.16426754,orange,1,0.054755847,-0.273779233,black,1,0.16426754,0.16426754,cyan,1,-0.054755847,0.054755847,blue,1,-0.273779233,-0.054755847,magenta,1,0.05,0.05,0.15,-0.273779233,-0.054755847,magenta,k,7497,35,2020-08-21_21h31.36.395,CDT_GNG_IUS12,2020.1.2,Win32,60,,k,1,1.33144,0,84,84,62,1,,,,,,,,,,,,,,,,,,,,,,,,,,,,,,,,,,,,,,,,,,,,,,,,,
,,,,,,,,,,31,different,4,-0.16426754,0.16426754,blue,1,0.16426754,-0.054755847,magenta,1,-0.16426754,-0.054755847,yellow,1,0.054755847,0.273779233,black,1,-0.273779233,0.054755847,red,0,0.273779233,-0.273779233,cyan,0,0.05,0.05,0.15,-0.16426754,-0.054755847,black,l,7497,35,2020-08-21_21h31.36.395,CDT_GNG_IUS12,2020.1.2,Win32,60,,l,1,0.809325,0,85,85,30,1,,,,,,,,,,,,,,,,,,,,,,,,,,,,,,,,,,,,,,,,,,,,,,,,,
,,,,,,,,,,9,same,4,-0.16426754,0.054755847,cyan,1,0.16426754,-0.16426754,magenta,1,-0.273779233,-0.054755847,black,1,0.054755847,0.054755847,green,1,-0.273779233,0.16426754,orange,0,0.273779233,-0.273779233,red,0,0.05,0.05,0.15,-0.273779233,-0.054755847,black,k,7497,35,2020-08-21_21h31.36.395,CDT_GNG_IUS12,2020.1.2,Win32,60,,k,1,0.76187,0,86,86,8,1,,,,,,,,,,,,,,,,,,,,,,,,,,,,,,,,,,,,,,,,,,,,,,,,,
,,,,,,,,,,117,different,6,-0.054755847,0.054755847,black,1,0.054755847,0.273779233,magenta,1,-0.273779233,-0.273779233,yellow,1,0.054755847,-0.16426754,blue,1,-0.16426754,0.054755847,cyan,1,0.054755847,0.054755847,red,1,0.05,0.05,0.15,-0.16426754,0.054755847,black,l,7497,35,2020-08-21_21h31.36.395,CDT_GNG_IUS12,2020.1.2,Win32,60,,l,1,0.870235,0,87,87,116,1,,,,,,,,,,,,,,,,,,,,,,,,,,,,,,,,,,,,,,,,,,,,,,,,,
,,,,,,,,,,56,different,4,0.16426754,0.054755847,red,1,-0.054755847,0.16426754,orange,1,0.16426754,-0.16426754,black,1,-0.273779233,-0.054755847,yellow,1,0.16426754,0.273779233,blue,0,-0.054755847,0.273779233,magenta,0,0.05,0.05,0.15,-0.273779233,-0.054755847,green,l,7497,35,2020-08-21_21h31.36.395,CDT_GNG_IUS12,2020.1.2,Win32,60,,l,1,0.678505,0,88,88,55,1,,,,,,,,,,,,,,,,,,,,,,,,,,,,,,,,,,,,,,,,,,,,,,,,,
,,,,,,,,,,28,same,4,0.16426754,-0.273779233,yellow,1,-0.054755847,0.16426754,black,1,0.16426754,0.054755847,cyan,1,-0.273779233,-0.16426754,blue,1,0.273779233,-0.273779233,orange,0,-0.054755847,0.054755847,magenta,0,0.05,0.05,0.15,-0.054755847,0.16426754,black,k,7497,35,2020-08-21_21h31.36.395,CDT_GNG_IUS12,2020.1.2,Win32,60,,k,1,0.886435,0,89,89,27,1,,,,,,,,,,,,,,,,,,,,,,,,,,,,,,,,,,,,,,,,,,,,,,,,,
,,,,,,,,,,104,different,6,0.054755847,-0.16426754,magenta,1,0.273779233,0.273779233,yellow,1,-0.273779233,0.273779233,blue,1,-0.16426754,-0.054755847,cyan,1,0.16426754,-0.054755847,orange,1,0.273779233,0.16426754,green,1,0.05,0.05,0.15,0.054755847,-0.16426754,cyan,l,7497,35,2020-08-21_21h31.36.395,CDT_GNG_IUS12,2020.1.2,Win32,60,,l,1,0.76078,0,90,90,103,1,,,,,,,,,,,,,,,,,,,,,,,,,,,,,,,,,,,,,,,,,,,,,,,,,
,,,,,,,,,,85,same,6,-0.16426754,-0.273779233,black,1,-0.16426754,0.16426754,green,1,0.16426754,-0.054755847,blue,1,0.054755847,0.054755847,magenta,1,-0.16426754,-0.054755847,red,1,-0.054755847,0.054755847,yellow,1,0.05,0.05,0.15,-0.16426754,-0.273779233,black,k,7497,35,2020-08-21_21h31.36.395,CDT_GNG_IUS12,2020.1.2,Win32,60,,l,0,1.1399,0,91,91,84,1,,,,,,,,,,,,,,,,,,,,,,,,,,,,,,,,,,,,,,,,,,,,,,,,,
,,,,,,,,,,49,different,4,-0.16426754,-0.273779233,black,1,0.16426754,0.16426754,red,1,-0.273779233,0.16426754,yellow,1,0.054755847,-0.273779233,green,1,-0.273779233,-0.273779233,magenta,0,0.054755847,0.273779233,blue,0,0.05,0.05,0.15,0.054755847,-0.273779233,orange,l,7497,35,2020-08-21_21h31.36.395,CDT_GNG_IUS12,2020.1.2,Win32,60,,l,1,0.88938,0,92,92,48,1,,,,,,,,,,,,,,,,,,,,,,,,,,,,,,,,,,,,,,,,,,,,,,,,,
,,,,,,,,,,41,different,4,0.054755847,-0.273779233,orange,1,-0.273779233,0.054755847,blue,1,-0.054755847,-0.16426754,yellow,1,0.273779233,0.16426754,red,1,0.273779233,-0.273779233,black,0,-0.273779233,0.273779233,magenta,0,0.05,0.05,0.15,-0.054755847,-0.16426754,black,l,7497,35,2020-08-21_21h31.36.395,CDT_GNG_IUS12,2020.1.2,Win32,60,,l,1,0.675095,0,93,93,40,1,,,,,,,,,,,,,,,,,,,,,,,,,,,,,,,,,,,,,,,,,,,,,,,,,
,,,,,,,,,,35,different,4,-0.054755847,-0.054755847,black,1,0.054755847,0.273779233,magenta,1,-0.273779233,0.054755847,blue,1,0.273779233,-0.054755847,red,1,-0.054755847,-0.16426754,cyan,0,0.054755847,0.054755847,yellow,0,0.05,0.05,0.15,0.054755847,0.273779233,cyan,l,7497,35,2020-08-21_21h31.36.395,CDT_GNG_IUS12,2020.1.2,Win32,60,,l,1,1.783495,0,94,94,34,1,,,,,,,,,,,,,,,,,,,,,,,,,,,,,,,,,,,,,,,,,,,,,,,,,
,,,,,,,,,,80,same,6,-0.273779233,0.16426754,orange,1,0.054755847,-0.273779233,yellow,1,0.054755847,0.273779233,green,1,-0.16426754,-0.273779233,red,1,-0.16426754,0.273779233,blue,1,0.273779233,-0.16426754,black,1,0.05,0.05,0.15,0.054755847,-0.273779233,yellow,k,7497,35,2020-08-21_21h31.36.395,CDT_GNG_IUS12,2020.1.2,Win32,60,,k,1,0.844465,0,95,95,79,1,,,,,,,,,,,,,,,,,,,,,,,,,,,,,,,,,,,,,,,,,,,,,,,,,
,,,,,,,,,,106,different,6,0.054755847,-0.16426754,blue,1,-0.273779233,-0.273779233,magenta,1,0.273779233,0.273779233,yellow,1,-0.273779233,0.054755847,orange,1,0.054755847,-0.054755847,green,1,-0.054755847,-0.16426754,black,1,0.05,0.05,0.15,0.054755847,-0.054755847,cyan,l,7497,35,2020-08-21_21h31.36.395,CDT_GNG_IUS12,2020.1.2,Win32,60,,l,1,0.65404,0,96,96,105,1,,,,,,,,,,,,,,,,,,,,,,,,,,,,,,,,,,,,,,,,,,,,,,,,,
,,,,,,,,,,26,same,4,0.16426754,-0.16426754,green,1,-0.054755847,0.16426754,yellow,1,-0.273779233,-0.16426754,black,1,0.054755847,0.054755847,red,1,0.16426754,-0.054755847,cyan,0,-0.273779233,0.273779233,magenta,0,0.05,0.05,0.15,-0.054755847,0.16426754,yellow,k,7497,35,2020-08-21_21h31.36.395,CDT_GNG_IUS12,2020.1.2,Win32,60,,k,1,2.21795,0,97,97,25,1,,,,,,,,,,,,,,,,,,,,,,,,,,,,,,,,,,,,,,,,,,,,,,,,,
,,,,,,,,,,93,different,6,-0.16426754,0.16426754,red,1,0.054755847,-0.054755847,black,1,-0.054755847,-0.16426754,blue,1,0.054755847,0.273779233,magenta,1,-0.054755847,0.054755847,orange,1,0.16426754,-0.054755847,cyan,1,0.05,0.05,0.15,-0.054755847,-0.16426754,black,l,7497,35,2020-08-21_21h31.36.395,CDT_GNG_IUS12,2020.1.2,Win32,60,,l,1,1.43237,0,98,98,92,1,,,,,,,,,,,,,,,,,,,,,,,,,,,,,,,,,,,,,,,,,,,,,,,,,
,,,,,,,,,,70,same,6,0.16426754,0.16426754,cyan,1,0.273779233,-0.273779233,red,1,-0.16426754,0.16426754,yellow,1,-0.273779233,-0.273779233,green,1,0.16426754,0.054755847,magenta,1,0.16426754,-0.054755847,blue,1,0.05,0.05,0.15,0.273779233,-0.273779233,red,k,7497,35,2020-08-21_21h31.36.395,CDT_GNG_IUS12,2020.1.2,Win32,60,,l,0,0.992385,0,99,99,69,1,,,,,,,,,,,,,,,,,,,,,,,,,,,,,,,,,,,,,,,,,,,,,,,,,
,,,,,,,,,,30,same,4,0.16426754,0.16426754,blue,1,0.054755847,-0.054755847,green,1,-0.273779233,-0.16426754,black,1,-0.054755847,0.273779233,yellow,1,0.16426754,0.273779233,red,0,0.16426754,-0.16426754,magenta,0,0.05,0.05,0.15,0.054755847,-0.054755847,green,k,7497,35,2020-08-21_21h31.36.395,CDT_GNG_IUS12,2020.1.2,Win32,60,,l,0,1.09013,0,100,100,29,1,,,,,,,,,,,,,,,,,,,,,,,,,,,,,,,,,,,,,,,,,,,,,,,,,
,,,,,,,,,,75,same,6,0.16426754,0.273779233,magenta,1,-0.273779233,-0.16426754,green,1,-0.273779233,0.16426754,yellow,1,0.054755847,-0.054755847,red,1,0.273779233,0.054755847,blue,1,-0.16426754,-0.054755847,cyan,1,0.05,0.05,0.15,0.054755847,-0.054755847,red,k,7497,35,2020-08-21_21h31.36.395,CDT_GNG_IUS12,2020.1.2,Win32,60,,k,1,0.70172,0,101,101,74,1,,,,,,,,,,,,,,,,,,,,,,,,,,,,,,,,,,,,,,,,,,,,,,,,,
,,,,,,,,,,22,same,4,-0.054755847,-0.16426754,green,1,-0.16426754,0.054755847,blue,1,0.16426754,0.16426754,yellow,1,0.273779233,-0.054755847,black,1,-0.273779233,-0.054755847,red,0,-0.054755847,0.16426754,cyan,0,0.05,0.05,0.15,0.273779233,-0.054755847,black,k,7497,35,2020-08-21_21h31.36.395,CDT_GNG_IUS12,2020.1.2,Win32,60,,k,1,1.43334,0,102,102,21,1,,,,,,,,,,,,,,,,,,,,,,,,,,,,,,,,,,,,,,,,,,,,,,,,,
,,,,,,,,,,87,same,6,0.273779233,0.16426754,green,1,-0.16426754,-0.054755847,black,1,-0.054755847,0.054755847,cyan,1,0.273779233,-0.054755847,blue,1,0.054755847,0.054755847,yellow,1,-0.273779233,-0.273779233,red,1,0.05,0.05,0.15,-0.273779233,-0.273779233,red,k,7497,35,2020-08-21_21h31.36.395,CDT_GNG_IUS12,2020.1.2,Win32,60,,k,1,0.851475,0,103,103,86,1,,,,,,,,,,,,,,,,,,,,,,,,,,,,,,,,,,,,,,,,,,,,,,,,,
,,,,,,,,,,48,different,4,0.16426754,0.273779233,cyan,1,-0.054755847,-0.273779233,magenta,1,0.16426754,-0.054755847,orange,1,-0.273779233,0.273779233,blue,1,0.273779233,0.16426754,red,0,-0.054755847,-0.16426754,green,0,0.05,0.05,0.15,0.16426754,-0.054755847,red,l,7497,35,2020-08-21_21h31.36.395,CDT_GNG_IUS12,2020.1.2,Win32,60,,l,1,1.125925,0,104,104,47,1,,,,,,,,,,,,,,,,,,,,,,,,,,,,,,,,,,,,,,,,,,,,,,,,,
,,,,,,,,,,57,different,4,-0.273779233,-0.054755847,yellow,1,0.16426754,-0.054755847,green,1,-0.273779233,0.16426754,red,1,0.273779233,0.054755847,black,1,-0.16426754,-0.054755847,orange,0,0.054755847,-0.16426754,magenta,0,0.05,0.05,0.15,0.16426754,-0.054755847,orange,l,7497,35,2020-08-21_21h31.36.395,CDT_GNG_IUS12,2020.1.2,Win32,60,,l,1,0.64427,0,105,105,56,1,,,,,,,,,,,,,,,,,,,,,,,,,,,,,,,,,,,,,,,,,,,,,,,,,
,,,,,,,,,,25,same,4,0.16426754,-0.273779233,green,1,-0.16426754,-0.273779233,black,1,0.16426754,0.054755847,cyan,1,-0.273779233,0.273779233,blue,1,0.054755847,-0.273779233,yellow,0,-0.273779233,-0.273779233,red,0,0.05,0.05,0.15,-0.273779233,0.273779233,blue,k,7497,35,2020-08-21_21h31.36.395,CDT_GNG_IUS12,2020.1.2,Win32,60,,k,1,0.849605,0,106,106,24,1,,,,,,,,,,,,,,,,,,,,,,,,,,,,,,,,,,,,,,,,,,,,,,,,,
,,,,,,,,,,100,different,6,0.273779233,0.16426754,blue,1,-0.054755847,0.054755847,magenta,1,-0.273779233,-0.054755847,orange,1,0.273779233,-0.273779233,red,1,0.16426754,0.054755847,green,1,-0.273779233,0.054755847,yellow,1,0.05,0.05,0.15,0.273779233,0.16426754,orange,l,7497,35,2020-08-21_21h31.36.395,CDT_GNG_IUS12,2020.1.2,Win32,60,,k,0,0.804955,0,107,107,99,1,,,,,,,,,,,,,,,,,,,,,,,,,,,,,,,,,,,,,,,,,,,,,,,,,
,,,,,,,,,,44,different,4,0.16426754,0.16426754,green,1,0.16426754,-0.16426754,black,1,-0.16426754,-0.054755847,cyan,1,-0.16426754,0.054755847,magenta,1,0.16426754,0.054755847,blue,0,0.054755847,-0.273779233,yellow,0,0.05,0.05,0.15,0.16426754,0.16426754,red,l,7497,35,2020-08-21_21h31.36.395,CDT_GNG_IUS12,2020.1.2,Win32,60,,l,1,0.547205,0,108,108,43,1,,,,,,,,,,,,,,,,,,,,,,,,,,,,,,,,,,,,,,,,,,,,,,,,,
,,,,,,,,,,33,different,4,-0.273779233,0.273779233,yellow,1,0.16426754,-0.16426754,cyan,1,-0.273779233,-0.273779233,black,1,0.054755847,0.273779233,blue,1,-0.16426754,0.273779233,green,0,0.054755847,-0.273779233,orange,0,0.05,0.05,0.15,-0.273779233,-0.273779233,cyan,l,7497,35,2020-08-21_21h31.36.395,CDT_GNG_IUS12,2020.1.2,Win32,60,,k,0,1.000425,0,109,109,32,1,,,,,,,,,,,,,,,,,,,,,,,,,,,,,,,,,,,,,,,,,,,,,,,,,
,,,,,,,,,,68,same,6,0.16426754,-0.054755847,blue,1,-0.054755847,-0.16426754,orange,1,-0.16426754,0.054755847,red,1,0.16426754,0.273779233,magenta,1,0.054755847,-0.054755847,black,1,-0.273779233,-0.273779233,yellow,1,0.05,0.05,0.15,-0.054755847,-0.16426754,orange,k,7497,35,2020-08-21_21h31.36.395,CDT_GNG_IUS12,2020.1.2,Win32,60,,k,1,0.9023,0,110,110,67,1,,,,,,,,,,,,,,,,,,,,,,,,,,,,,,,,,,,,,,,,,,,,,,,,,
,,,,,,,,,,5,same,4,0.273779233,-0.054755847,green,1,0.273779233,0.054755847,orange,1,-0.054755847,0.054755847,black,1,-0.054755847,-0.16426754,blue,1,0.054755847,-0.054755847,cyan,0,0.054755847,0.273779233,red,0,0.05,0.05,0.15,-0.054755847,-0.16426754,blue,k,7497,35,2020-08-21_21h31.36.395,CDT_GNG_IUS12,2020.1.2,Win32,60,,k,1,0.5464,0,111,111,4,1,,,,,,,,,,,,,,,,,,,,,,,,,,,,,,,,,,,,,,,,,,,,,,,,,
,,,,,,,,,,110,different,6,-0.273779233,0.273779233,black,1,0.273779233,-0.16426754,red,1,0.054755847,0.273779233,cyan,1,-0.273779233,-0.16426754,orange,1,-0.054755847,0.054755847,magenta,1,0.16426754,-0.054755847,yellow,1,0.05,0.05,0.15,0.273779233,-0.16426754,yellow,l,7497,35,2020-08-21_21h31.36.395,CDT_GNG_IUS12,2020.1.2,Win32,60,,l,1,0.87749,0,112,112,109,1,,,,,,,,,,,,,,,,,,,,,,,,,,,,,,,,,,,,,,,,,,,,,,,,,
,,,,,,,,,,74,same,6,-0.273779233,-0.273779233,magenta,1,0.16426754,0.054755847,cyan,1,-0.16426754,0.273779233,black,1,0.273779233,-0.054755847,yellow,1,-0.16426754,-0.16426754,red,1,0.054755847,0.273779233,green,1,0.05,0.05,0.15,-0.16426754,-0.16426754,red,k,7497,35,2020-08-21_21h31.36.395,CDT_GNG_IUS12,2020.1.2,Win32,60,,l,0,1.25867,0,113,113,73,1,,,,,,,,,,,,,,,,,,,,,,,,,,,,,,,,,,,,,,,,,,,,,,,,,
,,,,,,,,,,54,different,4,-0.054755847,-0.054755847,black,1,0.054755847,0.054755847,cyan,1,0.273779233,-0.16426754,green,1,-0.273779233,0.16426754,magenta,1,-0.054755847,-0.16426754,orange,0,0.054755847,0.16426754,blue,0,0.05,0.05,0.15,-0.273779233,0.16426754,orange,l,7497,35,2020-08-21_21h31.36.395,CDT_GNG_IUS12,2020.1.2,Win32,60,,l,1,0.879215,0,114,114,53,1,,,,,,,,,,,,,,,,,,,,,,,,,,,,,,,,,,,,,,,,,,,,,,,,,
,,,,,,,,,,107,different,6,0.273779233,0.16426754,cyan,1,-0.16426754,-0.273779233,magenta,1,-0.054755847,0.054755847,black,1,0.16426754,-0.054755847,blue,1,0.16426754,0.054755847,green,1,-0.273779233,-0.16426754,yellow,1,0.05,0.05,0.15,0.16426754,0.054755847,blue,l,7497,35,2020-08-21_21h31.36.395,CDT_GNG_IUS12,2020.1.2,Win32,60,,l,1,1.3555,0,115,115,106,1,,,,,,,,,,,,,,,,,,,,,,,,,,,,,,,,,,,,,,,,,,,,,,,,,
,,,,,,,,,,88,same,6,0.054755847,0.054755847,orange,1,0.054755847,-0.273779233,red,1,-0.16426754,-0.16426754,magenta,1,-0.16426754,0.273779233,yellow,1,0.16426754,0.16426754,blue,1,0.273779233,-0.16426754,cyan,1,0.05,0.05,0.15,-0.16426754,0.273779233,yellow,k,7497,35,2020-08-21_21h31.36.395,CDT_GNG_IUS12,2020.1.2,Win32,60,,k,1,0.915195,0,116,116,87,1,,,,,,,,,,,,,,,,,,,,,,,,,,,,,,,,,,,,,,,,,,,,,,,,,
,,,,,,,,,,32,different,4,-0.054755847,-0.273779233,green,1,-0.273779233,0.16426754,black,1,0.16426754,0.16426754,cyan,1,0.273779233,-0.16426754,yellow,1,-0.054755847,-0.054755847,blue,0,-0.054755847,0.273779233,orange,0,0.05,0.05,0.15,-0.054755847,-0.273779233,red,l,7497,35,2020-08-21_21h31.36.395,CDT_GNG_IUS12,2020.1.2,Win32,60,,l,1,0.59633,0,117,117,31,1,,,,,,,,,,,,,,,,,,,,,,,,,,,,,,,,,,,,,,,,,,,,,,,,,
,,,,,,,,,,91,different,6,-0.054755847,0.054755847,green,1,0.054755847,-0.16426754,cyan,1,-0.054755847,-0.054755847,black,1,0.16426754,0.273779233,yellow,1,-0.273779233,0.273779233,magenta,1,0.16426754,-0.054755847,red,1,0.05,0.05,0.15,0.16426754,-0.054755847,green,l,7497,35,2020-08-21_21h31.36.395,CDT_GNG_IUS12,2020.1.2,Win32,60,,l,1,0.61412,0,118,118,90,1,,,,,,,,,,,,,,,,,,,,,,,,,,,,,,,,,,,,,,,,,,,,,,,,,
,,,,,,,,,,24,same,4,0.054755847,-0.16426754,red,1,0.054755847,0.054755847,yellow,1,-0.273779233,0.16426754,orange,1,-0.273779233,-0.16426754,magenta,1,0.273779233,-0.16426754,black,0,0.273779233,0.273779233,green,0,0.05,0.05,0.15,0.054755847,-0.16426754,red,k,7497,35,2020-08-21_21h31.36.395,CDT_GNG_IUS12,2020.1.2,Win32,60,,l,0,1.015835,0,119,119,23,1,,,,,,,,,,,,,,,,,,,,,,,,,,,,,,,,,,,,,,,,,,,,,,,,,
,,,,,,,,,,,,,,,,,,,,,,,,,,,,,,,,,,,,,,,,,,,,7497,35,2020-08-21_21h31.36.395,CDT_GNG_IUS12,2020.1.2,Win32,60,,,,,,,,,,,,1,0,0,0,2,1,1,0,,,,,,,,,,,,,,,,,,,,,,,,,,,,,,,,,,,,,,,
,,,,,,,,,,,,,,,,,,,,,,,,,,,,,,,,,,,,,,,,,,,,7497,35,2020-08-21_21h31.36.395,CDT_GNG_IUS12,2020.1.2,Win32,60,,,,,,,,,,,,1,0,1,1,1,1,1,0,,,,,,,,,,,,,,,,,,,,,,,,,,,,,,,,,,,,,,,
,,,,,,,,,,,,,,,,,,,,,,,,,,,,,,,,,,,,,,,,,,,space,7497,35,2020-08-21_21h31.36.395,CDT_GNG_IUS12,2020.1.2,Win32,60,,,,,,,,,,,space,1,0,2,2,6,1,0,1,0.377995,,,,,,,,,,,,,,,,,,,,,,,,,,,,,,,,,,,,,,
,,,,,,,,,,,,,,,,,,,,,,,,,,,,,,,,,,,,,,,,,,,space,7497,35,2020-08-21_21h31.36.395,CDT_GNG_IUS12,2020.1.2,Win32,60,,,,,,,,,,,space,1,0,3,3,4,1,0,1,0.42956,,,,,,,,,,,,,,,,,,,,,,,,,,,,,,,,,,,,,,
,,,,,,,,,,,,,,,,,,,,,,,,,,,,,,,,,,,,,,,,,,,,7497,35,2020-08-21_21h31.36.395,CDT_GNG_IUS12,2020.1.2,Win32,60,,,,,,,,,,,,1,0,4,4,0,1,1,0,,,,,,,,,,,,,,,,,,,,,,,,,,,,,,,,,,,,,,,
,,,,,,,,,,,,,,,,,,,,,,,,,,,,,,,,,,,,,,,,,,,space,7497,35,2020-08-21_21h31.36.395,CDT_GNG_IUS12,2020.1.2,Win32,60,,,,,,,,,,,space,1,0,5,5,7,1,0,1,0.432925,,,,,,,,,,,,,,,,,,,,,,,,,,,,,,,,,,,,,,
,,,,,,,,,,,,,,,,,,,,,,,,,,,,,,,,,,,,,,,,,,,space,7497,35,2020-08-21_21h31.36.395,CDT_GNG_IUS12,2020.1.2,Win32,60,,,,,,,,,,,space,1,0,6,6,5,1,0,1,0.42595,,,,,,,,,,,,,,,,,,,,,,,,,,,,,,,,,,,,,,
,,,,,,,,,,,,,,,,,,,,,,,,,,,,,,,,,,,,,,,,,,,,7497,35,2020-08-21_21h31.36.395,CDT_GNG_IUS12,2020.1.2,Win32,60,,,,,,,,,,,,1,0,7,7,3,1,1,0,,,,,,,,,,,,,,,,,,,,,,,,,,,,,,,,,,,,,,,
,,,,,,,,,,,,,,,,,,,,,,,,,,,,,,,,,,,,,,,,,,,space,7497,35,2020-08-21_21h31.36.395,CDT_GNG_IUS12,2020.1.2,Win32,60,,,,,,,,,,,,,,,,,,0,1,,space,1,0.57436,0,0,0,12,1,,,,,,,,,,,,,,,,,,,,,,,,,,,,,,
,,,,,,,,,,,,,,,,,,,,,,,,,,,,,,,,,,,,,,,,,,,space,7497,35,2020-08-21_21h31.36.395,CDT_GNG_IUS12,2020.1.2,Win32,60,,,,,,,,,,,,,,,,,,0,1,,space,1,0.49595,0,1,1,32,1,,,,,,,,,,,,,,,,,,,,,,,,,,,,,,
,,,,,,,,,,,,,,,,,,,,,,,,,,,,,,,,,,,,,,,,,,,space,7497,35,2020-08-21_21h31.36.395,CDT_GNG_IUS12,2020.1.2,Win32,60,,,,,,,,,,,,,,,,,,0,1,,space,1,0.35718,0,2,2,35,1,,,,,,,,,,,,,,,,,,,,,,,,,,,,,,
,,,,,,,,,,,,,,,,,,,,,,,,,,,,,,,,,,,,,,,,,,,space,7497,35,2020-08-21_21h31.36.395,CDT_GNG_IUS12,2020.1.2,Win32,60,,,,,,,,,,,,,,,,,,0,1,,space,1,0.284475,0,3,3,15,1,,,,,,,,,,,,,,,,,,,,,,,,,,,,,,
,,,,,,,,,,,,,,,,,,,,,,,,,,,,,,,,,,,,,,,,,,,,7497,35,2020-08-21_21h31.36.395,CDT_GNG_IUS12,2020.1.2,Win32,60,,,,,,,,,,,,,,,,,,1,0,,space,0,0.17423,0,4,4,5,1,,,,,,,,,,,,,,,,,,,,,,,,,,,,,,
,,,,,,,,,,,,,,,,,,,,,,,,,,,,,,,,,,,,,,,,,,,space,7497,35,2020-08-21_21h31.36.395,CDT_GNG_IUS12,2020.1.2,Win32,60,,,,,,,,,,,,,,,,,,0,1,,,0,,0,5,5,22,1,,,,,,,,,,,,,,,,,,,,,,,,,,,,,,
,,,,,,,,,,,,,,,,,,,,,,,,,,,,,,,,,,,,,,,,,,,space,7497,35,2020-08-21_21h31.36.395,CDT_GNG_IUS12,2020.1.2,Win32,60,,,,,,,,,,,,,,,,,,0,1,,space,1,0.288785,0,6,6,25,1,,,,,,,,,,,,,,,,,,,,,,,,,,,,,,
,,,,,,,,,,,,,,,,,,,,,,,,,,,,,,,,,,,,,,,,,,,space,7497,35,2020-08-21_21h31.36.395,CDT_GNG_IUS12,2020.1.2,Win32,60,,,,,,,,,,,,,,,,,,0,1,,space,1,0.300615,0,7,7,47,1,,,,,,,,,,,,,,,,,,,,,,,,,,,,,,
,,,,,,,,,,,,,,,,,,,,,,,,,,,,,,,,,,,,,,,,,,,space,7497,35,2020-08-21_21h31.36.395,CDT_GNG_IUS12,2020.1.2,Win32,60,,,,,,,,,,,,,,,,,,0,1,,space,1,0.303535,0,8,8,18,1,,,,,,,,,,,,,,,,,,,,,,,,,,,,,,
,,,,,,,,,,,,,,,,,,,,,,,,,,,,,,,,,,,,,,,,,,,space,7497,35,2020-08-21_21h31.36.395,CDT_GNG_IUS12,2020.1.2,Win32,60,,,,,,,,,,,,,,,,,,0,1,,space,1,0.299285,0,9,9,38,1,,,,,,,,,,,,,,,,,,,,,,,,,,,,,,
,,,,,,,,,,,,,,,,,,,,,,,,,,,,,,,,,,,,,,,,,,,space,7497,35,2020-08-21_21h31.36.395,CDT_GNG_IUS12,2020.1.2,Win32,60,,,,,,,,,,,,,,,,,,0,1,,space,1,0.266785,0,10,10,14,1,,,,,,,,,,,,,,,,,,,,,,,,,,,,,,
,,,,,,,,,,,,,,,,,,,,,,,,,,,,,,,,,,,,,,,,,,,space,7497,35,2020-08-21_21h31.36.395,CDT_GNG_IUS12,2020.1.2,Win32,60,,,,,,,,,,,,,,,,,,0,1,,space,1,0.234575,0,11,11,27,1,,,,,,,,,,,,,,,,,,,,,,,,,,,,,,
,,,,,,,,,,,,,,,,,,,,,,,,,,,,,,,,,,,,,,,,,,,space,7497,35,2020-08-21_21h31.36.395,CDT_GNG_IUS12,2020.1.2,Win32,60,,,,,,,,,,,,,,,,,,0,1,,space,1,0.224855,0,12,12,39,1,,,,,,,,,,,,,,,,,,,,,,,,,,,,,,
,,,,,,,,,,,,,,,,,,,,,,,,,,,,,,,,,,,,,,,,,,,space,7497,35,2020-08-21_21h31.36.395,CDT_GNG_IUS12,2020.1.2,Win32,60,,,,,,,,,,,,,,,,,,0,1,,space,1,0.19133,0,13,13,11,1,,,,,,,,,,,,,,,,,,,,,,,,,,,,,,
,,,,,,,,,,,,,,,,,,,,,,,,,,,,,,,,,,,,,,,,,,,,7497,35,2020-08-21_21h31.36.395,CDT_GNG_IUS12,2020.1.2,Win32,60,,,,,,,,,,,,,,,,,,1,0,,space,0,0.290145,0,14,14,6,1,,,,,,,,,,,,,,,,,,,,,,,,,,,,,,
,,,,,,,,,,,,,,,,,,,,,,,,,,,,,,,,,,,,,,,,,,,,7497,35,2020-08-21_21h31.36.395,CDT_GNG_IUS12,2020.1.2,Win32,60,,,,,,,,,,,,,,,,,,1,0,,,1,,0,15,15,9,1,,,,,,,,,,,,,,,,,,,,,,,,,,,,,,
,,,,,,,,,,,,,,,,,,,,,,,,,,,,,,,,,,,,,,,,,,,space,7497,35,2020-08-21_21h31.36.395,CDT_GNG_IUS12,2020.1.2,Win32,60,,,,,,,,,,,,,,,,,,0,1,,space,1,0.431415,0,16,16,49,1,,,,,,,,,,,,,,,,,,,,,,,,,,,,,,
,,,,,,,,,,,,,,,,,,,,,,,,,,,,,,,,,,,,,,,,,,,,7497,35,2020-08-21_21h31.36.395,CDT_GNG_IUS12,2020.1.2,Win32,60,,,,,,,,,,,,,,,,,,1,0,,,1,,0,17,17,3,1,,,,,,,,,,,,,,,,,,,,,,,,,,,,,,
,,,,,,,,,,,,,,,,,,,,,,,,,,,,,,,,,,,,,,,,,,,space,7497,35,2020-08-21_21h31.36.395,CDT_GNG_IUS12,2020.1.2,Win32,60,,,,,,,,,,,,,,,,,,0,1,,space,1,0.12059,0,18,18,26,1,,,,,,,,,,,,,,,,,,,,,,,,,,,,,,
,,,,,,,,,,,,,,,,,,,,,,,,,,,,,,,,,,,,,,,,,,,space,7497,35,2020-08-21_21h31.36.395,CDT_GNG_IUS12,2020.1.2,Win32,60,,,,,,,,,,,,,,,,,,0,1,,space,1,0.432915,0,19,19,46,1,,,,,,,,,,,,,,,,,,,,,,,,,,,,,,
,,,,,,,,,,,,,,,,,,,,,,,,,,,,,,,,,,,,,,,,,,,space,7497,35,2020-08-21_21h31.36.395,CDT_GNG_IUS12,2020.1.2,Win32,60,,,,,,,,,,,,,,,,,,0,1,,space,1,0.41677,0,20,20,30,1,,,,,,,,,,,,,,,,,,,,,,,,,,,,,,
,,,,,,,,,,,,,,,,,,,,,,,,,,,,,,,,,,,,,,,,,,,space,7497,35,2020-08-21_21h31.36.395,CDT_GNG_IUS12,2020.1.2,Win32,60,,,,,,,,,,,,,,,,,,0,1,,space,1,0.29423,0,21,21,41,1,,,,,,,,,,,,,,,,,,,,,,,,,,,,,,
,,,,,,,,,,,,,,,,,,,,,,,,,,,,,,,,,,,,,,,,,,,,7497,35,2020-08-21_21h31.36.395,CDT_GNG_IUS12,2020.1.2,Win32,60,,,,,,,,,,,,,,,,,,1,0,,space,0,0.294385,0,22,22,2,1,,,,,,,,,,,,,,,,,,,,,,,,,,,,,,
,,,,,,,,,,,,,,,,,,,,,,,,,,,,,,,,,,,,,,,,,,,space,7497,35,2020-08-21_21h31.36.395,CDT_GNG_IUS12,2020.1.2,Win32,60,,,,,,,,,,,,,,,,,,0,1,,,0,,0,23,23,33,1,,,,,,,,,,,,,,,,,,,,,,,,,,,,,,
,,,,,,,,,,,,,,,,,,,,,,,,,,,,,,,,,,,,,,,,,,,space,7497,35,2020-08-21_21h31.36.395,CDT_GNG_IUS12,2020.1.2,Win32,60,,,,,,,,,,,,,,,,,,0,1,,space,1,0.35055,0,24,24,23,1,,,,,,,,,,,,,,,,,,,,,,,,,,,,,,
,,,,,,,,,,,,,,,,,,,,,,,,,,,,,,,,,,,,,,,,,,,space,7497,35,2020-08-21_21h31.36.395,CDT_GNG_IUS12,2020.1.2,Win32,60,,,,,,,,,,,,,,,,,,0,1,,space,1,0.36561,0,25,25,40,1,,,,,,,,,,,,,,,,,,,,,,,,,,,,,,
,,,,,,,,,,,,,,,,,,,,,,,,,,,,,,,,,,,,,,,,,,,,7497,35,2020-08-21_21h31.36.395,CDT_GNG_IUS12,2020.1.2,Win32,60,,,,,,,,,,,,,,,,,,1,0,,,1,,0,26,26,0,1,,,,,,,,,,,,,,,,,,,,,,,,,,,,,,
,,,,,,,,,,,,,,,,,,,,,,,,,,,,,,,,,,,,,,,,,,,space,7497,35,2020-08-21_21h31.36.395,CDT_GNG_IUS12,2020.1.2,Win32,60,,,,,,,,,,,,,,,,,,0,1,,space,1,0.32713,0,27,27,10,1,,,,,,,,,,,,,,,,,,,,,,,,,,,,,,
,,,,,,,,,,,,,,,,,,,,,,,,,,,,,,,,,,,,,,,,,,,space,7497,35,2020-08-21_21h31.36.395,CDT_GNG_IUS12,2020.1.2,Win32,60,,,,,,,,,,,,,,,,,,0,1,,space,1,0.417925,0,28,28,48,1,,,,,,,,,,,,,,,,,,,,,,,,,,,,,,
,,,,,,,,,,,,,,,,,,,,,,,,,,,,,,,,,,,,,,,,,,,space,7497,35,2020-08-21_21h31.36.395,CDT_GNG_IUS12,2020.1.2,Win32,60,,,,,,,,,,,,,,,,,,0,1,,space,1,0.367635,0,29,29,45,1,,,,,,,,,,,,,,,,,,,,,,,,,,,,,,
,,,,,,,,,,,,,,,,,,,,,,,,,,,,,,,,,,,,,,,,,,,space,7497,35,2020-08-21_21h31.36.395,CDT_GNG_IUS12,2020.1.2,Win32,60,,,,,,,,,,,,,,,,,,0,1,,space,1,0.362335,0,30,30,19,1,,,,,,,,,,,,,,,,,,,,,,,,,,,,,,
,,,,,,,,,,,,,,,,,,,,,,,,,,,,,,,,,,,,,,,,,,,space,7497,35,2020-08-21_21h31.36.395,CDT_GNG_IUS12,2020.1.2,Win32,60,,,,,,,,,,,,,,,,,,0,1,,,0,,0,31,31,34,1,,,,,,,,,,,,,,,,,,,,,,,,,,,,,,
,,,,,,,,,,,,,,,,,,,,,,,,,,,,,,,,,,,,,,,,,,,space,7497,35,2020-08-21_21h31.36.395,CDT_GNG_IUS12,2020.1.2,Win32,60,,,,,,,,,,,,,,,,,,0,1,,space,1,0.19532,0,32,32,28,1,,,,,,,,,,,,,,,,,,,,,,,,,,,,,,
,,,,,,,,,,,,,,,,,,,,,,,,,,,,,,,,,,,,,,,,,,,space,7497,35,2020-08-21_21h31.36.395,CDT_GNG_IUS12,2020.1.2,Win32,60,,,,,,,,,,,,,,,,,,0,1,,space,1,0.308445,0,33,33,20,1,,,,,,,,,,,,,,,,,,,,,,,,,,,,,,
,,,,,,,,,,,,,,,,,,,,,,,,,,,,,,,,,,,,,,,,,,,space,7497,35,2020-08-21_21h31.36.395,CDT_GNG_IUS12,2020.1.2,Win32,60,,,,,,,,,,,,,,,,,,0,1,,space,1,0.34926,0,34,34,13,1,,,,,,,,,,,,,,,,,,,,,,,,,,,,,,
,,,,,,,,,,,,,,,,,,,,,,,,,,,,,,,,,,,,,,,,,,,,7497,35,2020-08-21_21h31.36.395,CDT_GNG_IUS12,2020.1.2,Win32,60,,,,,,,,,,,,,,,,,,1,0,,,1,,0,35,35,7,1,,,,,,,,,,,,,,,,,,,,,,,,,,,,,,
,,,,,,,,,,,,,,,,,,,,,,,,,,,,,,,,,,,,,,,,,,,,7497,35,2020-08-21_21h31.36.395,CDT_GNG_IUS12,2020.1.2,Win32,60,,,,,,,,,,,,,,,,,,1,0,,,1,,0,36,36,8,1,,,,,,,,,,,,,,,,,,,,,,,,,,,,,,
,,,,,,,,,,,,,,,,,,,,,,,,,,,,,,,,,,,,,,,,,,,space,7497,35,2020-08-21_21h31.36.395,CDT_GNG_IUS12,2020.1.2,Win32,60,,,,,,,,,,,,,,,,,,0,1,,space,1,0.37033,0,37,37,29,1,,,,,,,,,,,,,,,,,,,,,,,,,,,,,,
,,,,,,,,,,,,,,,,,,,,,,,,,,,,,,,,,,,,,,,,,,,space,7497,35,2020-08-21_21h31.36.395,CDT_GNG_IUS12,2020.1.2,Win32,60,,,,,,,,,,,,,,,,,,0,1,,space,1,0.38323,0,38,38,37,1,,,,,,,,,,,,,,,,,,,,,,,,,,,,,,
,,,,,,,,,,,,,,,,,,,,,,,,,,,,,,,,,,,,,,,,,,,,7497,35,2020-08-21_21h31.36.395,CDT_GNG_IUS12,2020.1.2,Win32,60,,,,,,,,,,,,,,,,,,1,0,,space,0,0.36833,0,39,39,4,1,,,,,,,,,,,,,,,,,,,,,,,,,,,,,,
,,,,,,,,,,,,,,,,,,,,,,,,,,,,,,,,,,,,,,,,,,,space,7497,35,2020-08-21_21h31.36.395,CDT_GNG_IUS12,2020.1.2,Win32,60,,,,,,,,,,,,,,,,,,0,1,,,0,,0,40,40,42,1,,,,,,,,,,,,,,,,,,,,,,,,,,,,,,
,,,,,,,,,,,,,,,,,,,,,,,,,,,,,,,,,,,,,,,,,,,,7497,35,2020-08-21_21h31.36.395,CDT_GNG_IUS12,2020.1.2,Win32,60,,,,,,,,,,,,,,,,,,1,0,,space,0,0.27212,0,41,41,1,1,,,,,,,,,,,,,,,,,,,,,,,,,,,,,,
,,,,,,,,,,,,,,,,,,,,,,,,,,,,,,,,,,,,,,,,,,,space,7497,35,2020-08-21_21h31.36.395,CDT_GNG_IUS12,2020.1.2,Win32,60,,,,,,,,,,,,,,,,,,0,1,,,0,,0,42,42,43,1,,,,,,,,,,,,,,,,,,,,,,,,,,,,,,
,,,,,,,,,,,,,,,,,,,,,,,,,,,,,,,,,,,,,,,,,,,space,7497,35,2020-08-21_21h31.36.395,CDT_GNG_IUS12,2020.1.2,Win32,60,,,,,,,,,,,,,,,,,,0,1,,space,1,0.379785,0,43,43,44,1,,,,,,,,,,,,,,,,,,,,,,,,,,,,,,
,,,,,,,,,,,,,,,,,,,,,,,,,,,,,,,,,,,,,,,,,,,space,7497,35,2020-08-21_21h31.36.395,CDT_GNG_IUS12,2020.1.2,Win32,60,,,,,,,,,,,,,,,,,,0,1,,,0,,0,44,44,17,1,,,,,,,,,,,,,,,,,,,,,,,,,,,,,,
,,,,,,,,,,,,,,,,,,,,,,,,,,,,,,,,,,,,,,,,,,,space,7497,35,2020-08-21_21h31.36.395,CDT_GNG_IUS12,2020.1.2,Win32,60,,,,,,,,,,,,,,,,,,0,1,,,0,,0,45,45,16,1,,,,,,,,,,,,,,,,,,,,,,,,,,,,,,
,,,,,,,,,,,,,,,,,,,,,,,,,,,,,,,,,,,,,,,,,,,space,7497,35,2020-08-21_21h31.36.395,CDT_GNG_IUS12,2020.1.2,Win32,60,,,,,,,,,,,,,,,,,,0,1,,space,1,0.357515,0,46,46,36,1,,,,,,,,,,,,,,,,,,,,,,,,,,,,,,
,,,,,,,,,,,,,,,,,,,,,,,,,,,,,,,,,,,,,,,,,,,space,7497,35,2020-08-21_21h31.36.395,CDT_GNG_IUS12,2020.1.2,Win32,60,,,,,,,,,,,,,,,,,,0,1,,space,1,0.335885,0,47,47,31,1,,,,,,,,,,,,,,,,,,,,,,,,,,,,,,
,,,,,,,,,,,,,,,,,,,,,,,,,,,,,,,,,,,,,,,,,,,space,7497,35,2020-08-21_21h31.36.395,CDT_GNG_IUS12,2020.1.2,Win32,60,,,,,,,,,,,,,,,,,,0,1,,,0,,0,48,48,24,1,,,,,,,,,,,,,,,,,,,,,,,,,,,,,,
,,,,,,,,,,,,,,,,,,,,,,,,,,,,,,,,,,,,,,,,,,,space,7497,35,2020-08-21_21h31.36.395,CDT_GNG_IUS12,2020.1.2,Win32,60,,,,,,,,,,,,,,,,,,0,1,,space,1,0.132695,0,49,49,21,1,,,,,,,,,,,,,,,,,,,,,,,,,,,,,,
,,,,,,,,,,,,,,,,,,,,,,,,,,,,,,,,,,,,,,,,,,,space,7497,35,2020-08-21_21h31.36.395,CDT_GNG_IUS12,2020.1.2,Win32,60,,,,,,,,,,,,,,,,,,0,1,,space,1,0.40058,,,,,,0,0,0,28,1,,,,,,,,,,,,,,,,,,,,,,,,,
,,,,,,,,,,,,,,,,,,,,,,,,,,,,,,,,,,,,,,,,,,,space,7497,35,2020-08-21_21h31.36.395,CDT_GNG_IUS12,2020.1.2,Win32,60,,,,,,,,,,,,,,,,,,0,1,,space,1,0.301325,,,,,,0,1,1,26,1,,,,,,,,,,,,,,,,,,,,,,,,,
,,,,,,,,,,,,,,,,,,,,,,,,,,,,,,,,,,,,,,,,,,,space,7497,35,2020-08-21_21h31.36.395,CDT_GNG_IUS12,2020.1.2,Win32,60,,,,,,,,,,,,,,,,,,0,1,,space,1,0.33751,,,,,,0,2,2,15,1,,,,,,,,,,,,,,,,,,,,,,,,,
,,,,,,,,,,,,,,,,,,,,,,,,,,,,,,,,,,,,,,,,,,,space,7497,35,2020-08-21_21h31.36.395,CDT_GNG_IUS12,2020.1.2,Win32,60,,,,,,,,,,,,,,,,,,0,1,,space,1,0.28266,,,,,,0,3,3,47,1,,,,,,,,,,,,,,,,,,,,,,,,,
,,,,,,,,,,,,,,,,,,,,,,,,,,,,,,,,,,,,,,,,,,,space,7497,35,2020-08-21_21h31.36.395,CDT_GNG_IUS12,2020.1.2,Win32,60,,,,,,,,,,,,,,,,,,0,1,,space,1,0.378095,,,,,,0,4,4,44,1,,,,,,,,,,,,,,,,,,,,,,,,,
,,,,,,,,,,,,,,,,,,,,,,,,,,,,,,,,,,,,,,,,,,,space,7497,35,2020-08-21_21h31.36.395,CDT_GNG_IUS12,2020.1.2,Win32,60,,,,,,,,,,,,,,,,,,0,1,,space,1,0.311915,,,,,,0,5,5,35,1,,,,,,,,,,,,,,,,,,,,,,,,,
,,,,,,,,,,,,,,,,,,,,,,,,,,,,,,,,,,,,,,,,,,,space,7497,35,2020-08-21_21h31.36.395,CDT_GNG_IUS12,2020.1.2,Win32,60,,,,,,,,,,,,,,,,,,0,1,,space,1,0.35108,,,,,,0,6,6,11,1,,,,,,,,,,,,,,,,,,,,,,,,,
,,,,,,,,,,,,,,,,,,,,,,,,,,,,,,,,,,,,,,,,,,,,7497,35,2020-08-21_21h31.36.395,CDT_GNG_IUS12,2020.1.2,Win32,60,,,,,,,,,,,,,,,,,,1,0,,space,0,0.290815,,,,,,0,7,7,3,1,,,,,,,,,,,,,,,,,,,,,,,,,
,,,,,,,,,,,,,,,,,,,,,,,,,,,,,,,,,,,,,,,,,,,space,7497,35,2020-08-21_21h31.36.395,CDT_GNG_IUS12,2020.1.2,Win32,60,,,,,,,,,,,,,,,,,,0,1,,space,1,0.57943,,,,,,0,8,8,34,1,,,,,,,,,,,,,,,,,,,,,,,,,
,,,,,,,,,,,,,,,,,,,,,,,,,,,,,,,,,,,,,,,,,,,space,7497,35,2020-08-21_21h31.36.395,CDT_GNG_IUS12,2020.1.2,Win32,60,,,,,,,,,,,,,,,,,,0,1,,space,1,0.565135,,,,,,0,9,9,12,1,,,,,,,,,,,,,,,,,,,,,,,,,
,,,,,,,,,,,,,,,,,,,,,,,,,,,,,,,,,,,,,,,,,,,space,7497,35,2020-08-21_21h31.36.395,CDT_GNG_IUS12,2020.1.2,Win32,60,,,,,,,,,,,,,,,,,,0,1,,,0,,,,,,,0,10,10,19,1,,,,,,,,,,,,,,,,,,,,,,,,,
,,,,,,,,,,,,,,,,,,,,,,,,,,,,,,,,,,,,,,,,,,,space,7497,35,2020-08-21_21h31.36.395,CDT_GNG_IUS12,2020.1.2,Win32,60,,,,,,,,,,,,,,,,,,0,1,,space,1,0.261705,,,,,,0,11,11,48,1,,,,,,,,,,,,,,,,,,,,,,,,,
,,,,,,,,,,,,,,,,,,,,,,,,,,,,,,,,,,,,,,,,,,,space,7497,35,2020-08-21_21h31.36.395,CDT_GNG_IUS12,2020.1.2,Win32,60,,,,,,,,,,,,,,,,,,0,1,,space,1,0.303195,,,,,,0,12,12,16,1,,,,,,,,,,,,,,,,,,,,,,,,,
,,,,,,,,,,,,,,,,,,,,,,,,,,,,,,,,,,,,,,,,,,,space,7497,35,2020-08-21_21h31.36.395,CDT_GNG_IUS12,2020.1.2,Win32,60,,,,,,,,,,,,,,,,,,0,1,,space,1,0.32317,,,,,,0,13,13,22,1,,,,,,,,,,,,,,,,,,,,,,,,,
,,,,,,,,,,,,,,,,,,,,,,,,,,,,,,,,,,,,,,,,,,,space,7497,35,2020-08-21_21h31.36.395,CDT_GNG_IUS12,2020.1.2,Win32,60,,,,,,,,,,,,,,,,,,0,1,,space,1,0.31703,,,,,,0,14,14,46,1,,,,,,,,,,,,,,,,,,,,,,,,,
,,,,,,,,,,,,,,,,,,,,,,,,,,,,,,,,,,,,,,,,,,,,7497,35,2020-08-21_21h31.36.395,CDT_GNG_IUS12,2020.1.2,Win32,60,,,,,,,,,,,,,,,,,,1,0,,,1,,,,,,,0,15,15,2,1,,,,,,,,,,,,,,,,,,,,,,,,,
,,,,,,,,,,,,,,,,,,,,,,,,,,,,,,,,,,,,,,,,,,,,7497,35,2020-08-21_21h31.36.395,CDT_GNG_IUS12,2020.1.2,Win32,60,,,,,,,,,,,,,,,,,,1,0,,space,0,0.28695,,,,,,0,16,16,4,1,,,,,,,,,,,,,,,,,,,,,,,,,
,,,,,,,,,,,,,,,,,,,,,,,,,,,,,,,,,,,,,,,,,,,space,7497,35,2020-08-21_21h31.36.395,CDT_GNG_IUS12,2020.1.2,Win32,60,,,,,,,,,,,,,,,,,,0,1,,,0,,,,,,,0,17,17,23,1,,,,,,,,,,,,,,,,,,,,,,,,,
,,,,,,,,,,,,,,,,,,,,,,,,,,,,,,,,,,,,,,,,,,,,7497,35,2020-08-21_21h31.36.395,CDT_GNG_IUS12,2020.1.2,Win32,60,,,,,,,,,,,,,,,,,,1,0,,space,0,0.12035,,,,,,0,18,18,8,1,,,,,,,,,,,,,,,,,,,,,,,,,
,,,,,,,,,,,,,,,,,,,,,,,,,,,,,,,,,,,,,,,,,,,space,7497,35,2020-08-21_21h31.36.395,CDT_GNG_IUS12,2020.1.2,Win32,60,,,,,,,,,,,,,,,,,,0,1,,,0,,,,,,,0,19,19,30,1,,,,,,,,,,,,,,,,,,,,,,,,,
,,,,,,,,,,,,,,,,,,,,,,,,,,,,,,,,,,,,,,,,,,,,7497,35,2020-08-21_21h31.36.395,CDT_GNG_IUS12,2020.1.2,Win32,60,,,,,,,,,,,,,,,,,,1,0,,,1,,,,,,,0,20,20,5,1,,,,,,,,,,,,,,,,,,,,,,,,,
,,,,,,,,,,,,,,,,,,,,,,,,,,,,,,,,,,,,,,,,,,,space,7497,35,2020-08-21_21h31.36.395,CDT_GNG_IUS12,2020.1.2,Win32,60,,,,,,,,,,,,,,,,,,0,1,,space,1,0.324755,,,,,,0,21,21,25,1,,,,,,,,,,,,,,,,,,,,,,,,,
,,,,,,,,,,,,,,,,,,,,,,,,,,,,,,,,,,,,,,,,,,,space,7497,35,2020-08-21_21h31.36.395,CDT_GNG_IUS12,2020.1.2,Win32,60,,,,,,,,,,,,,,,,,,0,1,,space,1,0.40106,,,,,,0,22,22,45,1,,,,,,,,,,,,,,,,,,,,,,,,,
,,,,,,,,,,,,,,,,,,,,,,,,,,,,,,,,,,,,,,,,,,,,7497,35,2020-08-21_21h31.36.395,CDT_GNG_IUS12,2020.1.2,Win32,60,,,,,,,,,,,,,,,,,,1,0,,,1,,,,,,,0,23,23,0,1,,,,,,,,,,,,,,,,,,,,,,,,,
,,,,,,,,,,,,,,,,,,,,,,,,,,,,,,,,,,,,,,,,,,,space,7497,35,2020-08-21_21h31.36.395,CDT_GNG_IUS12,2020.1.2,Win32,60,,,,,,,,,,,,,,,,,,0,1,,space,1,0.425915,,,,,,0,24,24,18,1,,,,,,,,,,,,,,,,,,,,,,,,,
,,,,,,,,,,,,,,,,,,,,,,,,,,,,,,,,,,,,,,,,,,,,7497,35,2020-08-21_21h31.36.395,CDT_GNG_IUS12,2020.1.2,Win32,60,,,,,,,,,,,,,,,,,,1,0,,,1,,,,,,,0,25,25,1,1,,,,,,,,,,,,,,,,,,,,,,,,,
,,,,,,,,,,,,,,,,,,,,,,,,,,,,,,,,,,,,,,,,,,,space,7497,35,2020-08-21_21h31.36.395,CDT_GNG_IUS12,2020.1.2,Win32,60,,,,,,,,,,,,,,,,,,0,1,,space,1,0.33611,,,,,,0,26,26,49,1,,,,,,,,,,,,,,,,,,,,,,,,,
,,,,,,,,,,,,,,,,,,,,,,,,,,,,,,,,,,,,,,,,,,,space,7497,35,2020-08-21_21h31.36.395,CDT_GNG_IUS12,2020.1.2,Win32,60,,,,,,,,,,,,,,,,,,0,1,,,0,,,,,,,0,27,27,17,1,,,,,,,,,,,,,,,,,,,,,,,,,
,,,,,,,,,,,,,,,,,,,,,,,,,,,,,,,,,,,,,,,,,,,space,7497,35,2020-08-21_21h31.36.395,CDT_GNG_IUS12,2020.1.2,Win32,60,,,,,,,,,,,,,,,,,,0,1,,,0,,,,,,,0,28,28,13,1,,,,,,,,,,,,,,,,,,,,,,,,,
,,,,,,,,,,,,,,,,,,,,,,,,,,,,,,,,,,,,,,,,,,,space,7497,35,2020-08-21_21h31.36.395,CDT_GNG_IUS12,2020.1.2,Win32,60,,,,,,,,,,,,,,,,,,0,1,,space,1,0.286655,,,,,,0,29,29,27,1,,,,,,,,,,,,,,,,,,,,,,,,,
,,,,,,,,,,,,,,,,,,,,,,,,,,,,,,,,,,,,,,,,,,,space,7497,35,2020-08-21_21h31.36.395,CDT_GNG_IUS12,2020.1.2,Win32,60,,,,,,,,,,,,,,,,,,0,1,,space,1,0.4236,,,,,,0,30,30,36,1,,,,,,,,,,,,,,,,,,,,,,,,,
,,,,,,,,,,,,,,,,,,,,,,,,,,,,,,,,,,,,,,,,,,,space,7497,35,2020-08-21_21h31.36.395,CDT_GNG_IUS12,2020.1.2,Win32,60,,,,,,,,,,,,,,,,,,0,1,,,0,,,,,,,0,31,31,14,1,,,,,,,,,,,,,,,,,,,,,,,,,
,,,,,,,,,,,,,,,,,,,,,,,,,,,,,,,,,,,,,,,,,,,space,7497,35,2020-08-21_21h31.36.395,CDT_GNG_IUS12,2020.1.2,Win32,60,,,,,,,,,,,,,,,,,,0,1,,,0,,,,,,,0,32,32,40,1,,,,,,,,,,,,,,,,,,,,,,,,,
,,,,,,,,,,,,,,,,,,,,,,,,,,,,,,,,,,,,,,,,,,,space,7497,35,2020-08-21_21h31.36.395,CDT_GNG_IUS12,2020.1.2,Win32,60,,,,,,,,,,,,,,,,,,0,1,,space,1,0.35386,,,,,,0,33,33,43,1,,,,,,,,,,,,,,,,,,,,,,,,,
,,,,,,,,,,,,,,,,,,,,,,,,,,,,,,,,,,,,,,,,,,,space,7497,35,2020-08-21_21h31.36.395,CDT_GNG_IUS12,2020.1.2,Win32,60,,,,,,,,,,,,,,,,,,0,1,,,0,,,,,,,0,34,34,20,1,,,,,,,,,,,,,,,,,,,,,,,,,
,,,,,,,,,,,,,,,,,,,,,,,,,,,,,,,,,,,,,,,,,,,,7497,35,2020-08-21_21h31.36.395,CDT_GNG_IUS12,2020.1.2,Win32,60,,,,,,,,,,,,,,,,,,1,0,,space,0,0.18124,,,,,,0,35,35,6,1,,,,,,,,,,,,,,,,,,,,,,,,,
,,,,,,,,,,,,,,,,,,,,,,,,,,,,,,,,,,,,,,,,,,,space,7497,35,2020-08-21_21h31.36.395,CDT_GNG_IUS12,2020.1.2,Win32,60,,,,,,,,,,,,,,,,,,0,1,,,0,,,,,,,0,36,36,29,1,,,,,,,,,,,,,,,,,,,,,,,,,
,,,,,,,,,,,,,,,,,,,,,,,,,,,,,,,,,,,,,,,,,,,space,7497,35,2020-08-21_21h31.36.395,CDT_GNG_IUS12,2020.1.2,Win32,60,,,,,,,,,,,,,,,,,,0,1,,space,1,0.368185,,,,,,0,37,37,24,1,,,,,,,,,,,,,,,,,,,,,,,,,
,,,,,,,,,,,,,,,,,,,,,,,,,,,,,,,,,,,,,,,,,,,space,7497,35,2020-08-21_21h31.36.395,CDT_GNG_IUS12,2020.1.2,Win32,60,,,,,,,,,,,,,,,,,,0,1,,,0,,,,,,,0,38,38,39,1,,,,,,,,,,,,,,,,,,,,,,,,,
,,,,,,,,,,,,,,,,,,,,,,,,,,,,,,,,,,,,,,,,,,,,7497,35,2020-08-21_21h31.36.395,CDT_GNG_IUS12,2020.1.2,Win32,60,,,,,,,,,,,,,,,,,,1,0,,,1,,,,,,,0,39,39,7,1,,,,,,,,,,,,,,,,,,,,,,,,,
,,,,,,,,,,,,,,,,,,,,,,,,,,,,,,,,,,,,,,,,,,,space,7497,35,2020-08-21_21h31.36.395,CDT_GNG_IUS12,2020.1.2,Win32,60,,,,,,,,,,,,,,,,,,0,1,,,0,,,,,,,0,40,40,38,1,,,,,,,,,,,,,,,,,,,,,,,,,
,,,,,,,,,,,,,,,,,,,,,,,,,,,,,,,,,,,,,,,,,,,space,7497,35,2020-08-21_21h31.36.395,CDT_GNG_IUS12,2020.1.2,Win32,60,,,,,,,,,,,,,,,,,,0,1,,,0,,,,,,,0,41,41,37,1,,,,,,,,,,,,,,,,,,,,,,,,,
,,,,,,,,,,,,,,,,,,,,,,,,,,,,,,,,,,,,,,,,,,,,7497,35,2020-08-21_21h31.36.395,CDT_GNG_IUS12,2020.1.2,Win32,60,,,,,,,,,,,,,,,,,,1,0,,space,0,0.301385,,,,,,0,42,42,9,1,,,,,,,,,,,,,,,,,,,,,,,,,
,,,,,,,,,,,,,,,,,,,,,,,,,,,,,,,,,,,,,,,,,,,space,7497,35,2020-08-21_21h31.36.395,CDT_GNG_IUS12,2020.1.2,Win32,60,,,,,,,,,,,,,,,,,,0,1,,,0,,,,,,,0,43,43,10,1,,,,,,,,,,,,,,,,,,,,,,,,,
,,,,,,,,,,,,,,,,,,,,,,,,,,,,,,,,,,,,,,,,,,,space,7497,35,2020-08-21_21h31.36.395,CDT_GNG_IUS12,2020.1.2,Win32,60,,,,,,,,,,,,,,,,,,0,1,,space,1,0.3273,,,,,,0,44,44,32,1,,,,,,,,,,,,,,,,,,,,,,,,,
,,,,,,,,,,,,,,,,,,,,,,,,,,,,,,,,,,,,,,,,,,,space,7497,35,2020-08-21_21h31.36.395,CDT_GNG_IUS12,2020.1.2,Win32,60,,,,,,,,,,,,,,,,,,0,1,,space,1,0.399335,,,,,,0,45,45,41,1,,,,,,,,,,,,,,,,,,,,,,,,,
,,,,,,,,,,,,,,,,,,,,,,,,,,,,,,,,,,,,,,,,,,,space,7497,35,2020-08-21_21h31.36.395,CDT_GNG_IUS12,2020.1.2,Win32,60,,,,,,,,,,,,,,,,,,0,1,,,0,,,,,,,0,46,46,21,1,,,,,,,,,,,,,,,,,,,,,,,,,
,,,,,,,,,,,,,,,,,,,,,,,,,,,,,,,,,,,,,,,,,,,space,7497,35,2020-08-21_21h31.36.395,CDT_GNG_IUS12,2020.1.2,Win32,60,,,,,,,,,,,,,,,,,,0,1,,space,1,0.142095,,,,,,0,47,47,31,1,,,,,,,,,,,,,,,,,,,,,,,,,
,,,,,,,,,,,,,,,,,,,,,,,,,,,,,,,,,,,,,,,,,,,space,7497,35,2020-08-21_21h31.36.395,CDT_GNG_IUS12,2020.1.2,Win32,60,,,,,,,,,,,,,,,,,,0,1,,,0,,,,,,,0,48,48,33,1,,,,,,,,,,,,,,,,,,,,,,,,,
,,,,,,,,,,,,,,,,,,,,,,,,,,,,,,,,,,,,,,,,,,,space,7497,35,2020-08-21_21h31.36.395,CDT_GNG_IUS12,2020.1.2,Win32,60,,,,,,,,,,,,,,,,,,0,1,,space,1,0.04175,,,,,,0,49,49,42,1,,,,,,,,,,,,,,,,,,,,,,,,,
,,,,,,,,,,,,,,,,,,,,,,,,,,,,,,,,,,,,,,,,,,,space,7497,35,2020-08-21_21h31.36.395,CDT_GNG_IUS12,2020.1.2,Win32,60,,,,,,,,,,,,,,,,,,0,1,,space,1,0.34666,,,,,,,,,,,0,0,0,14,1,,,,,,,,,,,,,,,,,,,,
,,,,,,,,,,,,,,,,,,,,,,,,,,,,,,,,,,,,,,,,,,,space,7497,35,2020-08-21_21h31.36.395,CDT_GNG_IUS12,2020.1.2,Win32,60,,,,,,,,,,,,,,,,,,0,1,,space,1,0.356055,,,,,,,,,,,0,1,1,38,1,,,,,,,,,,,,,,,,,,,,
,,,,,,,,,,,,,,,,,,,,,,,,,,,,,,,,,,,,,,,,,,,,7497,35,2020-08-21_21h31.36.395,CDT_GNG_IUS12,2020.1.2,Win32,60,,,,,,,,,,,,,,,,,,1,0,,,1,,,,,,,,,,,,0,2,2,7,1,,,,,,,,,,,,,,,,,,,,
,,,,,,,,,,,,,,,,,,,,,,,,,,,,,,,,,,,,,,,,,,,space,7497,35,2020-08-21_21h31.36.395,CDT_GNG_IUS12,2020.1.2,Win32,60,,,,,,,,,,,,,,,,,,0,1,,space,1,0.33259,,,,,,,,,,,0,3,3,12,1,,,,,,,,,,,,,,,,,,,,
,,,,,,,,,,,,,,,,,,,,,,,,,,,,,,,,,,,,,,,,,,,space,7497,35,2020-08-21_21h31.36.395,CDT_GNG_IUS12,2020.1.2,Win32,60,,,,,,,,,,,,,,,,,,0,1,,,0,,,,,,,,,,,,0,4,4,18,1,,,,,,,,,,,,,,,,,,,,
,,,,,,,,,,,,,,,,,,,,,,,,,,,,,,,,,,,,,,,,,,,space,7497,35,2020-08-21_21h31.36.395,CDT_GNG_IUS12,2020.1.2,Win32,60,,,,,,,,,,,,,,,,,,0,1,,,0,,,,,,,,,,,,0,5,5,33,1,,,,,,,,,,,,,,,,,,,,
,,,,,,,,,,,,,,,,,,,,,,,,,,,,,,,,,,,,,,,,,,,,7497,35,2020-08-21_21h31.36.395,CDT_GNG_IUS12,2020.1.2,Win32,60,,,,,,,,,,,,,,,,,,1,0,,space,0,0.303815,,,,,,,,,,,0,6,6,4,1,,,,,,,,,,,,,,,,,,,,
,,,,,,,,,,,,,,,,,,,,,,,,,,,,,,,,,,,,,,,,,,,,7497,35,2020-08-21_21h31.36.395,CDT_GNG_IUS12,2020.1.2,Win32,60,,,,,,,,,,,,,,,,,,1,0,,,1,,,,,,,,,,,,0,7,7,8,1,,,,,,,,,,,,,,,,,,,,
,,,,,,,,,,,,,,,,,,,,,,,,,,,,,,,,,,,,,,,,,,,space,7497,35,2020-08-21_21h31.36.395,CDT_GNG_IUS12,2020.1.2,Win32,60,,,,,,,,,,,,,,,,,,0,1,,space,1,0.580955,,,,,,,,,,,0,8,8,26,1,,,,,,,,,,,,,,,,,,,,
,,,,,,,,,,,,,,,,,,,,,,,,,,,,,,,,,,,,,,,,,,,space,7497,35,2020-08-21_21h31.36.395,CDT_GNG_IUS12,2020.1.2,Win32,60,,,,,,,,,,,,,,,,,,0,1,,,0,,,,,,,,,,,,0,9,9,22,1,,,,,,,,,,,,,,,,,,,,
,,,,,,,,,,,,,,,,,,,,,,,,,,,,,,,,,,,,,,,,,,,space,7497,35,2020-08-21_21h31.36.395,CDT_GNG_IUS12,2020.1.2,Win32,60,,,,,,,,,,,,,,,,,,0,1,,,0,,,,,,,,,,,,0,10,10,47,1,,,,,,,,,,,,,,,,,,,,
,,,,,,,,,,,,,,,,,,,,,,,,,,,,,,,,,,,,,,,,,,,,7497,35,2020-08-21_21h31.36.395,CDT_GNG_IUS12,2020.1.2,Win32,60,,,,,,,,,,,,,,,,,,1,0,,,1,,,,,,,,,,,,0,11,11,1,1,,,,,,,,,,,,,,,,,,,,
,,,,,,,,,,,,,,,,,,,,,,,,,,,,,,,,,,,,,,,,,,,,7497,35,2020-08-21_21h31.36.395,CDT_GNG_IUS12,2020.1.2,Win32,60,,,,,,,,,,,,,,,,,,1,0,,,1,,,,,,,,,,,,0,12,12,2,1,,,,,,,,,,,,,,,,,,,,
,,,,,,,,,,,,,,,,,,,,,,,,,,,,,,,,,,,,,,,,,,,space,7497,35,2020-08-21_21h31.36.395,CDT_GNG_IUS12,2020.1.2,Win32,60,,,,,,,,,,,,,,,,,,0,1,,space,1,0.418515,,,,,,,,,,,0,13,13,30,1,,,,,,,,,,,,,,,,,,,,
,,,,,,,,,,,,,,,,,,,,,,,,,,,,,,,,,,,,,,,,,,,space,7497,35,2020-08-21_21h31.36.395,CDT_GNG_IUS12,2020.1.2,Win32,60,,,,,,,,,,,,,,,,,,0,1,,space,1,0.505185,,,,,,,,,,,0,14,14,16,1,,,,,,,,,,,,,,,,,,,,
,,,,,,,,,,,,,,,,,,,,,,,,,,,,,,,,,,,,,,,,,,,space,7497,35,2020-08-21_21h31.36.395,CDT_GNG_IUS12,2020.1.2,Win32,60,,,,,,,,,,,,,,,,,,0,1,,,0,,,,,,,,,,,,0,15,15,15,1,,,,,,,,,,,,,,,,,,,,
,,,,,,,,,,,,,,,,,,,,,,,,,,,,,,,,,,,,,,,,,,,space,7497,35,2020-08-21_21h31.36.395,CDT_GNG_IUS12,2020.1.2,Win32,60,,,,,,,,,,,,,,,,,,0,1,,space,1,0.060905,,,,,,,,,,,0,16,16,24,1,,,,,,,,,,,,,,,,,,,,
,,,,,,,,,,,,,,,,,,,,,,,,,,,,,,,,,,,,,,,,,,,space,7497,35,2020-08-21_21h31.36.395,CDT_GNG_IUS12,2020.1.2,Win32,60,,,,,,,,,,,,,,,,,,0,1,,space,1,0.29792,,,,,,,,,,,0,17,17,41,1,,,,,,,,,,,,,,,,,,,,
,,,,,,,,,,,,,,,,,,,,,,,,,,,,,,,,,,,,,,,,,,,space,7497,35,2020-08-21_21h31.36.395,CDT_GNG_IUS12,2020.1.2,Win32,60,,,,,,,,,,,,,,,,,,0,1,,space,1,0.387795,,,,,,,,,,,0,18,18,13,1,,,,,,,,,,,,,,,,,,,,
,,,,,,,,,,,,,,,,,,,,,,,,,,,,,,,,,,,,,,,,,,,space,7497,35,2020-08-21_21h31.36.395,CDT_GNG_IUS12,2020.1.2,Win32,60,,,,,,,,,,,,,,,,,,0,1,,space,1,0.39894,,,,,,,,,,,0,19,19,20,1,,,,,,,,,,,,,,,,,,,,
,,,,,,,,,,,,,,,,,,,,,,,,,,,,,,,,,,,,,,,,,,,space,7497,35,2020-08-21_21h31.36.395,CDT_GNG_IUS12,2020.1.2,Win32,60,,,,,,,,,,,,,,,,,,0,1,,space,1,0.428,,,,,,,,,,,0,20,20,46,1,,,,,,,,,,,,,,,,,,,,
,,,,,,,,,,,,,,,,,,,,,,,,,,,,,,,,,,,,,,,,,,,space,7497,35,2020-08-21_21h31.36.395,CDT_GNG_IUS12,2020.1.2,Win32,60,,,,,,,,,,,,,,,,,,0,1,,space,1,0.428655,,,,,,,,,,,0,21,21,49,1,,,,,,,,,,,,,,,,,,,,
,,,,,,,,,,,,,,,,,,,,,,,,,,,,,,,,,,,,,,,,,,,space,7497,35,2020-08-21_21h31.36.395,CDT_GNG_IUS12,2020.1.2,Win32,60,,,,,,,,,,,,,,,,,,0,1,,space,1,0.430735,,,,,,,,,,,0,22,22,25,1,,,,,,,,,,,,,,,,,,,,
,,,,,,,,,,,,,,,,,,,,,,,,,,,,,,,,,,,,,,,,,,,space,7497,35,2020-08-21_21h31.36.395,CDT_GNG_IUS12,2020.1.2,Win32,60,,,,,,,,,,,,,,,,,,0,1,,,0,,,,,,,,,,,,0,23,23,31,1,,,,,,,,,,,,,,,,,,,,
,,,,,,,,,,,,,,,,,,,,,,,,,,,,,,,,,,,,,,,,,,,,7497,35,2020-08-21_21h31.36.395,CDT_GNG_IUS12,2020.1.2,Win32,60,,,,,,,,,,,,,,,,,,1,0,,space,0,0.0347,,,,,,,,,,,0,24,24,5,1,,,,,,,,,,,,,,,,,,,,
,,,,,,,,,,,,,,,,,,,,,,,,,,,,,,,,,,,,,,,,,,,space,7497,35,2020-08-21_21h31.36.395,CDT_GNG_IUS12,2020.1.2,Win32,60,,,,,,,,,,,,,,,,,,0,1,,,0,,,,,,,,,,,,0,25,25,19,1,,,,,,,,,,,,,,,,,,,,
,,,,,,,,,,,,,,,,,,,,,,,,,,,,,,,,,,,,,,,,,,,space,7497,35,2020-08-21_21h31.36.395,CDT_GNG_IUS12,2020.1.2,Win32,60,,,,,,,,,,,,,,,,,,0,1,,,0,,,,,,,,,,,,0,26,26,35,1,,,,,,,,,,,,,,,,,,,,
,,,,,,,,,,,,,,,,,,,,,,,,,,,,,,,,,,,,,,,,,,,space,7497,35,2020-08-21_21h31.36.395,CDT_GNG_IUS12,2020.1.2,Win32,60,,,,,,,,,,,,,,,,,,0,1,,space,1,0.25885,,,,,,,,,,,0,27,27,39,1,,,,,,,,,,,,,,,,,,,,
,,,,,,,,,,,,,,,,,,,,,,,,,,,,,,,,,,,,,,,,,,,,7497,35,2020-08-21_21h31.36.395,CDT_GNG_IUS12,2020.1.2,Win32,60,,,,,,,,,,,,,,,,,,1,0,,space,0,0.362135,,,,,,,,,,,0,28,28,6,1,,,,,,,,,,,,,,,,,,,,
,,,,,,,,,,,,,,,,,,,,,,,,,,,,,,,,,,,,,,,,,,,space,7497,35,2020-08-21_21h31.36.395,CDT_GNG_IUS12,2020.1.2,Win32,60,,,,,,,,,,,,,,,,,,0,1,,,0,,,,,,,,,,,,0,29,29,23,1,,,,,,,,,,,,,,,,,,,,
,,,,,,,,,,,,,,,,,,,,,,,,,,,,,,,,,,,,,,,,,,,space,7497,35,2020-08-21_21h31.36.395,CDT_GNG_IUS12,2020.1.2,Win32,60,,,,,,,,,,,,,,,,,,0,1,,space,1,0.326955,,,,,,,,,,,0,30,30,45,1,,,,,,,,,,,,,,,,,,,,
,,,,,,,,,,,,,,,,,,,,,,,,,,,,,,,,,,,,,,,,,,,space,7497,35,2020-08-21_21h31.36.395,CDT_GNG_IUS12,2020.1.2,Win32,60,,,,,,,,,,,,,,,,,,0,1,,space,1,0.36024,,,,,,,,,,,0,31,31,34,1,,,,,,,,,,,,,,,,,,,,
,,,,,,,,,,,,,,,,,,,,,,,,,,,,,,,,,,,,,,,,,,,,7497,35,2020-08-21_21h31.36.395,CDT_GNG_IUS12,2020.1.2,Win32,60,,,,,,,,,,,,,,,,,,1,0,,,1,,,,,,,,,,,,0,32,32,9,1,,,,,,,,,,,,,,,,,,,,
,,,,,,,,,,,,,,,,,,,,,,,,,,,,,,,,,,,,,,,,,,,space,7497,35,2020-08-21_21h31.36.395,CDT_GNG_IUS12,2020.1.2,Win32,60,,,,,,,,,,,,,,,,,,0,1,,space,1,0.379245,,,,,,,,,,,0,33,33,17,1,,,,,,,,,,,,,,,,,,,,
,,,,,,,,,,,,,,,,,,,,,,,,,,,,,,,,,,,,,,,,,,,space,7497,35,2020-08-21_21h31.36.395,CDT_GNG_IUS12,2020.1.2,Win32,60,,,,,,,,,,,,,,,,,,0,1,,space,1,0.40217,,,,,,,,,,,0,34,34,10,1,,,,,,,,,,,,,,,,,,,,
,,,,,,,,,,,,,,,,,,,,,,,,,,,,,,,,,,,,,,,,,,,space,7497,35,2020-08-21_21h31.36.395,CDT_GNG_IUS12,2020.1.2,Win32,60,,,,,,,,,,,,,,,,,,0,1,,space,1,0.41758,,,,,,,,,,,0,35,35,43,1,,,,,,,,,,,,,,,,,,,,
,,,,,,,,,,,,,,,,,,,,,,,,,,,,,,,,,,,,,,,,,,,space,7497,35,2020-08-21_21h31.36.395,CDT_GNG_IUS12,2020.1.2,Win32,60,,,,,,,,,,,,,,,,,,0,1,,space,1,0.5796,,,,,,,,,,,0,36,36,27,1,,,,,,,,,,,,,,,,,,,,
,,,,,,,,,,,,,,,,,,,,,,,,,,,,,,,,,,,,,,,,,,,space,7497,35,2020-08-21_21h31.36.395,CDT_GNG_IUS12,2020.1.2,Win32,60,,,,,,,,,,,,,,,,,,0,1,,,0,,,,,,,,,,,,0,37,37,29,1,,,,,,,,,,,,,,,,,,,,
,,,,,,,,,,,,,,,,,,,,,,,,,,,,,,,,,,,,,,,,,,,space,7497,35,2020-08-21_21h31.36.395,CDT_GNG_IUS12,2020.1.2,Win32,60,,,,,,,,,,,,,,,,,,0,1,,space,1,0.07222,,,,,,,,,,,0,38,38,48,1,,,,,,,,,,,,,,,,,,,,
,,,,,,,,,,,,,,,,,,,,,,,,,,,,,,,,,,,,,,,,,,,space,7497,35,2020-08-21_21h31.36.395,CDT_GNG_IUS12,2020.1.2,Win32,60,,,,,,,,,,,,,,,,,,0,1,,space,1,0.12413,,,,,,,,,,,0,39,39,28,1,,,,,,,,,,,,,,,,,,,,
,,,,,,,,,,,,,,,,,,,,,,,,,,,,,,,,,,,,,,,,,,,,7497,35,2020-08-21_21h31.36.395,CDT_GNG_IUS12,2020.1.2,Win32,60,,,,,,,,,,,,,,,,,,1,0,,,1,,,,,,,,,,,,0,40,40,0,1,,,,,,,,,,,,,,,,,,,,
,,,,,,,,,,,,,,,,,,,,,,,,,,,,,,,,,,,,,,,,,,,space,7497,35,2020-08-21_21h31.36.395,CDT_GNG_IUS12,2020.1.2,Win32,60,,,,,,,,,,,,,,,,,,0,1,,space,1,0.32262,,,,,,,,,,,0,41,41,40,1,,,,,,,,,,,,,,,,,,,,
,,,,,,,,,,,,,,,,,,,,,,,,,,,,,,,,,,,,,,,,,,,space,7497,35,2020-08-21_21h31.36.395,CDT_GNG_IUS12,2020.1.2,Win32,60,,,,,,,,,,,,,,,,,,0,1,,space,1,0.30164,,,,,,,,,,,0,42,42,37,1,,,,,,,,,,,,,,,,,,,,
,,,,,,,,,,,,,,,,,,,,,,,,,,,,,,,,,,,,,,,,,,,space,7497,35,2020-08-21_21h31.36.395,CDT_GNG_IUS12,2020.1.2,Win32,60,,,,,,,,,,,,,,,,,,0,1,,space,1,0.417605,,,,,,,,,,,0,43,43,21,1,,,,,,,,,,,,,,,,,,,,
,,,,,,,,,,,,,,,,,,,,,,,,,,,,,,,,,,,,,,,,,,,space,7497,35,2020-08-21_21h31.36.395,CDT_GNG_IUS12,2020.1.2,Win32,60,,,,,,,,,,,,,,,,,,0,1,,,0,,,,,,,,,,,,0,44,44,32,1,,,,,,,,,,,,,,,,,,,,
,,,,,,,,,,,,,,,,,,,,,,,,,,,,,,,,,,,,,,,,,,,space,7497,35,2020-08-21_21h31.36.395,CDT_GNG_IUS12,2020.1.2,Win32,60,,,,,,,,,,,,,,,,,,0,1,,,0,,,,,,,,,,,,0,45,45,42,1,,,,,,,,,,,,,,,,,,,,
,,,,,,,,,,,,,,,,,,,,,,,,,,,,,,,,,,,,,,,,,,,space,7497,35,2020-08-21_21h31.36.395,CDT_GNG_IUS12,2020.1.2,Win32,60,,,,,,,,,,,,,,,,,,0,1,,space,1,0.21203,,,,,,,,,,,0,46,46,11,1,,,,,,,,,,,,,,,,,,,,
,,,,,,,,,,,,,,,,,,,,,,,,,,,,,,,,,,,,,,,,,,,,7497,35,2020-08-21_21h31.36.395,CDT_GNG_IUS12,2020.1.2,Win32,60,,,,,,,,,,,,,,,,,,1,0,,space,0,0.20674,,,,,,,,,,,0,47,47,3,1,,,,,,,,,,,,,,,,,,,,
,,,,,,,,,,,,,,,,,,,,,,,,,,,,,,,,,,,,,,,,,,,space,7497,35,2020-08-21_21h31.36.395,CDT_GNG_IUS12,2020.1.2,Win32,60,,,,,,,,,,,,,,,,,,0,1,,,0,,,,,,,,,,,,0,48,48,44,1,,,,,,,,,,,,,,,,,,,,
,,,,,,,,,,,,,,,,,,,,,,,,,,,,,,,,,,,,,,,,,,,space,7497,35,2020-08-21_21h31.36.395,CDT_GNG_IUS12,2020.1.2,Win32,60,,,,,,,,,,,,,,,,,,0,1,,space,1,0.369185,,,,,,,,,,,0,49,49,36,1,,,,,,,,,,,,,,,,,,,,
,,,,,,,,,,,,,,,,,,,,,,,,,,,,,,,,,,,,,,,,,,,,7497,35,2020-08-21_21h31.36.395,CDT_GNG_IUS12,2020.1.2,Win32,60,,,,,,,,,,,,,,,,,,,,,,,,,,,,,,,,,,,,,,,7.981481764,6.003145,0,0,0,0,1,1,"On a scale from 0 to 10, indicate your personal perception of your proficiency level for English (10 being the highest score)",,,,,,,,,,,
,,,,,,,,,,,,,,,,,,,,,,,,,,,,,,,,,,,,,,,,,,,,7497,35,2020-08-21_21h31.36.395,CDT_GNG_IUS12,2020.1.2,Win32,60,,,,,,,,,,,,,,,,,,,,,,,,,,,,,,,,,,,,,,,7.972222222,4.35538,0,1,1,1,1,2,"On a scale from 0 to 10, indicate how frequently you are exposed to English (10 being 'always', 0 being 'never')",,,,,,,,,,,
,,,,,,,,,,,,,,,,,,,,,,,,,,,,,,,,,,,,,,,,,,,,7497,35,2020-08-21_21h31.36.395,CDT_GNG_IUS12,2020.1.2,Win32,60,,,,,,,,,,,,,,,,,,,,,,,,,,,,,,,,,,,,,,,,,,,,,,,"On a scale from 0 to 10, indicate your personal perception of your proficiency level for English (10 being the highest score)",1,8.678905,0,0,0,0,1,1,Unforeseen events upset me greatly.,,
,,,,,,,,,,,,,,,,,,,,,,,,,,,,,,,,,,,,,,,,,,,,7497,35,2020-08-21_21h31.36.395,CDT_GNG_IUS12,2020.1.2,Win32,60,,,,,,,,,,,,,,,,,,,,,,,,,,,,,,,,,,,,,,,,,,,,,,,"On a scale from 0 to 10, indicate how frequently you are exposed to English (10 being 'always', 0 being 'never')",5,9.73772,0,1,1,1,1,2,It frustrates me not having all the information I need.,,
,,,,,,,,,,,,,,,,,,,,,,,,,,,,,,,,,,,,,,,,,,,,7497,35,2020-08-21_21h31.36.395,CDT_GNG_IUS12,2020.1.2,Win32,60,,,,,,,,,,,,,,,,,,,,,,,,,,,,,,,,,,,,,,,,,,,,,,,,3.040740967,4.465375,0,2,2,2,1,3,One should always look ahead so as to avoid surprises.,,
,,,,,,,,,,,,,,,,,,,,,,,,,,,,,,,,,,,,,,,,,,,,7497,35,2020-08-21_21h31.36.395,CDT_GNG_IUS12,2020.1.2,Win32,60,,,,,,,,,,,,,,,,,,,,,,,,,,,,,,,,,,,,,,,,,,,,,,,,2.044444444,5.397675,0,3,3,3,1,4,"A small, unforeseen event can spoil everything, even with the best of planning. ",,
,,,,,,,,,,,,,,,,,,,,,,,,,,,,,,,,,,,,,,,,,,,,7497,35,2020-08-21_21h31.36.395,CDT_GNG_IUS12,2020.1.2,Win32,60,,,,,,,,,,,,,,,,,,,,,,,,,,,,,,,,,,,,,,,,,,,,,,,,1.955555556,7.408895,0,4,4,4,1,5,I always want to know what the future has in store for me.,,
,,,,,,,,,,,,,,,,,,,,,,,,,,,,,,,,,,,,,,,,,,,,7497,35,2020-08-21_21h31.36.395,CDT_GNG_IUS12,2020.1.2,Win32,60,,,,,,,,,,,,,,,,,,,,,,,,,,,,,,,,,,,,,,,,,,,,,,,,1.077777778,3.608545,0,5,5,5,1,6,I can't stand being taken by surprise.,,
,,,,,,,,,,,,,,,,,,,,,,,,,,,,,,,,,,,,,,,,,,,,7497,35,2020-08-21_21h31.36.395,CDT_GNG_IUS12,2020.1.2,Win32,60,,,,,,,,,,,,,,,,,,,,,,,,,,,,,,,,,,,,,,,,,,,,,,,,2.970370483,6.802655,0,6,6,6,1,7,I should be able to organize everything in advance,,
,,,,,,,,,,,,,,,,,,,,,,,,,,,,,,,,,,,,,,,,,,,,7497,35,2020-08-21_21h31.36.395,CDT_GNG_IUS12,2020.1.2,Win32,60,,,,,,,,,,,,,,,,,,,,,,,,,,,,,,,,,,,,,,,,,,,,,,,,1,8.161025,0,7,7,7,1,8,Uncertainty keeps me from living a full life.,,
,,,,,,,,,,,,,,,,,,,,,,,,,,,,,,,,,,,,,,,,,,,,7497,35,2020-08-21_21h31.36.395,CDT_GNG_IUS12,2020.1.2,Win32,60,,,,,,,,,,,,,,,,,,,,,,,,,,,,,,,,,,,,,,,,,,,,,,,,1,3.827475,0,8,8,8,1,9,"When it's time to act, uncertainty paralyses me. ",,
,,,,,,,,,,,,,,,,,,,,,,,,,,,,,,,,,,,,,,,,,,,,7497,35,2020-08-21_21h31.36.395,CDT_GNG_IUS12,2020.1.2,Win32,60,,,,,,,,,,,,,,,,,,,,,,,,,,,,,,,,,,,,,,,,,,,,,,,,1.988888889,4.014785,0,9,9,9,1,10,"When I am uncertain, I can't function very well. ",,
,,,,,,,,,,,,,,,,,,,,,,,,,,,,,,,,,,,,,,,,,,,,7497,35,2020-08-21_21h31.36.395,CDT_GNG_IUS12,2020.1.2,Win32,60,,,,,,,,,,,,,,,,,,,,,,,,,,,,,,,,,,,,,,,,,,,,,,,,1.988888889,4.259225,0,10,10,10,1,11,The smallest doubt can stop me from acting. ,,
,,,,,,,,,,,,,,,,,,,,,,,,,,,,,,,,,,,,,,,,,,,,7497,35,2020-08-21_21h31.36.395,CDT_GNG_IUS12,2020.1.2,Win32,60,,,,,,,,,,,,,,,,,,,,,,,,,,,,,,,,,,,,,,,,,,,,,,,,1.022222222,4.359675,0,11,11,11,1,12,I must get away from all uncertain situations. ,,
,,,,,,,,,,,,,,,,,,,,,,,,,,,,,,,,,,,,,,,,,,,,7497,35,2020-08-21_21h31.36.395,CDT_GNG_IUS12,2020.1.2,Win32,60,,,,,,,,,,,,,,,,,,,,,,,,,,,,,,,,,,,,,,,,,,,,,,,,,,,,,,,,,x,44.98614
