key_resp_6.keys,key_resp_6.rt,Gender.keys,Gender.rt,key_resp_2.keys,key_resp_2.corr,key_resp_2.rt,CDT_trials_train.thisRepN,CDT_trials_train.thisTrialN,CDT_trials_train.thisN,CDT_trials_train.thisIndex,CDT_trials_train.ran,trialnum,condit,stimamt,stim1posx,stim1posy,stim1col,stim1opa,stim2posx,stim2posy,stim2col,stim2opa,stim3posx,stim3posy,stim3col,stim3opa,stim4posx,stim4posy,stim4col,stim4opa,stim5posx,stim5posy,stim5col,stim5opa,stim6posx,stim6posy,stim6col,stim6opa,stim7posx,stim7posy,stim7col,stim7opa,stim8posx,stim8posy,stim8col,stim8opa,stimsizex,stimsizey,stimdur,targetposx,targetposy,targetcol,corrAns,participant,age,date,expName,psychopyVersion,OS,frameRate,key_resp.keys,key_resp.corr,key_resp.rt,CDT_trials.thisRepN,CDT_trials.thisTrialN,CDT_trials.thisN,CDT_trials.thisIndex,CDT_trials.ran,trialResp_Train.keys,trialResp_Train.corr,GNGtrials_train.thisRepN,GNGtrials_train.thisTrialN,GNGtrials_train.thisN,GNGtrials_train.thisIndex,GNGtrials_train.ran,orangeOpacity,blueOpacity,trialResp_Train.rt,trialResp.keys,trialResp.corr,trialResp.rt,GNG_trials_1.thisRepN,GNG_trials_1.thisTrialN,GNG_trials_1.thisN,GNG_trials_1.thisIndex,GNG_trials_1.ran,GNG_trials_2.thisRepN,GNG_trials_2.thisTrialN,GNG_trials_2.thisN,GNG_trials_2.thisIndex,GNG_trials_2.ran,GNG_trials_3.thisRepN,GNG_trials_3.thisTrialN,GNG_trials_3.thisN,GNG_trials_3.thisIndex,GNG_trials_3.ran,slider_2.response,slider_2.rt,engprof_trials.thisRepN,engprof_trials.thisTrialN,engprof_trials.thisN,engprof_trials.thisIndex,engprof_trials.ran,qpnumber,qproficiency,slider.response,slider.rt,IUS12_trials.thisRepN,IUS12_trials.thisTrialN,IUS12_trials.thisN,IUS12_trials.thisIndex,IUS12_trials.ran,qnumber,qenglish,key_resp_end.keys,key_resp_end.rt
y,5.346525,m,5.638255,l,0,2.21643,0,0,0,0,1,1,same,4,0.14,0.14,orange,1,0.14,-0.41,blue,1,-0.14,-0.27,cyan,1,-0.41,0.14,red,1,0.14,0.41,black,0,0.27,-0.27,green,0,-0.41,-0.27,magenta,0,-0.41,0.41,yellow,0,0.05,0.05,0.15,0.14,-0.41,blue,k,860322,23,2020-08-05_09h46.16.589,CDT_GNG_IUS12,2020.1.2,Win32,60,,,,,,,,,,,,,,,,,,,,,,,,,,,,,,,,,,,,,,,,,,,,,,,,,,,,,,,,
,,,,l,1,1.34873,0,1,1,1,1,2,different,4,0.14,0.41,black,1,0.14,-0.41,green,1,-0.41,-0.27,orange,1,-0.27,0.41,magenta,1,0.14,0.27,red,0,0.41,-0.27,cyan,0,-0.27,-0.41,yellow,0,-0.27,0.27,blue,0,0.05,0.05,0.15,-0.27,0.41,red,l,860322,23,2020-08-05_09h46.16.589,CDT_GNG_IUS12,2020.1.2,Win32,60,,,,,,,,,,,,,,,,,,,,,,,,,,,,,,,,,,,,,,,,,,,,,,,,,,,,,,,,
,,,,k,1,1.116385,0,2,2,2,1,3,same,8,0.27,0.41,yellow,1,0.14,-0.41,cyan,1,-0.14,-0.27,blue,1,-0.14,0.27,green,1,0.14,0.14,red,1,0.27,-0.27,black,1,-0.27,-0.27,magenta,1,-0.27,0.14,orange,1,0.05,0.05,0.15,-0.14,0.27,green,k,860322,23,2020-08-05_09h46.16.589,CDT_GNG_IUS12,2020.1.2,Win32,60,,,,,,,,,,,,,,,,,,,,,,,,,,,,,,,,,,,,,,,,,,,,,,,,,,,,,,,,
,,,,l,1,1.24836,0,3,3,3,1,4,different,8,0.14,0.41,green,1,0.27,-0.14,red,1,-0.27,-0.14,black,1,-0.14,0.41,orange,1,0.41,0.27,blue,1,0.41,-0.27,magenta,1,-0.14,-0.14,cyan,1,-0.27,0.14,yellow,1,0.05,0.05,0.15,0.27,-0.14,cyan,l,860322,23,2020-08-05_09h46.16.589,CDT_GNG_IUS12,2020.1.2,Win32,60,,,,,,,,,,,,,,,,,,,,,,,,,,,,,,,,,,,,,,,,,,,,,,,,,,,,,,,,
,,,,,,,,,,,,55,different,4,0.14,0.14,black,1,0.41,-0.14,cyan,1,-0.27,-0.27,magenta,1,-0.14,0.41,blue,1,0.27,0.14,yellow,0,0.14,-0.27,red,0,-0.27,-0.41,orange,0,-0.27,0.41,green,0,0.05,0.05,0.15,0.14,0.14,yellow,l,860322,23,2020-08-05_09h46.16.589,CDT_GNG_IUS12,2020.1.2,Win32,60,l,1,1.064325,0,0,0,54,1,,,,,,,,,,,,,,,,,,,,,,,,,,,,,,,,,,,,,,,,,,,,,,,,
,,,,,,,,,,,,101,different,8,0.14,0.27,magenta,1,0.14,-0.27,cyan,1,-0.41,-0.14,yellow,1,-0.41,0.14,black,1,0.14,0.41,red,1,0.41,-0.41,blue,1,-0.14,-0.41,green,1,-0.27,0.27,orange,1,0.05,0.05,0.15,-0.41,0.14,magenta,l,860322,23,2020-08-05_09h46.16.589,CDT_GNG_IUS12,2020.1.2,Win32,60,l,1,1.27651,0,1,1,100,1,,,,,,,,,,,,,,,,,,,,,,,,,,,,,,,,,,,,,,,,,,,,,,,,
,,,,,,,,,,,,78,same,8,0.41,0.14,green,1,0.14,-0.27,magenta,1,-0.41,-0.27,blue,1,-0.41,0.41,black,1,0.41,0.27,cyan,1,0.41,-0.14,orange,1,-0.14,-0.41,yellow,1,-0.14,0.41,red,1,0.05,0.05,0.15,-0.41,-0.27,blue,k,860322,23,2020-08-05_09h46.16.589,CDT_GNG_IUS12,2020.1.2,Win32,60,k,1,0.727965,0,2,2,77,1,,,,,,,,,,,,,,,,,,,,,,,,,,,,,,,,,,,,,,,,,,,,,,,,
,,,,,,,,,,,,105,different,8,0.41,0.27,cyan,1,0.14,-0.14,magenta,1,-0.27,-0.14,blue,1,-0.41,0.41,yellow,1,0.41,0.41,red,1,0.14,-0.41,green,1,-0.27,-0.27,orange,1,-0.27,0.41,black,1,0.05,0.05,0.15,0.41,0.27,orange,l,860322,23,2020-08-05_09h46.16.589,CDT_GNG_IUS12,2020.1.2,Win32,60,l,1,1.79471,0,3,3,104,1,,,,,,,,,,,,,,,,,,,,,,,,,,,,,,,,,,,,,,,,,,,,,,,,
,,,,,,,,,,,,76,same,8,0.14,0.27,orange,1,0.41,-0.14,cyan,1,-0.27,-0.27,blue,1,-0.14,0.14,black,1,0.27,0.41,green,1,0.27,-0.14,red,1,-0.27,-0.14,yellow,1,-0.27,0.27,magenta,1,0.05,0.05,0.15,0.41,-0.14,cyan,k,860322,23,2020-08-05_09h46.16.589,CDT_GNG_IUS12,2020.1.2,Win32,60,k,1,2.255715,0,4,4,75,1,,,,,,,,,,,,,,,,,,,,,,,,,,,,,,,,,,,,,,,,,,,,,,,,
,,,,,,,,,,,,62,same,8,0.41,0.14,red,1,0.14,-0.27,cyan,1,-0.41,-0.27,orange,1,-0.27,0.27,magenta,1,0.14,0.27,green,1,0.14,-0.14,blue,1,-0.27,-0.41,black,1,-0.41,0.14,yellow,1,0.05,0.05,0.15,-0.27,0.27,magenta,k,860322,23,2020-08-05_09h46.16.589,CDT_GNG_IUS12,2020.1.2,Win32,60,k,1,0.91389,0,5,5,61,1,,,,,,,,,,,,,,,,,,,,,,,,,,,,,,,,,,,,,,,,,,,,,,,,
,,,,,,,,,,,,77,same,8,0.41,0.41,black,1,0.14,-0.14,cyan,1,-0.27,-0.41,yellow,1,-0.14,0.27,orange,1,0.41,0.14,blue,1,0.41,-0.14,magenta,1,-0.14,-0.27,green,1,-0.27,0.14,red,1,0.05,0.05,0.15,0.41,-0.14,magenta,k,860322,23,2020-08-05_09h46.16.589,CDT_GNG_IUS12,2020.1.2,Win32,60,k,1,1.17849,0,6,6,76,1,,,,,,,,,,,,,,,,,,,,,,,,,,,,,,,,,,,,,,,,,,,,,,,,
,,,,,,,,,,,,52,different,4,0.27,0.41,cyan,1,0.14,-0.14,orange,1,-0.41,-0.14,black,1,-0.27,0.41,blue,1,0.14,0.27,magenta,0,0.27,-0.14,green,0,-0.27,-0.14,red,0,-0.14,0.41,yellow,0,0.05,0.05,0.15,0.14,-0.14,green,l,860322,23,2020-08-05_09h46.16.589,CDT_GNG_IUS12,2020.1.2,Win32,60,l,1,0.912225,0,7,7,51,1,,,,,,,,,,,,,,,,,,,,,,,,,,,,,,,,,,,,,,,,,,,,,,,,
,,,,,,,,,,,,96,different,8,0.14,0.14,yellow,1,0.14,-0.41,black,1,-0.27,-0.27,orange,1,-0.14,0.41,blue,1,0.14,0.27,magenta,1,0.41,-0.27,cyan,1,-0.41,-0.41,red,1,-0.41,0.41,green,1,0.05,0.05,0.15,0.41,-0.27,magenta,l,860322,23,2020-08-05_09h46.16.589,CDT_GNG_IUS12,2020.1.2,Win32,60,l,1,0.86927,0,8,8,95,1,,,,,,,,,,,,,,,,,,,,,,,,,,,,,,,,,,,,,,,,,,,,,,,,
,,,,,,,,,,,,34,different,4,0.14,0.14,cyan,1,0.14,-0.14,magenta,1,-0.41,-0.41,black,1,-0.41,0.14,yellow,1,0.27,0.27,orange,0,0.14,-0.41,green,0,-0.41,-0.14,red,0,-0.14,0.14,blue,0,0.05,0.05,0.15,0.14,-0.14,cyan,l,860322,23,2020-08-05_09h46.16.589,CDT_GNG_IUS12,2020.1.2,Win32,60,l,1,0.941585,0,9,9,33,1,,,,,,,,,,,,,,,,,,,,,,,,,,,,,,,,,,,,,,,,,,,,,,,,
,,,,,,,,,,,,75,same,8,0.41,0.27,blue,1,0.41,-0.41,black,1,-0.41,-0.41,red,1,-0.27,0.14,magenta,1,0.27,0.14,yellow,1,0.27,-0.27,cyan,1,-0.14,-0.27,green,1,-0.41,0.27,orange,1,0.05,0.05,0.15,-0.14,-0.27,green,k,860322,23,2020-08-05_09h46.16.589,CDT_GNG_IUS12,2020.1.2,Win32,60,l,0,1.003345,0,10,10,74,1,,,,,,,,,,,,,,,,,,,,,,,,,,,,,,,,,,,,,,,,,,,,,,,,
,,,,,,,,,,,,47,different,4,0.27,0.27,magenta,1,0.41,-0.27,black,1,-0.14,-0.41,red,1,-0.14,0.41,green,1,0.41,0.41,cyan,0,0.27,-0.14,orange,0,-0.27,-0.14,blue,0,-0.27,0.14,yellow,0,0.05,0.05,0.15,0.27,0.27,blue,l,860322,23,2020-08-05_09h46.16.589,CDT_GNG_IUS12,2020.1.2,Win32,60,l,1,0.74823,0,11,11,46,1,,,,,,,,,,,,,,,,,,,,,,,,,,,,,,,,,,,,,,,,,,,,,,,,
,,,,,,,,,,,,36,different,4,0.41,0.27,magenta,1,0.27,-0.14,orange,1,-0.41,-0.41,yellow,1,-0.14,0.14,blue,1,0.14,0.41,green,0,0.27,-0.27,black,0,-0.41,-0.27,cyan,0,-0.41,0.41,red,0,0.05,0.05,0.15,0.27,-0.14,black,l,860322,23,2020-08-05_09h46.16.589,CDT_GNG_IUS12,2020.1.2,Win32,60,l,1,0.82944,0,12,12,35,1,,,,,,,,,,,,,,,,,,,,,,,,,,,,,,,,,,,,,,,,,,,,,,,,
,,,,,,,,,,,,70,same,8,0.41,0.41,black,1,0.14,-0.27,red,1,-0.41,-0.41,magenta,1,-0.27,0.41,green,1,0.27,0.14,yellow,1,0.41,-0.41,orange,1,-0.27,-0.14,blue,1,-0.27,0.27,cyan,1,0.05,0.05,0.15,0.14,-0.27,red,k,860322,23,2020-08-05_09h46.16.589,CDT_GNG_IUS12,2020.1.2,Win32,60,k,1,0.81059,0,13,13,69,1,,,,,,,,,,,,,,,,,,,,,,,,,,,,,,,,,,,,,,,,,,,,,,,,
,,,,,,,,,,,,103,different,8,0.14,0.14,black,1,0.14,-0.27,cyan,1,-0.41,-0.41,green,1,-0.41,0.27,red,1,0.27,0.41,orange,1,0.27,-0.27,blue,1,-0.41,-0.14,magenta,1,-0.41,0.41,yellow,1,0.05,0.05,0.15,0.27,-0.27,magenta,l,860322,23,2020-08-05_09h46.16.589,CDT_GNG_IUS12,2020.1.2,Win32,60,l,1,1.15058,0,14,14,102,1,,,,,,,,,,,,,,,,,,,,,,,,,,,,,,,,,,,,,,,,,,,,,,,,
,,,,,,,,,,,,63,same,8,0.27,0.27,magenta,1,0.27,-0.27,yellow,1,-0.27,-0.14,orange,1,-0.14,0.14,green,1,0.41,0.27,blue,1,0.41,-0.27,cyan,1,-0.41,-0.41,red,1,-0.41,0.27,black,1,0.05,0.05,0.15,0.27,0.27,magenta,k,860322,23,2020-08-05_09h46.16.589,CDT_GNG_IUS12,2020.1.2,Win32,60,k,1,0.88312,0,15,15,62,1,,,,,,,,,,,,,,,,,,,,,,,,,,,,,,,,,,,,,,,,,,,,,,,,
,,,,,,,,,,,,46,different,4,0.14,0.14,red,1,0.14,-0.14,green,1,-0.14,-0.41,orange,1,-0.27,0.41,blue,1,0.41,0.27,cyan,0,0.14,-0.27,magenta,0,-0.14,-0.14,black,0,-0.41,0.27,yellow,0,0.05,0.05,0.15,-0.14,-0.41,blue,l,860322,23,2020-08-05_09h46.16.589,CDT_GNG_IUS12,2020.1.2,Win32,60,l,1,0.80013,0,16,16,45,1,,,,,,,,,,,,,,,,,,,,,,,,,,,,,,,,,,,,,,,,,,,,,,,,
,,,,,,,,,,,,17,same,4,0.41,0.27,cyan,1,0.41,-0.41,black,1,-0.14,-0.27,magenta,1,-0.14,0.41,green,1,0.14,0.14,orange,0,0.14,-0.41,yellow,0,-0.14,-0.41,red,0,-0.27,0.14,blue,0,0.05,0.05,0.15,-0.14,0.41,green,k,860322,23,2020-08-05_09h46.16.589,CDT_GNG_IUS12,2020.1.2,Win32,60,k,1,0.89449,0,17,17,16,1,,,,,,,,,,,,,,,,,,,,,,,,,,,,,,,,,,,,,,,,,,,,,,,,
,,,,,,,,,,,,117,different,8,0.14,0.41,black,1,0.14,-0.41,cyan,1,-0.41,-0.27,magenta,1,-0.27,0.41,yellow,1,0.41,0.27,orange,1,0.41,-0.14,red,1,-0.27,-0.27,green,1,-0.14,0.14,blue,1,0.05,0.05,0.15,0.41,-0.14,black,l,860322,23,2020-08-05_09h46.16.589,CDT_GNG_IUS12,2020.1.2,Win32,60,l,1,0.786655,0,18,18,116,1,,,,,,,,,,,,,,,,,,,,,,,,,,,,,,,,,,,,,,,,,,,,,,,,
,,,,,,,,,,,,91,different,8,0.27,0.27,red,1,0.41,-0.14,orange,1,-0.14,-0.27,green,1,-0.27,0.27,yellow,1,0.14,0.27,cyan,1,0.14,-0.14,black,1,-0.41,-0.41,blue,1,-0.14,0.41,magenta,1,0.05,0.05,0.15,-0.14,0.41,yellow,l,860322,23,2020-08-05_09h46.16.589,CDT_GNG_IUS12,2020.1.2,Win32,60,l,1,3.172615,0,19,19,90,1,,,,,,,,,,,,,,,,,,,,,,,,,,,,,,,,,,,,,,,,,,,,,,,,
,,,,,,,,,,,,85,same,8,0.14,0.41,green,1,0.14,-0.41,magenta,1,-0.41,-0.14,black,1,-0.14,0.27,blue,1,0.27,0.27,orange,1,0.41,-0.41,red,1,-0.27,-0.14,cyan,1,-0.41,0.27,yellow,1,0.05,0.05,0.15,0.27,0.27,orange,k,860322,23,2020-08-05_09h46.16.589,CDT_GNG_IUS12,2020.1.2,Win32,60,l,0,1.622685,0,20,20,84,1,,,,,,,,,,,,,,,,,,,,,,,,,,,,,,,,,,,,,,,,,,,,,,,,
,,,,,,,,,,,,14,same,4,0.27,0.41,cyan,1,0.27,-0.41,black,1,-0.27,-0.27,yellow,1,-0.27,0.27,green,1,0.41,0.41,blue,0,0.14,-0.27,red,0,-0.14,-0.14,orange,0,-0.41,0.41,magenta,0,0.05,0.05,0.15,0.27,-0.41,black,k,860322,23,2020-08-05_09h46.16.589,CDT_GNG_IUS12,2020.1.2,Win32,60,k,1,0.83449,0,21,21,13,1,,,,,,,,,,,,,,,,,,,,,,,,,,,,,,,,,,,,,,,,,,,,,,,,
,,,,,,,,,,,,24,same,4,0.41,0.27,green,1,0.14,-0.27,black,1,-0.27,-0.27,yellow,1,-0.14,0.14,orange,1,0.41,0.14,blue,0,0.14,-0.14,cyan,0,-0.41,-0.14,red,0,-0.27,0.41,magenta,0,0.05,0.05,0.15,-0.14,0.14,orange,k,860322,23,2020-08-05_09h46.16.589,CDT_GNG_IUS12,2020.1.2,Win32,60,k,1,0.706175,0,22,22,23,1,,,,,,,,,,,,,,,,,,,,,,,,,,,,,,,,,,,,,,,,,,,,,,,,
,,,,,,,,,,,,64,same,8,0.41,0.14,green,1,0.14,-0.41,cyan,1,-0.14,-0.14,yellow,1,-0.14,0.27,red,1,0.27,0.14,blue,1,0.27,-0.27,magenta,1,-0.14,-0.27,orange,1,-0.14,0.41,black,1,0.05,0.05,0.15,-0.14,0.27,red,k,860322,23,2020-08-05_09h46.16.589,CDT_GNG_IUS12,2020.1.2,Win32,60,k,1,0.706445,0,23,23,63,1,,,,,,,,,,,,,,,,,,,,,,,,,,,,,,,,,,,,,,,,,,,,,,,,
,,,,,,,,,,,,2,same,4,0.27,0.41,magenta,1,0.41,-0.14,red,1,-0.27,-0.14,orange,1,-0.27,0.14,blue,1,0.14,0.14,cyan,0,0.14,-0.14,green,0,-0.14,-0.14,black,0,-0.14,0.41,yellow,0,0.05,0.05,0.15,-0.27,-0.14,orange,k,860322,23,2020-08-05_09h46.16.589,CDT_GNG_IUS12,2020.1.2,Win32,60,k,1,2.723295,0,24,24,1,1,,,,,,,,,,,,,,,,,,,,,,,,,,,,,,,,,,,,,,,,,,,,,,,,
,,,,,,,,,,,,112,different,8,0.27,0.41,magenta,1,0.14,-0.41,green,1,-0.14,-0.14,black,1,-0.27,0.27,cyan,1,0.41,0.41,red,1,0.14,-0.27,blue,1,-0.41,-0.14,orange,1,-0.14,0.14,yellow,1,0.05,0.05,0.15,0.41,0.41,blue,l,860322,23,2020-08-05_09h46.16.589,CDT_GNG_IUS12,2020.1.2,Win32,60,l,1,2.85816,0,25,25,111,1,,,,,,,,,,,,,,,,,,,,,,,,,,,,,,,,,,,,,,,,,,,,,,,,
,,,,,,,,,,,,16,same,4,0.27,0.27,magenta,1,0.14,-0.14,orange,1,-0.14,-0.41,blue,1,-0.27,0.14,red,1,0.14,0.14,black,0,0.14,-0.27,green,0,-0.27,-0.27,yellow,0,-0.27,0.27,cyan,0,0.05,0.05,0.15,-0.27,0.14,red,k,860322,23,2020-08-05_09h46.16.589,CDT_GNG_IUS12,2020.1.2,Win32,60,k,1,0.63865,0,26,26,15,1,,,,,,,,,,,,,,,,,,,,,,,,,,,,,,,,,,,,,,,,,,,,,,,,
,,,,,,,,,,,,104,different,8,0.41,0.41,cyan,1,0.41,-0.41,blue,1,-0.27,-0.14,green,1,-0.27,0.14,orange,1,0.14,0.41,red,1,0.27,-0.27,yellow,1,-0.41,-0.27,magenta,1,-0.14,0.41,black,1,0.05,0.05,0.15,-0.14,0.41,magenta,l,860322,23,2020-08-05_09h46.16.589,CDT_GNG_IUS12,2020.1.2,Win32,60,l,1,1.08626,0,27,27,103,1,,,,,,,,,,,,,,,,,,,,,,,,,,,,,,,,,,,,,,,,,,,,,,,,
,,,,,,,,,,,,18,same,4,0.41,0.27,orange,1,0.14,-0.27,blue,1,-0.27,-0.41,yellow,1,-0.41,0.27,magenta,1,0.14,0.41,red,0,0.14,-0.14,black,0,-0.41,-0.27,green,0,-0.41,0.41,cyan,0,0.05,0.05,0.15,0.14,-0.27,blue,k,860322,23,2020-08-05_09h46.16.589,CDT_GNG_IUS12,2020.1.2,Win32,60,k,1,0.67664,0,28,28,17,1,,,,,,,,,,,,,,,,,,,,,,,,,,,,,,,,,,,,,,,,,,,,,,,,
,,,,,,,,,,,,81,same,8,0.27,0.14,yellow,1,0.41,-0.14,blue,1,-0.41,-0.14,green,1,-0.41,0.14,orange,1,0.14,0.41,red,1,0.14,-0.27,magenta,1,-0.14,-0.27,cyan,1,-0.14,0.14,black,1,0.05,0.05,0.15,-0.41,0.14,orange,k,860322,23,2020-08-05_09h46.16.589,CDT_GNG_IUS12,2020.1.2,Win32,60,k,1,0.890265,0,29,29,80,1,,,,,,,,,,,,,,,,,,,,,,,,,,,,,,,,,,,,,,,,,,,,,,,,
,,,,,,,,,,,,45,different,4,0.14,0.14,red,1,0.27,-0.27,black,1,-0.41,-0.27,cyan,1,-0.41,0.27,blue,1,0.27,0.27,magenta,0,0.14,-0.41,orange,0,-0.14,-0.14,green,0,-0.27,0.14,yellow,0,0.05,0.05,0.15,0.14,0.14,blue,l,860322,23,2020-08-05_09h46.16.589,CDT_GNG_IUS12,2020.1.2,Win32,60,l,1,0.78325,0,30,30,44,1,,,,,,,,,,,,,,,,,,,,,,,,,,,,,,,,,,,,,,,,,,,,,,,,
,,,,,,,,,,,,118,different,8,0.14,0.14,red,1,0.27,-0.27,yellow,1,-0.27,-0.14,orange,1,-0.41,0.41,magenta,1,0.27,0.27,cyan,1,0.14,-0.41,green,1,-0.27,-0.41,blue,1,-0.41,0.14,black,1,0.05,0.05,0.15,-0.27,-0.41,black,l,860322,23,2020-08-05_09h46.16.589,CDT_GNG_IUS12,2020.1.2,Win32,60,k,0,1.011875,0,31,31,117,1,,,,,,,,,,,,,,,,,,,,,,,,,,,,,,,,,,,,,,,,,,,,,,,,
,,,,,,,,,,,,88,same,8,0.27,0.41,red,1,0.41,-0.14,cyan,1,-0.14,-0.14,green,1,-0.41,0.41,orange,1,0.14,0.27,magenta,1,0.27,-0.27,yellow,1,-0.41,-0.41,black,1,-0.27,0.41,blue,1,0.05,0.05,0.15,-0.41,0.41,orange,k,860322,23,2020-08-05_09h46.16.589,CDT_GNG_IUS12,2020.1.2,Win32,60,l,0,3.503535,0,32,32,87,1,,,,,,,,,,,,,,,,,,,,,,,,,,,,,,,,,,,,,,,,,,,,,,,,
,,,,,,,,,,,,65,same,8,0.41,0.41,blue,1,0.27,-0.41,yellow,1,-0.27,-0.41,red,1,-0.41,0.27,cyan,1,0.14,0.27,black,1,0.27,-0.27,orange,1,-0.41,-0.41,magenta,1,-0.41,0.41,green,1,0.05,0.05,0.15,0.27,-0.27,orange,k,860322,23,2020-08-05_09h46.16.589,CDT_GNG_IUS12,2020.1.2,Win32,60,k,1,0.60421,0,33,33,64,1,,,,,,,,,,,,,,,,,,,,,,,,,,,,,,,,,,,,,,,,,,,,,,,,
,,,,,,,,,,,,83,same,8,0.14,0.27,yellow,1,0.27,-0.41,orange,1,-0.27,-0.41,green,1,-0.41,0.14,cyan,1,0.41,0.27,blue,1,0.14,-0.14,magenta,1,-0.14,-0.14,red,1,-0.41,0.41,black,1,0.05,0.05,0.15,-0.41,0.41,black,k,860322,23,2020-08-05_09h46.16.589,CDT_GNG_IUS12,2020.1.2,Win32,60,l,0,1.000825,0,34,34,82,1,,,,,,,,,,,,,,,,,,,,,,,,,,,,,,,,,,,,,,,,,,,,,,,,
,,,,,,,,,,,,86,same,8,0.41,0.27,magenta,1,0.14,-0.14,green,1,-0.14,-0.41,orange,1,-0.14,0.41,red,1,0.27,0.14,black,1,0.14,-0.41,cyan,1,-0.41,-0.27,yellow,1,-0.27,0.14,blue,1,0.05,0.05,0.15,0.14,-0.41,cyan,k,860322,23,2020-08-05_09h46.16.589,CDT_GNG_IUS12,2020.1.2,Win32,60,l,0,2.532,0,35,35,85,1,,,,,,,,,,,,,,,,,,,,,,,,,,,,,,,,,,,,,,,,,,,,,,,,
,,,,,,,,,,,,43,different,4,0.27,0.27,red,1,0.14,-0.27,orange,1,-0.41,-0.14,green,1,-0.27,0.27,cyan,1,0.41,0.41,black,0,0.27,-0.14,magenta,0,-0.41,-0.41,yellow,0,-0.41,0.41,blue,0,0.05,0.05,0.15,-0.41,-0.14,magenta,l,860322,23,2020-08-05_09h46.16.589,CDT_GNG_IUS12,2020.1.2,Win32,60,l,1,0.700685,0,36,36,42,1,,,,,,,,,,,,,,,,,,,,,,,,,,,,,,,,,,,,,,,,,,,,,,,,
,,,,,,,,,,,,9,same,4,0.27,0.27,red,1,0.14,-0.27,orange,1,-0.14,-0.41,yellow,1,-0.27,0.41,blue,1,0.41,0.41,green,0,0.41,-0.41,cyan,0,-0.27,-0.41,magenta,0,-0.27,0.27,black,0,0.05,0.05,0.15,0.27,0.27,red,k,860322,23,2020-08-05_09h46.16.589,CDT_GNG_IUS12,2020.1.2,Win32,60,k,1,0.604245,0,37,37,8,1,,,,,,,,,,,,,,,,,,,,,,,,,,,,,,,,,,,,,,,,,,,,,,,,
,,,,,,,,,,,,102,different,8,0.14,0.27,yellow,1,0.14,-0.41,green,1,-0.41,-0.27,red,1,-0.14,0.41,orange,1,0.41,0.41,magenta,1,0.27,-0.41,blue,1,-0.27,-0.41,cyan,1,-0.27,0.27,black,1,0.05,0.05,0.15,-0.27,0.27,yellow,l,860322,23,2020-08-05_09h46.16.589,CDT_GNG_IUS12,2020.1.2,Win32,60,k,0,1.070385,0,38,38,101,1,,,,,,,,,,,,,,,,,,,,,,,,,,,,,,,,,,,,,,,,,,,,,,,,
,,,,,,,,,,,,51,different,4,0.41,0.41,yellow,1,0.14,-0.27,red,1,-0.14,-0.27,cyan,1,-0.41,0.14,orange,1,0.14,0.41,green,0,0.27,-0.41,black,0,-0.27,-0.14,blue,0,-0.41,0.27,magenta,0,0.05,0.05,0.15,0.41,0.41,red,l,860322,23,2020-08-05_09h46.16.589,CDT_GNG_IUS12,2020.1.2,Win32,60,l,1,1.15874,0,39,39,50,1,,,,,,,,,,,,,,,,,,,,,,,,,,,,,,,,,,,,,,,,,,,,,,,,
,,,,,,,,,,,,54,different,4,0.14,0.14,yellow,1,0.41,-0.41,magenta,1,-0.14,-0.41,black,1,-0.14,0.27,orange,1,0.41,0.27,cyan,0,0.41,-0.27,red,0,-0.27,-0.14,green,0,-0.27,0.27,blue,0,0.05,0.05,0.15,0.41,-0.41,cyan,l,860322,23,2020-08-05_09h46.16.589,CDT_GNG_IUS12,2020.1.2,Win32,60,l,1,1.190825,0,40,40,53,1,,,,,,,,,,,,,,,,,,,,,,,,,,,,,,,,,,,,,,,,,,,,,,,,
,,,,,,,,,,,,4,same,4,0.41,0.27,magenta,1,0.27,-0.41,orange,1,-0.41,-0.41,red,1,-0.14,0.41,green,1,0.27,0.41,blue,0,0.14,-0.41,black,0,-0.27,-0.14,cyan,0,-0.41,0.27,yellow,0,0.05,0.05,0.15,0.27,-0.41,orange,k,860322,23,2020-08-05_09h46.16.589,CDT_GNG_IUS12,2020.1.2,Win32,60,k,1,0.95399,0,41,41,3,1,,,,,,,,,,,,,,,,,,,,,,,,,,,,,,,,,,,,,,,,,,,,,,,,
,,,,,,,,,,,,116,different,8,0.27,0.14,green,1,0.41,-0.14,black,1,-0.27,-0.41,magenta,1,-0.41,0.14,cyan,1,0.41,0.41,blue,1,0.41,-0.27,yellow,1,-0.41,-0.27,red,1,-0.27,0.14,orange,1,0.05,0.05,0.15,0.41,-0.27,magenta,l,860322,23,2020-08-05_09h46.16.589,CDT_GNG_IUS12,2020.1.2,Win32,60,l,1,0.96796,0,42,42,115,1,,,,,,,,,,,,,,,,,,,,,,,,,,,,,,,,,,,,,,,,,,,,,,,,
,,,,,,,,,,,,30,same,4,0.14,0.41,black,1,0.41,-0.27,yellow,1,-0.14,-0.27,green,1,-0.41,0.14,orange,1,0.41,0.27,blue,0,0.14,-0.41,magenta,0,-0.27,-0.27,cyan,0,-0.41,0.41,red,0,0.05,0.05,0.15,0.14,0.41,black,k,860322,23,2020-08-05_09h46.16.589,CDT_GNG_IUS12,2020.1.2,Win32,60,k,1,0.736435,0,43,43,29,1,,,,,,,,,,,,,,,,,,,,,,,,,,,,,,,,,,,,,,,,,,,,,,,,
,,,,,,,,,,,,21,same,4,0.41,0.27,magenta,1,0.27,-0.41,black,1,-0.27,-0.14,orange,1,-0.41,0.41,green,1,0.27,0.14,yellow,0,0.27,-0.14,cyan,0,-0.27,-0.27,red,0,-0.41,0.27,blue,0,0.05,0.05,0.15,0.27,-0.41,black,k,860322,23,2020-08-05_09h46.16.589,CDT_GNG_IUS12,2020.1.2,Win32,60,k,1,0.841735,0,44,44,20,1,,,,,,,,,,,,,,,,,,,,,,,,,,,,,,,,,,,,,,,,,,,,,,,,
,,,,,,,,,,,,73,same,8,0.14,0.14,blue,1,0.14,-0.41,yellow,1,-0.41,-0.41,red,1,-0.41,0.27,orange,1,0.27,0.41,magenta,1,0.14,-0.27,green,1,-0.41,-0.27,black,1,-0.27,0.27,cyan,1,0.05,0.05,0.15,0.27,0.41,magenta,k,860322,23,2020-08-05_09h46.16.589,CDT_GNG_IUS12,2020.1.2,Win32,60,k,1,1.16493,0,45,45,72,1,,,,,,,,,,,,,,,,,,,,,,,,,,,,,,,,,,,,,,,,,,,,,,,,
,,,,,,,,,,,,12,same,4,0.14,0.41,red,1,0.14,-0.41,green,1,-0.41,-0.41,black,1,-0.27,0.27,cyan,1,0.27,0.41,magenta,0,0.41,-0.14,orange,0,-0.27,-0.41,yellow,0,-0.41,0.27,blue,0,0.05,0.05,0.15,-0.41,-0.41,black,k,860322,23,2020-08-05_09h46.16.589,CDT_GNG_IUS12,2020.1.2,Win32,60,k,1,0.997395,0,46,46,11,1,,,,,,,,,,,,,,,,,,,,,,,,,,,,,,,,,,,,,,,,,,,,,,,,
,,,,,,,,,,,,119,different,8,0.27,0.27,green,1,0.27,-0.14,orange,1,-0.41,-0.41,cyan,1,-0.27,0.27,blue,1,0.41,0.27,black,1,0.14,-0.41,red,1,-0.14,-0.41,yellow,1,-0.41,0.27,magenta,1,0.05,0.05,0.15,-0.41,0.27,cyan,l,860322,23,2020-08-05_09h46.16.589,CDT_GNG_IUS12,2020.1.2,Win32,60,l,1,1.06505,0,47,47,118,1,,,,,,,,,,,,,,,,,,,,,,,,,,,,,,,,,,,,,,,,,,,,,,,,
,,,,,,,,,,,,92,different,8,0.27,0.27,yellow,1,0.14,-0.27,green,1,-0.41,-0.14,blue,1,-0.41,0.41,red,1,0.14,0.27,magenta,1,0.27,-0.14,cyan,1,-0.14,-0.14,orange,1,-0.27,0.27,black,1,0.05,0.05,0.15,-0.41,-0.14,magenta,l,860322,23,2020-08-05_09h46.16.589,CDT_GNG_IUS12,2020.1.2,Win32,60,l,1,0.8279,0,48,48,91,1,,,,,,,,,,,,,,,,,,,,,,,,,,,,,,,,,,,,,,,,,,,,,,,,
,,,,,,,,,,,,74,same,8,0.41,0.41,blue,1,0.14,-0.14,orange,1,-0.27,-0.41,cyan,1,-0.27,0.41,yellow,1,0.41,0.27,black,1,0.41,-0.41,red,1,-0.14,-0.27,magenta,1,-0.27,0.14,green,1,0.05,0.05,0.15,0.41,0.27,black,k,860322,23,2020-08-05_09h46.16.589,CDT_GNG_IUS12,2020.1.2,Win32,60,k,1,0.826315,0,49,49,73,1,,,,,,,,,,,,,,,,,,,,,,,,,,,,,,,,,,,,,,,,,,,,,,,,
,,,,,,,,,,,,57,different,4,0.14,0.41,black,1,0.14,-0.14,blue,1,-0.41,-0.14,red,1,-0.41,0.14,orange,1,0.41,0.41,magenta,0,0.41,-0.14,cyan,0,-0.14,-0.27,yellow,0,-0.27,0.41,green,0,0.05,0.05,0.15,-0.41,0.14,blue,l,860322,23,2020-08-05_09h46.16.589,CDT_GNG_IUS12,2020.1.2,Win32,60,l,1,1.0773,0,50,50,56,1,,,,,,,,,,,,,,,,,,,,,,,,,,,,,,,,,,,,,,,,,,,,,,,,
,,,,,,,,,,,,20,same,4,0.27,0.14,cyan,1,0.14,-0.14,orange,1,-0.27,-0.27,green,1,-0.41,0.27,yellow,1,0.14,0.41,black,0,0.41,-0.41,red,0,-0.27,-0.41,magenta,0,-0.27,0.27,blue,0,0.05,0.05,0.15,-0.27,-0.27,green,k,860322,23,2020-08-05_09h46.16.589,CDT_GNG_IUS12,2020.1.2,Win32,60,k,1,1.003275,0,51,51,19,1,,,,,,,,,,,,,,,,,,,,,,,,,,,,,,,,,,,,,,,,,,,,,,,,
,,,,,,,,,,,,107,different,8,0.27,0.41,green,1,0.27,-0.41,cyan,1,-0.41,-0.41,black,1,-0.14,0.41,blue,1,0.14,0.14,red,1,0.27,-0.27,yellow,1,-0.14,-0.41,magenta,1,-0.14,0.14,orange,1,0.05,0.05,0.15,-0.14,0.14,black,l,860322,23,2020-08-05_09h46.16.589,CDT_GNG_IUS12,2020.1.2,Win32,60,l,1,1.155855,0,52,52,106,1,,,,,,,,,,,,,,,,,,,,,,,,,,,,,,,,,,,,,,,,,,,,,,,,
,,,,,,,,,,,,27,same,4,0.27,0.27,yellow,1,0.27,-0.27,green,1,-0.27,-0.41,cyan,1,-0.14,0.41,black,1,0.14,0.41,blue,0,0.41,-0.14,red,0,-0.14,-0.14,orange,0,-0.27,0.41,magenta,0,0.05,0.05,0.15,0.27,-0.27,green,k,860322,23,2020-08-05_09h46.16.589,CDT_GNG_IUS12,2020.1.2,Win32,60,k,1,1.60198,0,53,53,26,1,,,,,,,,,,,,,,,,,,,,,,,,,,,,,,,,,,,,,,,,,,,,,,,,
,,,,,,,,,,,,66,same,8,0.27,0.27,magenta,1,0.14,-0.41,green,1,-0.27,-0.14,yellow,1,-0.14,0.27,orange,1,0.41,0.41,red,1,0.14,-0.14,cyan,1,-0.14,-0.27,black,1,-0.27,0.41,blue,1,0.05,0.05,0.15,0.41,0.41,red,k,860322,23,2020-08-05_09h46.16.589,CDT_GNG_IUS12,2020.1.2,Win32,60,k,1,1.7057,0,54,54,65,1,,,,,,,,,,,,,,,,,,,,,,,,,,,,,,,,,,,,,,,,,,,,,,,,
,,,,,,,,,,,,80,same,8,0.41,0.14,red,1,0.41,-0.14,blue,1,-0.41,-0.41,black,1,-0.41,0.14,green,1,0.14,0.41,orange,1,0.27,-0.41,cyan,1,-0.41,-0.14,magenta,1,-0.41,0.41,yellow,1,0.05,0.05,0.15,0.27,-0.41,cyan,k,860322,23,2020-08-05_09h46.16.589,CDT_GNG_IUS12,2020.1.2,Win32,60,k,1,0.959335,0,55,55,79,1,,,,,,,,,,,,,,,,,,,,,,,,,,,,,,,,,,,,,,,,,,,,,,,,
,,,,,,,,,,,,114,different,8,0.41,0.41,yellow,1,0.14,-0.41,red,1,-0.41,-0.41,blue,1,-0.27,0.14,cyan,1,0.41,0.27,black,1,0.27,-0.41,green,1,-0.14,-0.41,orange,1,-0.14,0.41,magenta,1,0.05,0.05,0.15,-0.14,0.41,orange,l,860322,23,2020-08-05_09h46.16.589,CDT_GNG_IUS12,2020.1.2,Win32,60,l,1,0.916695,0,56,56,113,1,,,,,,,,,,,,,,,,,,,,,,,,,,,,,,,,,,,,,,,,,,,,,,,,
,,,,,,,,,,,,32,different,4,0.41,0.27,orange,1,0.41,-0.41,green,1,-0.14,-0.14,cyan,1,-0.41,0.41,red,1,0.27,0.41,black,0,0.27,-0.41,magenta,0,-0.27,-0.14,blue,0,-0.14,0.14,yellow,0,0.05,0.05,0.15,-0.14,-0.14,blue,l,860322,23,2020-08-05_09h46.16.589,CDT_GNG_IUS12,2020.1.2,Win32,60,l,1,0.853355,0,57,57,31,1,,,,,,,,,,,,,,,,,,,,,,,,,,,,,,,,,,,,,,,,,,,,,,,,
,,,,,,,,,,,,58,different,4,0.14,0.41,blue,1,0.14,-0.14,black,1,-0.14,-0.14,yellow,1,-0.27,0.41,magenta,1,0.27,0.41,red,0,0.14,-0.27,cyan,0,-0.41,-0.27,orange,0,-0.27,0.27,green,0,0.05,0.05,0.15,0.14,0.41,yellow,l,860322,23,2020-08-05_09h46.16.589,CDT_GNG_IUS12,2020.1.2,Win32,60,l,1,1.166695,0,58,58,57,1,,,,,,,,,,,,,,,,,,,,,,,,,,,,,,,,,,,,,,,,,,,,,,,,
,,,,,,,,,,,,97,different,8,0.27,0.27,blue,1,0.14,-0.27,orange,1,-0.14,-0.14,black,1,-0.27,0.14,cyan,1,0.14,0.14,magenta,1,0.27,-0.41,yellow,1,-0.27,-0.41,green,1,-0.41,0.14,red,1,0.05,0.05,0.15,-0.27,0.14,black,l,860322,23,2020-08-05_09h46.16.589,CDT_GNG_IUS12,2020.1.2,Win32,60,l,1,1.07367,0,59,59,96,1,,,,,,,,,,,,,,,,,,,,,,,,,,,,,,,,,,,,,,,,,,,,,,,,
,,,,,,,,,,,,115,different,8,0.14,0.27,green,1,0.27,-0.41,orange,1,-0.14,-0.14,yellow,1,-0.27,0.41,magenta,1,0.27,0.14,blue,1,0.14,-0.27,red,1,-0.41,-0.14,cyan,1,-0.41,0.14,black,1,0.05,0.05,0.15,0.14,-0.27,cyan,l,860322,23,2020-08-05_09h46.16.589,CDT_GNG_IUS12,2020.1.2,Win32,60,l,1,0.87574,0,60,60,114,1,,,,,,,,,,,,,,,,,,,,,,,,,,,,,,,,,,,,,,,,,,,,,,,,
,,,,,,,,,,,,95,different,8,0.41,0.41,black,1,0.14,-0.14,cyan,1,-0.14,-0.41,orange,1,-0.14,0.27,blue,1,0.41,0.27,magenta,1,0.14,-0.41,green,1,-0.27,-0.27,red,1,-0.41,0.14,yellow,1,0.05,0.05,0.15,-0.14,0.27,green,l,860322,23,2020-08-05_09h46.16.589,CDT_GNG_IUS12,2020.1.2,Win32,60,l,1,1.416115,0,61,61,94,1,,,,,,,,,,,,,,,,,,,,,,,,,,,,,,,,,,,,,,,,,,,,,,,,
,,,,,,,,,,,,31,different,4,0.27,0.41,orange,1,0.14,-0.14,black,1,-0.41,-0.41,yellow,1,-0.41,0.27,cyan,1,0.27,0.14,green,0,0.41,-0.27,blue,0,-0.14,-0.41,red,0,-0.41,0.14,magenta,0,0.05,0.05,0.15,-0.41,0.27,yellow,l,860322,23,2020-08-05_09h46.16.589,CDT_GNG_IUS12,2020.1.2,Win32,60,l,1,1.273185,0,62,62,30,1,,,,,,,,,,,,,,,,,,,,,,,,,,,,,,,,,,,,,,,,,,,,,,,,
,,,,,,,,,,,,98,different,8,0.41,0.27,black,1,0.14,-0.27,yellow,1,-0.14,-0.27,cyan,1,-0.27,0.14,red,1,0.27,0.27,green,1,0.41,-0.41,magenta,1,-0.41,-0.14,blue,1,-0.41,0.41,orange,1,0.05,0.05,0.15,0.41,0.27,red,l,860322,23,2020-08-05_09h46.16.589,CDT_GNG_IUS12,2020.1.2,Win32,60,l,1,1.02728,0,63,63,97,1,,,,,,,,,,,,,,,,,,,,,,,,,,,,,,,,,,,,,,,,,,,,,,,,
,,,,,,,,,,,,37,different,4,0.41,0.41,yellow,1,0.27,-0.14,black,1,-0.14,-0.14,orange,1,-0.41,0.14,green,1,0.14,0.14,cyan,0,0.27,-0.41,blue,0,-0.14,-0.27,magenta,0,-0.14,0.14,red,0,0.05,0.05,0.15,0.41,0.41,red,l,860322,23,2020-08-05_09h46.16.589,CDT_GNG_IUS12,2020.1.2,Win32,60,l,1,1.596005,0,64,64,36,1,,,,,,,,,,,,,,,,,,,,,,,,,,,,,,,,,,,,,,,,,,,,,,,,
,,,,,,,,,,,,35,different,4,0.27,0.41,orange,1,0.41,-0.14,cyan,1,-0.27,-0.27,green,1,-0.14,0.27,yellow,1,0.41,0.27,black,0,0.41,-0.41,magenta,0,-0.14,-0.14,blue,0,-0.27,0.14,red,0,0.05,0.05,0.15,-0.14,0.27,blue,l,860322,23,2020-08-05_09h46.16.589,CDT_GNG_IUS12,2020.1.2,Win32,60,l,1,0.68321,0,65,65,34,1,,,,,,,,,,,,,,,,,,,,,,,,,,,,,,,,,,,,,,,,,,,,,,,,
,,,,,,,,,,,,93,different,8,0.14,0.41,blue,1,0.14,-0.27,red,1,-0.41,-0.14,magenta,1,-0.14,0.27,black,1,0.41,0.27,yellow,1,0.41,-0.14,orange,1,-0.27,-0.14,green,1,-0.14,0.41,cyan,1,0.05,0.05,0.15,0.41,-0.14,blue,l,860322,23,2020-08-05_09h46.16.589,CDT_GNG_IUS12,2020.1.2,Win32,60,l,1,2.047975,0,66,66,92,1,,,,,,,,,,,,,,,,,,,,,,,,,,,,,,,,,,,,,,,,,,,,,,,,
,,,,,,,,,,,,53,different,4,0.14,0.27,cyan,1,0.41,-0.14,yellow,1,-0.41,-0.41,green,1,-0.14,0.41,black,1,0.41,0.27,red,0,0.14,-0.14,magenta,0,-0.27,-0.27,blue,0,-0.27,0.27,orange,0,0.05,0.05,0.15,0.14,0.27,blue,l,860322,23,2020-08-05_09h46.16.589,CDT_GNG_IUS12,2020.1.2,Win32,60,l,1,0.788115,0,67,67,52,1,,,,,,,,,,,,,,,,,,,,,,,,,,,,,,,,,,,,,,,,,,,,,,,,
,,,,,,,,,,,,108,different,8,0.27,0.41,magenta,1,0.27,-0.14,green,1,-0.14,-0.41,yellow,1,-0.41,0.41,red,1,0.41,0.27,blue,1,0.14,-0.27,cyan,1,-0.27,-0.27,orange,1,-0.41,0.14,black,1,0.05,0.05,0.15,0.27,0.41,black,l,860322,23,2020-08-05_09h46.16.589,CDT_GNG_IUS12,2020.1.2,Win32,60,k,0,1.52138,0,68,68,107,1,,,,,,,,,,,,,,,,,,,,,,,,,,,,,,,,,,,,,,,,,,,,,,,,
,,,,,,,,,,,,94,different,8,0.41,0.27,yellow,1,0.41,-0.27,blue,1,-0.41,-0.14,magenta,1,-0.41,0.27,orange,1,0.41,0.41,red,1,0.41,-0.41,green,1,-0.14,-0.14,black,1,-0.41,0.14,cyan,1,0.05,0.05,0.15,-0.41,0.14,black,l,860322,23,2020-08-05_09h46.16.589,CDT_GNG_IUS12,2020.1.2,Win32,60,l,1,1.945325,0,69,69,93,1,,,,,,,,,,,,,,,,,,,,,,,,,,,,,,,,,,,,,,,,,,,,,,,,
,,,,,,,,,,,,99,different,8,0.14,0.27,blue,1,0.41,-0.41,yellow,1,-0.14,-0.14,green,1,-0.41,0.14,black,1,0.41,0.27,red,1,0.27,-0.27,magenta,1,-0.27,-0.27,orange,1,-0.27,0.27,cyan,1,0.05,0.05,0.15,0.14,0.27,black,l,860322,23,2020-08-05_09h46.16.589,CDT_GNG_IUS12,2020.1.2,Win32,60,l,1,1.17229,0,70,70,98,1,,,,,,,,,,,,,,,,,,,,,,,,,,,,,,,,,,,,,,,,,,,,,,,,
,,,,,,,,,,,,69,same,8,0.27,0.14,magenta,1,0.27,-0.41,yellow,1,-0.14,-0.41,green,1,-0.14,0.41,orange,1,0.14,0.41,red,1,0.14,-0.27,black,1,-0.14,-0.27,blue,1,-0.27,0.14,cyan,1,0.05,0.05,0.15,0.14,-0.27,black,k,860322,23,2020-08-05_09h46.16.589,CDT_GNG_IUS12,2020.1.2,Win32,60,k,1,0.922795,0,71,71,68,1,,,,,,,,,,,,,,,,,,,,,,,,,,,,,,,,,,,,,,,,,,,,,,,,
,,,,,,,,,,,,61,same,8,0.41,0.41,orange,1,0.41,-0.41,magenta,1,-0.27,-0.41,blue,1,-0.14,0.27,yellow,1,0.14,0.41,red,1,0.14,-0.27,black,1,-0.41,-0.41,cyan,1,-0.27,0.14,green,1,0.05,0.05,0.15,-0.27,-0.41,blue,k,860322,23,2020-08-05_09h46.16.589,CDT_GNG_IUS12,2020.1.2,Win32,60,k,1,1.041925,0,72,72,60,1,,,,,,,,,,,,,,,,,,,,,,,,,,,,,,,,,,,,,,,,,,,,,,,,
,,,,,,,,,,,,106,different,8,0.41,0.41,black,1,0.14,-0.41,yellow,1,-0.41,-0.14,orange,1,-0.27,0.27,blue,1,0.14,0.41,red,1,0.41,-0.27,green,1,-0.14,-0.14,cyan,1,-0.14,0.14,magenta,1,0.05,0.05,0.15,-0.41,-0.14,green,l,860322,23,2020-08-05_09h46.16.589,CDT_GNG_IUS12,2020.1.2,Win32,60,l,1,0.90012,0,73,73,105,1,,,,,,,,,,,,,,,,,,,,,,,,,,,,,,,,,,,,,,,,,,,,,,,,
,,,,,,,,,,,,15,same,4,0.41,0.14,magenta,1,0.41,-0.27,blue,1,-0.27,-0.14,yellow,1,-0.14,0.41,green,1,0.41,0.27,red,0,0.14,-0.14,orange,0,-0.14,-0.14,cyan,0,-0.27,0.27,black,0,0.05,0.05,0.15,-0.14,0.41,green,k,860322,23,2020-08-05_09h46.16.589,CDT_GNG_IUS12,2020.1.2,Win32,60,k,1,0.681,0,74,74,14,1,,,,,,,,,,,,,,,,,,,,,,,,,,,,,,,,,,,,,,,,,,,,,,,,
,,,,,,,,,,,,6,same,4,0.41,0.27,orange,1,0.41,-0.14,magenta,1,-0.14,-0.27,black,1,-0.27,0.41,cyan,1,0.14,0.41,red,0,0.14,-0.41,blue,0,-0.14,-0.14,green,0,-0.41,0.41,yellow,0,0.05,0.05,0.15,-0.14,-0.27,black,k,860322,23,2020-08-05_09h46.16.589,CDT_GNG_IUS12,2020.1.2,Win32,60,k,1,1.051235,0,75,75,5,1,,,,,,,,,,,,,,,,,,,,,,,,,,,,,,,,,,,,,,,,,,,,,,,,
,,,,,,,,,,,,113,different,8,0.41,0.27,magenta,1,0.27,-0.27,red,1,-0.41,-0.41,yellow,1,-0.14,0.27,green,1,0.41,0.14,orange,1,0.14,-0.41,blue,1,-0.14,-0.41,black,1,-0.41,0.27,cyan,1,0.05,0.05,0.15,0.41,0.14,yellow,l,860322,23,2020-08-05_09h46.16.589,CDT_GNG_IUS12,2020.1.2,Win32,60,k,0,2.450765,0,76,76,112,1,,,,,,,,,,,,,,,,,,,,,,,,,,,,,,,,,,,,,,,,,,,,,,,,
,,,,,,,,,,,,120,different,8,0.41,0.41,blue,1,0.14,-0.14,magenta,1,-0.27,-0.27,cyan,1,-0.27,0.41,orange,1,0.27,0.41,yellow,1,0.14,-0.41,red,1,-0.14,-0.27,green,1,-0.14,0.41,black,1,0.05,0.05,0.15,-0.14,0.41,orange,l,860322,23,2020-08-05_09h46.16.589,CDT_GNG_IUS12,2020.1.2,Win32,60,k,0,1.41677,0,77,77,119,1,,,,,,,,,,,,,,,,,,,,,,,,,,,,,,,,,,,,,,,,,,,,,,,,
,,,,,,,,,,,,71,same,8,0.14,0.41,red,1,0.27,-0.14,yellow,1,-0.27,-0.41,cyan,1,-0.41,0.27,blue,1,0.41,0.27,magenta,1,0.14,-0.41,orange,1,-0.14,-0.14,black,1,-0.41,0.14,green,1,0.05,0.05,0.15,-0.41,0.27,blue,k,860322,23,2020-08-05_09h46.16.589,CDT_GNG_IUS12,2020.1.2,Win32,60,k,1,0.98296,0,78,78,70,1,,,,,,,,,,,,,,,,,,,,,,,,,,,,,,,,,,,,,,,,,,,,,,,,
,,,,,,,,,,,,111,different,8,0.27,0.14,red,1,0.41,-0.27,green,1,-0.27,-0.14,yellow,1,-0.14,0.14,orange,1,0.41,0.41,black,1,0.27,-0.27,cyan,1,-0.27,-0.41,blue,1,-0.27,0.14,magenta,1,0.05,0.05,0.15,-0.27,-0.41,red,l,860322,23,2020-08-05_09h46.16.589,CDT_GNG_IUS12,2020.1.2,Win32,60,l,1,0.97447,0,79,79,110,1,,,,,,,,,,,,,,,,,,,,,,,,,,,,,,,,,,,,,,,,,,,,,,,,
,,,,,,,,,,,,50,different,4,0.41,0.14,black,1,0.14,-0.14,blue,1,-0.41,-0.41,red,1,-0.27,0.14,green,1,0.14,0.41,cyan,0,0.41,-0.14,magenta,0,-0.14,-0.27,yellow,0,-0.27,0.41,orange,0,0.05,0.05,0.15,-0.41,-0.41,orange,l,860322,23,2020-08-05_09h46.16.589,CDT_GNG_IUS12,2020.1.2,Win32,60,l,1,0.9489,0,80,80,49,1,,,,,,,,,,,,,,,,,,,,,,,,,,,,,,,,,,,,,,,,,,,,,,,,
,,,,,,,,,,,,68,same,8,0.14,0.27,green,1,0.41,-0.27,magenta,1,-0.14,-0.27,cyan,1,-0.41,0.14,red,1,0.41,0.14,yellow,1,0.27,-0.14,blue,1,-0.14,-0.41,orange,1,-0.14,0.14,black,1,0.05,0.05,0.15,0.27,-0.14,blue,k,860322,23,2020-08-05_09h46.16.589,CDT_GNG_IUS12,2020.1.2,Win32,60,k,1,0.66745,0,81,81,67,1,,,,,,,,,,,,,,,,,,,,,,,,,,,,,,,,,,,,,,,,,,,,,,,,
,,,,,,,,,,,,42,different,4,0.41,0.41,green,1,0.14,-0.14,red,1,-0.27,-0.14,cyan,1,-0.27,0.27,blue,1,0.27,0.27,orange,0,0.14,-0.27,black,0,-0.27,-0.41,yellow,0,-0.27,0.41,magenta,0,0.05,0.05,0.15,-0.27,0.27,red,l,860322,23,2020-08-05_09h46.16.589,CDT_GNG_IUS12,2020.1.2,Win32,60,l,1,0.83463,0,82,82,41,1,,,,,,,,,,,,,,,,,,,,,,,,,,,,,,,,,,,,,,,,,,,,,,,,
,,,,,,,,,,,,84,same,8,0.27,0.14,magenta,1,0.14,-0.14,yellow,1,-0.14,-0.14,blue,1,-0.27,0.27,red,1,0.41,0.14,cyan,1,0.41,-0.27,orange,1,-0.14,-0.27,black,1,-0.41,0.14,green,1,0.05,0.05,0.15,-0.27,0.27,red,k,860322,23,2020-08-05_09h46.16.589,CDT_GNG_IUS12,2020.1.2,Win32,60,k,1,0.985235,0,83,83,83,1,,,,,,,,,,,,,,,,,,,,,,,,,,,,,,,,,,,,,,,,,,,,,,,,
,,,,,,,,,,,,22,same,4,0.41,0.27,green,1,0.27,-0.14,black,1,-0.27,-0.41,cyan,1,-0.41,0.14,blue,1,0.14,0.14,magenta,0,0.41,-0.41,orange,0,-0.14,-0.27,red,0,-0.41,0.41,yellow,0,0.05,0.05,0.15,0.27,-0.14,black,k,860322,23,2020-08-05_09h46.16.589,CDT_GNG_IUS12,2020.1.2,Win32,60,k,1,0.851145,0,84,84,21,1,,,,,,,,,,,,,,,,,,,,,,,,,,,,,,,,,,,,,,,,,,,,,,,,
,,,,,,,,,,,,48,different,4,0.14,0.27,red,1,0.27,-0.14,yellow,1,-0.27,-0.41,magenta,1,-0.41,0.14,green,1,0.14,0.14,orange,0,0.41,-0.14,cyan,0,-0.27,-0.27,black,0,-0.41,0.41,blue,0,0.05,0.05,0.15,0.14,0.27,blue,l,860322,23,2020-08-05_09h46.16.589,CDT_GNG_IUS12,2020.1.2,Win32,60,l,1,0.6385,0,85,85,47,1,,,,,,,,,,,,,,,,,,,,,,,,,,,,,,,,,,,,,,,,,,,,,,,,
,,,,,,,,,,,,25,same,4,0.41,0.27,cyan,1,0.27,-0.27,yellow,1,-0.41,-0.14,black,1,-0.14,0.27,blue,1,0.41,0.14,green,0,0.14,-0.41,magenta,0,-0.41,-0.41,orange,0,-0.27,0.41,red,0,0.05,0.05,0.15,0.27,-0.27,yellow,k,860322,23,2020-08-05_09h46.16.589,CDT_GNG_IUS12,2020.1.2,Win32,60,k,1,0.903485,0,86,86,24,1,,,,,,,,,,,,,,,,,,,,,,,,,,,,,,,,,,,,,,,,,,,,,,,,
,,,,,,,,,,,,110,different,8,0.41,0.14,orange,1,0.27,-0.27,black,1,-0.14,-0.27,blue,1,-0.27,0.27,cyan,1,0.27,0.41,magenta,1,0.27,-0.41,red,1,-0.27,-0.41,yellow,1,-0.27,0.41,green,1,0.05,0.05,0.15,-0.27,-0.41,red,l,860322,23,2020-08-05_09h46.16.589,CDT_GNG_IUS12,2020.1.2,Win32,60,l,1,0.95899,0,87,87,109,1,,,,,,,,,,,,,,,,,,,,,,,,,,,,,,,,,,,,,,,,,,,,,,,,
,,,,,,,,,,,,38,different,4,0.27,0.27,black,1,0.14,-0.27,green,1,-0.14,-0.27,magenta,1,-0.41,0.14,blue,1,0.14,0.41,orange,0,0.27,-0.41,yellow,0,-0.41,-0.14,cyan,0,-0.27,0.41,red,0,0.05,0.05,0.15,-0.14,-0.27,orange,l,860322,23,2020-08-05_09h46.16.589,CDT_GNG_IUS12,2020.1.2,Win32,60,l,1,0.91119,0,88,88,37,1,,,,,,,,,,,,,,,,,,,,,,,,,,,,,,,,,,,,,,,,,,,,,,,,
,,,,,,,,,,,,28,same,4,0.41,0.41,magenta,1,0.27,-0.14,blue,1,-0.14,-0.14,red,1,-0.14,0.41,orange,1,0.14,0.14,black,0,0.41,-0.14,green,0,-0.27,-0.14,yellow,0,-0.14,0.27,cyan,0,0.05,0.05,0.15,0.27,-0.14,blue,k,860322,23,2020-08-05_09h46.16.589,CDT_GNG_IUS12,2020.1.2,Win32,60,k,1,0.8458,0,89,89,27,1,,,,,,,,,,,,,,,,,,,,,,,,,,,,,,,,,,,,,,,,,,,,,,,,
,,,,,,,,,,,,13,same,4,0.41,0.41,black,1,0.14,-0.14,red,1,-0.14,-0.14,orange,1,-0.14,0.14,cyan,1,0.14,0.14,green,0,0.27,-0.27,magenta,0,-0.27,-0.14,yellow,0,-0.14,0.41,blue,0,0.05,0.05,0.15,0.41,0.41,black,k,860322,23,2020-08-05_09h46.16.589,CDT_GNG_IUS12,2020.1.2,Win32,60,k,1,1.900605,0,90,90,12,1,,,,,,,,,,,,,,,,,,,,,,,,,,,,,,,,,,,,,,,,,,,,,,,,
,,,,,,,,,,,,67,same,8,0.14,0.27,yellow,1,0.27,-0.14,magenta,1,-0.27,-0.27,black,1,-0.41,0.41,blue,1,0.41,0.14,cyan,1,0.14,-0.14,red,1,-0.41,-0.14,orange,1,-0.41,0.27,green,1,0.05,0.05,0.15,-0.27,-0.27,black,k,860322,23,2020-08-05_09h46.16.589,CDT_GNG_IUS12,2020.1.2,Win32,60,k,1,1.72092,0,91,91,66,1,,,,,,,,,,,,,,,,,,,,,,,,,,,,,,,,,,,,,,,,,,,,,,,,
,,,,,,,,,,,,56,different,4,0.27,0.14,yellow,1,0.41,-0.14,blue,1,-0.14,-0.27,green,1,-0.41,0.14,cyan,1,0.14,0.14,magenta,0,0.41,-0.41,red,0,-0.41,-0.14,orange,0,-0.41,0.27,black,0,0.05,0.05,0.15,-0.14,-0.27,magenta,l,860322,23,2020-08-05_09h46.16.589,CDT_GNG_IUS12,2020.1.2,Win32,60,l,1,1.56466,0,92,92,55,1,,,,,,,,,,,,,,,,,,,,,,,,,,,,,,,,,,,,,,,,,,,,,,,,
,,,,,,,,,,,,33,different,4,0.27,0.41,magenta,1,0.41,-0.41,red,1,-0.27,-0.41,yellow,1,-0.14,0.41,black,1,0.14,0.41,blue,0,0.14,-0.41,orange,0,-0.41,-0.14,cyan,0,-0.41,0.27,green,0,0.05,0.05,0.15,0.27,0.41,black,l,860322,23,2020-08-05_09h46.16.589,CDT_GNG_IUS12,2020.1.2,Win32,60,l,1,0.76775,0,93,93,32,1,,,,,,,,,,,,,,,,,,,,,,,,,,,,,,,,,,,,,,,,,,,,,,,,
,,,,,,,,,,,,29,same,4,0.14,0.27,black,1,0.41,-0.14,blue,1,-0.41,-0.14,magenta,1,-0.27,0.27,green,1,0.27,0.27,yellow,0,0.41,-0.41,orange,0,-0.41,-0.27,cyan,0,-0.14,0.14,red,0,0.05,0.05,0.15,0.41,-0.14,blue,k,860322,23,2020-08-05_09h46.16.589,CDT_GNG_IUS12,2020.1.2,Win32,60,k,1,2.128495,0,94,94,28,1,,,,,,,,,,,,,,,,,,,,,,,,,,,,,,,,,,,,,,,,,,,,,,,,
,,,,,,,,,,,,19,same,4,0.27,0.41,blue,1,0.14,-0.41,red,1,-0.14,-0.27,black,1,-0.14,0.27,magenta,1,0.27,0.14,yellow,0,0.27,-0.14,orange,0,-0.14,-0.41,green,0,-0.14,0.14,cyan,0,0.05,0.05,0.15,0.27,0.41,blue,k,860322,23,2020-08-05_09h46.16.589,CDT_GNG_IUS12,2020.1.2,Win32,60,k,1,1.04028,0,95,95,18,1,,,,,,,,,,,,,,,,,,,,,,,,,,,,,,,,,,,,,,,,,,,,,,,,
,,,,,,,,,,,,79,same,8,0.27,0.14,green,1,0.41,-0.14,yellow,1,-0.27,-0.41,orange,1,-0.14,0.14,black,1,0.41,0.27,cyan,1,0.14,-0.14,red,1,-0.14,-0.27,blue,1,-0.27,0.41,magenta,1,0.05,0.05,0.15,0.41,0.27,cyan,k,860322,23,2020-08-05_09h46.16.589,CDT_GNG_IUS12,2020.1.2,Win32,60,l,0,0.996245,0,96,96,78,1,,,,,,,,,,,,,,,,,,,,,,,,,,,,,,,,,,,,,,,,,,,,,,,,
,,,,,,,,,,,,40,different,4,0.41,0.41,magenta,1,0.41,-0.27,cyan,1,-0.27,-0.41,yellow,1,-0.14,0.41,black,1,0.27,0.27,blue,0,0.41,-0.41,green,0,-0.14,-0.27,red,0,-0.27,0.27,orange,0,0.05,0.05,0.15,-0.27,-0.41,orange,l,860322,23,2020-08-05_09h46.16.589,CDT_GNG_IUS12,2020.1.2,Win32,60,l,1,0.750185,0,97,97,39,1,,,,,,,,,,,,,,,,,,,,,,,,,,,,,,,,,,,,,,,,,,,,,,,,
,,,,,,,,,,,,44,different,4,0.27,0.27,black,1,0.41,-0.14,red,1,-0.41,-0.27,magenta,1,-0.14,0.14,green,1,0.41,0.41,cyan,0,0.14,-0.14,yellow,0,-0.27,-0.41,blue,0,-0.27,0.14,orange,0,0.05,0.05,0.15,0.41,-0.14,magenta,l,860322,23,2020-08-05_09h46.16.589,CDT_GNG_IUS12,2020.1.2,Win32,60,l,1,2.204205,0,98,98,43,1,,,,,,,,,,,,,,,,,,,,,,,,,,,,,,,,,,,,,,,,,,,,,,,,
,,,,,,,,,,,,72,same,8,0.27,0.41,blue,1,0.41,-0.27,magenta,1,-0.41,-0.41,yellow,1,-0.27,0.41,black,1,0.41,0.41,cyan,1,0.27,-0.41,green,1,-0.41,-0.27,orange,1,-0.14,0.27,red,1,0.05,0.05,0.15,-0.14,0.27,red,k,860322,23,2020-08-05_09h46.16.589,CDT_GNG_IUS12,2020.1.2,Win32,60,l,0,0.92874,0,99,99,71,1,,,,,,,,,,,,,,,,,,,,,,,,,,,,,,,,,,,,,,,,,,,,,,,,
,,,,,,,,,,,,26,same,4,0.14,0.14,black,1,0.14,-0.14,red,1,-0.41,-0.14,yellow,1,-0.14,0.41,orange,1,0.27,0.14,blue,0,0.14,-0.27,magenta,0,-0.27,-0.41,green,0,-0.14,0.27,cyan,0,0.05,0.05,0.15,-0.41,-0.14,yellow,k,860322,23,2020-08-05_09h46.16.589,CDT_GNG_IUS12,2020.1.2,Win32,60,k,1,0.82651,0,100,100,25,1,,,,,,,,,,,,,,,,,,,,,,,,,,,,,,,,,,,,,,,,,,,,,,,,
,,,,,,,,,,,,49,different,4,0.27,0.14,green,1,0.41,-0.14,yellow,1,-0.27,-0.41,red,1,-0.14,0.14,cyan,1,0.14,0.14,blue,0,0.27,-0.27,black,0,-0.14,-0.41,orange,0,-0.41,0.14,magenta,0,0.05,0.05,0.15,0.27,0.14,yellow,l,860322,23,2020-08-05_09h46.16.589,CDT_GNG_IUS12,2020.1.2,Win32,60,l,1,1.023785,0,101,101,48,1,,,,,,,,,,,,,,,,,,,,,,,,,,,,,,,,,,,,,,,,,,,,,,,,
,,,,,,,,,,,,60,different,4,0.41,0.14,cyan,1,0.14,-0.41,green,1,-0.41,-0.41,yellow,1,-0.41,0.41,magenta,1,0.14,0.14,orange,0,0.41,-0.41,red,0,-0.14,-0.41,black,0,-0.27,0.27,blue,0,0.05,0.05,0.15,0.41,0.14,blue,l,860322,23,2020-08-05_09h46.16.589,CDT_GNG_IUS12,2020.1.2,Win32,60,l,1,2.050505,0,102,102,59,1,,,,,,,,,,,,,,,,,,,,,,,,,,,,,,,,,,,,,,,,,,,,,,,,
,,,,,,,,,,,,8,same,4,0.27,0.41,orange,1,0.41,-0.14,cyan,1,-0.14,-0.41,green,1,-0.14,0.41,black,1,0.41,0.41,blue,0,0.27,-0.41,yellow,0,-0.41,-0.27,red,0,-0.41,0.41,magenta,0,0.05,0.05,0.15,-0.14,-0.41,green,k,860322,23,2020-08-05_09h46.16.589,CDT_GNG_IUS12,2020.1.2,Win32,60,k,1,0.936685,0,103,103,7,1,,,,,,,,,,,,,,,,,,,,,,,,,,,,,,,,,,,,,,,,,,,,,,,,
,,,,,,,,,,,,41,different,4,0.41,0.41,green,1,0.27,-0.41,orange,1,-0.27,-0.41,black,1,-0.27,0.41,magenta,1,0.14,0.41,cyan,0,0.41,-0.27,blue,0,-0.14,-0.27,red,0,-0.27,0.14,yellow,0,0.05,0.05,0.15,-0.27,-0.41,cyan,l,860322,23,2020-08-05_09h46.16.589,CDT_GNG_IUS12,2020.1.2,Win32,60,l,1,0.944825,0,104,104,40,1,,,,,,,,,,,,,,,,,,,,,,,,,,,,,,,,,,,,,,,,,,,,,,,,
,,,,,,,,,,,,39,different,4,0.41,0.27,green,1,0.41,-0.27,yellow,1,-0.27,-0.27,orange,1,-0.14,0.14,cyan,1,0.14,0.14,magenta,0,0.27,-0.41,blue,0,-0.14,-0.27,red,0,-0.41,0.27,black,0,0.05,0.05,0.15,-0.14,0.14,green,l,860322,23,2020-08-05_09h46.16.589,CDT_GNG_IUS12,2020.1.2,Win32,60,l,1,0.666955,0,105,105,38,1,,,,,,,,,,,,,,,,,,,,,,,,,,,,,,,,,,,,,,,,,,,,,,,,
,,,,,,,,,,,,59,different,4,0.27,0.41,black,1,0.41,-0.14,blue,1,-0.27,-0.27,cyan,1,-0.14,0.41,green,1,0.14,0.27,red,0,0.41,-0.41,magenta,0,-0.14,-0.27,orange,0,-0.41,0.27,yellow,0,0.05,0.05,0.15,0.27,0.41,yellow,l,860322,23,2020-08-05_09h46.16.589,CDT_GNG_IUS12,2020.1.2,Win32,60,l,1,0.84263,0,106,106,58,1,,,,,,,,,,,,,,,,,,,,,,,,,,,,,,,,,,,,,,,,,,,,,,,,
,,,,,,,,,,,,89,same,8,0.14,0.14,blue,1,0.14,-0.27,orange,1,-0.14,-0.27,yellow,1,-0.41,0.27,red,1,0.27,0.27,cyan,1,0.14,-0.14,green,1,-0.14,-0.41,magenta,1,-0.41,0.41,black,1,0.05,0.05,0.15,0.14,-0.27,orange,k,860322,23,2020-08-05_09h46.16.589,CDT_GNG_IUS12,2020.1.2,Win32,60,k,1,0.958065,0,107,107,88,1,,,,,,,,,,,,,,,,,,,,,,,,,,,,,,,,,,,,,,,,,,,,,,,,
,,,,,,,,,,,,1,same,4,0.14,0.14,magenta,1,0.27,-0.14,blue,1,-0.27,-0.14,black,1,-0.27,0.27,green,1,0.41,0.41,red,0,0.27,-0.27,cyan,0,-0.14,-0.14,yellow,0,-0.27,0.41,orange,0,0.05,0.05,0.15,0.14,0.14,magenta,k,860322,23,2020-08-05_09h46.16.589,CDT_GNG_IUS12,2020.1.2,Win32,60,k,1,1.700085,0,108,108,0,1,,,,,,,,,,,,,,,,,,,,,,,,,,,,,,,,,,,,,,,,,,,,,,,,
,,,,,,,,,,,,3,same,4,0.27,0.14,green,1,0.27,-0.27,orange,1,-0.27,-0.41,yellow,1,-0.41,0.41,magenta,1,0.14,0.41,black,0,0.14,-0.41,red,0,-0.27,-0.14,cyan,0,-0.14,0.14,blue,0,0.05,0.05,0.15,-0.27,-0.41,yellow,k,860322,23,2020-08-05_09h46.16.589,CDT_GNG_IUS12,2020.1.2,Win32,60,k,1,0.95643,0,109,109,2,1,,,,,,,,,,,,,,,,,,,,,,,,,,,,,,,,,,,,,,,,,,,,,,,,
,,,,,,,,,,,,90,same,8,0.27,0.14,orange,1,0.14,-0.27,green,1,-0.14,-0.41,magenta,1,-0.14,0.27,cyan,1,0.41,0.41,blue,1,0.14,-0.14,black,1,-0.14,-0.14,yellow,1,-0.27,0.27,red,1,0.05,0.05,0.15,0.14,-0.14,black,k,860322,23,2020-08-05_09h46.16.589,CDT_GNG_IUS12,2020.1.2,Win32,60,k,1,0.80219,0,110,110,89,1,,,,,,,,,,,,,,,,,,,,,,,,,,,,,,,,,,,,,,,,,,,,,,,,
,,,,,,,,,,,,23,same,4,0.41,0.14,cyan,1,0.14,-0.27,magenta,1,-0.14,-0.27,red,1,-0.14,0.27,green,1,0.41,0.27,blue,0,0.14,-0.41,yellow,0,-0.41,-0.27,orange,0,-0.27,0.41,black,0,0.05,0.05,0.15,-0.14,0.27,green,k,860322,23,2020-08-05_09h46.16.589,CDT_GNG_IUS12,2020.1.2,Win32,60,k,1,0.875955,0,111,111,22,1,,,,,,,,,,,,,,,,,,,,,,,,,,,,,,,,,,,,,,,,,,,,,,,,
,,,,,,,,,,,,109,different,8,0.41,0.14,yellow,1,0.27,-0.27,cyan,1,-0.14,-0.27,magenta,1,-0.27,0.14,orange,1,0.41,0.41,green,1,0.27,-0.41,red,1,-0.27,-0.41,black,1,-0.27,0.41,blue,1,0.05,0.05,0.15,0.27,-0.27,green,l,860322,23,2020-08-05_09h46.16.589,CDT_GNG_IUS12,2020.1.2,Win32,60,l,1,1.021045,0,112,112,108,1,,,,,,,,,,,,,,,,,,,,,,,,,,,,,,,,,,,,,,,,,,,,,,,,
,,,,,,,,,,,,100,different,8,0.41,0.27,black,1,0.41,-0.27,red,1,-0.14,-0.27,magenta,1,-0.14,0.27,orange,1,0.14,0.27,blue,1,0.27,-0.14,yellow,1,-0.41,-0.14,cyan,1,-0.41,0.14,green,1,0.05,0.05,0.15,0.41,0.27,orange,l,860322,23,2020-08-05_09h46.16.589,CDT_GNG_IUS12,2020.1.2,Win32,60,l,1,1.28767,0,113,113,99,1,,,,,,,,,,,,,,,,,,,,,,,,,,,,,,,,,,,,,,,,,,,,,,,,
,,,,,,,,,,,,87,same,8,0.27,0.14,red,1,0.14,-0.14,yellow,1,-0.27,-0.14,orange,1,-0.27,0.27,magenta,1,0.41,0.27,blue,1,0.41,-0.41,green,1,-0.27,-0.27,black,1,-0.14,0.27,cyan,1,0.05,0.05,0.15,0.41,-0.41,green,k,860322,23,2020-08-05_09h46.16.589,CDT_GNG_IUS12,2020.1.2,Win32,60,k,1,1.350085,0,114,114,86,1,,,,,,,,,,,,,,,,,,,,,,,,,,,,,,,,,,,,,,,,,,,,,,,,
,,,,,,,,,,,,11,same,4,0.27,0.14,red,1,0.14,-0.14,cyan,1,-0.27,-0.41,blue,1,-0.27,0.14,yellow,1,0.27,0.27,green,0,0.41,-0.27,black,0,-0.41,-0.41,magenta,0,-0.41,0.14,orange,0,0.05,0.05,0.15,-0.27,-0.41,blue,k,860322,23,2020-08-05_09h46.16.589,CDT_GNG_IUS12,2020.1.2,Win32,60,k,1,0.866235,0,115,115,10,1,,,,,,,,,,,,,,,,,,,,,,,,,,,,,,,,,,,,,,,,,,,,,,,,
,,,,,,,,,,,,7,same,4,0.41,0.41,yellow,1,0.41,-0.41,blue,1,-0.14,-0.41,black,1,-0.14,0.14,magenta,1,0.27,0.41,red,0,0.41,-0.27,green,0,-0.41,-0.14,cyan,0,-0.14,0.27,orange,0,0.05,0.05,0.15,-0.14,0.14,magenta,k,860322,23,2020-08-05_09h46.16.589,CDT_GNG_IUS12,2020.1.2,Win32,60,k,1,1.04249,0,116,116,6,1,,,,,,,,,,,,,,,,,,,,,,,,,,,,,,,,,,,,,,,,,,,,,,,,
,,,,,,,,,,,,82,same,8,0.27,0.41,yellow,1,0.14,-0.14,magenta,1,-0.14,-0.14,orange,1,-0.14,0.41,black,1,0.14,0.41,red,1,0.27,-0.14,green,1,-0.27,-0.27,cyan,1,-0.41,0.41,blue,1,0.05,0.05,0.15,0.14,-0.14,magenta,k,860322,23,2020-08-05_09h46.16.589,CDT_GNG_IUS12,2020.1.2,Win32,60,l,0,1.05663,0,117,117,81,1,,,,,,,,,,,,,,,,,,,,,,,,,,,,,,,,,,,,,,,,,,,,,,,,
,,,,,,,,,,,,10,same,4,0.14,0.41,magenta,1,0.41,-0.14,black,1,-0.27,-0.27,orange,1,-0.41,0.27,green,1,0.27,0.41,blue,0,0.41,-0.41,yellow,0,-0.41,-0.41,cyan,0,-0.27,0.27,red,0,0.05,0.05,0.15,0.41,-0.14,black,k,860322,23,2020-08-05_09h46.16.589,CDT_GNG_IUS12,2020.1.2,Win32,60,k,1,1.072325,0,118,118,9,1,,,,,,,,,,,,,,,,,,,,,,,,,,,,,,,,,,,,,,,,,,,,,,,,
,,,,,,,,,,,,5,same,4,0.27,0.27,blue,1,0.14,-0.14,orange,1,-0.27,-0.27,black,1,-0.27,0.41,magenta,1,0.27,0.41,green,0,0.14,-0.41,cyan,0,-0.27,-0.41,yellow,0,-0.27,0.14,red,0,0.05,0.05,0.15,0.14,-0.14,orange,k,860322,23,2020-08-05_09h46.16.589,CDT_GNG_IUS12,2020.1.2,Win32,60,k,1,0.600035,0,119,119,4,1,,,,,,,,,,,,,,,,,,,,,,,,,,,,,,,,,,,,,,,,,,,,,,,,
,,,,,,,,,,,,,,,,,,,,,,,,,,,,,,,,,,,,,,,,,,,,,,,,,,,,,space,860322,23,2020-08-05_09h46.16.589,CDT_GNG_IUS12,2020.1.2,Win32,60,,,,,,,,,,0,0,0,0,6,1,0,1,,,,,,,,,,,,,,,,,,,,,,,,,,,,,,,,,,,,,,,
,,,,,,,,,,,,,,,,,,,,,,,,,,,,,,,,,,,,,,,,,,,,,,,,,,,,,space,860322,23,2020-08-05_09h46.16.589,CDT_GNG_IUS12,2020.1.2,Win32,60,,,,,,,,,space,1,0,1,1,7,1,0,1,0.33044,,,,,,,,,,,,,,,,,,,,,,,,,,,,,,,,,,,,,,
,,,,,,,,,,,,,,,,,,,,,,,,,,,,,,,,,,,,,,,,,,,,,,,,,,,,,space,860322,23,2020-08-05_09h46.16.589,CDT_GNG_IUS12,2020.1.2,Win32,60,,,,,,,,,space,1,0,2,2,5,1,0,1,0.339655,,,,,,,,,,,,,,,,,,,,,,,,,,,,,,,,,,,,,,
,,,,,,,,,,,,,,,,,,,,,,,,,,,,,,,,,,,,,,,,,,,,,,,,,,,,,space,860322,23,2020-08-05_09h46.16.589,CDT_GNG_IUS12,2020.1.2,Win32,60,,,,,,,,,space,1,0,3,3,4,1,0,1,0.364475,,,,,,,,,,,,,,,,,,,,,,,,,,,,,,,,,,,,,,
,,,,,,,,,,,,,,,,,,,,,,,,,,,,,,,,,,,,,,,,,,,,,,,,,,,,,,860322,23,2020-08-05_09h46.16.589,CDT_GNG_IUS12,2020.1.2,Win32,60,,,,,,,,,,1,0,4,4,2,1,1,0,,,,,,,,,,,,,,,,,,,,,,,,,,,,,,,,,,,,,,,
,,,,,,,,,,,,,,,,,,,,,,,,,,,,,,,,,,,,,,,,,,,,,,,,,,,,,,860322,23,2020-08-05_09h46.16.589,CDT_GNG_IUS12,2020.1.2,Win32,60,,,,,,,,,,1,0,5,5,3,1,1,0,,,,,,,,,,,,,,,,,,,,,,,,,,,,,,,,,,,,,,,
,,,,,,,,,,,,,,,,,,,,,,,,,,,,,,,,,,,,,,,,,,,,,,,,,,,,,,860322,23,2020-08-05_09h46.16.589,CDT_GNG_IUS12,2020.1.2,Win32,60,,,,,,,,,,1,0,6,6,1,1,1,0,,,,,,,,,,,,,,,,,,,,,,,,,,,,,,,,,,,,,,,
,,,,,,,,,,,,,,,,,,,,,,,,,,,,,,,,,,,,,,,,,,,,,,,,,,,,,,860322,23,2020-08-05_09h46.16.589,CDT_GNG_IUS12,2020.1.2,Win32,60,,,,,,,,,,1,0,7,7,0,1,1,0,,,,,,,,,,,,,,,,,,,,,,,,,,,,,,,,,,,,,,,
,,,,,,,,,,,,,,,,,,,,,,,,,,,,,,,,,,,,,,,,,,,,,,,,,,,,,space,860322,23,2020-08-05_09h46.16.589,CDT_GNG_IUS12,2020.1.2,Win32,60,,,,,,,,,,,,,,,,0,1,,space,1,0.30567,0,0,0,30,1,,,,,,,,,,,,,,,,,,,,,,,,,,,,,,
,,,,,,,,,,,,,,,,,,,,,,,,,,,,,,,,,,,,,,,,,,,,,,,,,,,,,,860322,23,2020-08-05_09h46.16.589,CDT_GNG_IUS12,2020.1.2,Win32,60,,,,,,,,,,,,,,,,1,0,,,1,,0,1,1,8,1,,,,,,,,,,,,,,,,,,,,,,,,,,,,,,
,,,,,,,,,,,,,,,,,,,,,,,,,,,,,,,,,,,,,,,,,,,,,,,,,,,,,space,860322,23,2020-08-05_09h46.16.589,CDT_GNG_IUS12,2020.1.2,Win32,60,,,,,,,,,,,,,,,,0,1,,space,1,0.332115,0,2,2,37,1,,,,,,,,,,,,,,,,,,,,,,,,,,,,,,
,,,,,,,,,,,,,,,,,,,,,,,,,,,,,,,,,,,,,,,,,,,,,,,,,,,,,,860322,23,2020-08-05_09h46.16.589,CDT_GNG_IUS12,2020.1.2,Win32,60,,,,,,,,,,,,,,,,1,0,,,1,,0,3,3,0,1,,,,,,,,,,,,,,,,,,,,,,,,,,,,,,
,,,,,,,,,,,,,,,,,,,,,,,,,,,,,,,,,,,,,,,,,,,,,,,,,,,,,,860322,23,2020-08-05_09h46.16.589,CDT_GNG_IUS12,2020.1.2,Win32,60,,,,,,,,,,,,,,,,1,0,,,1,,0,4,4,2,1,,,,,,,,,,,,,,,,,,,,,,,,,,,,,,
,,,,,,,,,,,,,,,,,,,,,,,,,,,,,,,,,,,,,,,,,,,,,,,,,,,,,space,860322,23,2020-08-05_09h46.16.589,CDT_GNG_IUS12,2020.1.2,Win32,60,,,,,,,,,,,,,,,,0,1,,space,1,0.29908,0,5,5,32,1,,,,,,,,,,,,,,,,,,,,,,,,,,,,,,
,,,,,,,,,,,,,,,,,,,,,,,,,,,,,,,,,,,,,,,,,,,,,,,,,,,,,,860322,23,2020-08-05_09h46.16.589,CDT_GNG_IUS12,2020.1.2,Win32,60,,,,,,,,,,,,,,,,1,0,,,1,,0,6,6,9,1,,,,,,,,,,,,,,,,,,,,,,,,,,,,,,
,,,,,,,,,,,,,,,,,,,,,,,,,,,,,,,,,,,,,,,,,,,,,,,,,,,,,,860322,23,2020-08-05_09h46.16.589,CDT_GNG_IUS12,2020.1.2,Win32,60,,,,,,,,,,,,,,,,1,0,,space,0,0.20013,0,7,7,3,1,,,,,,,,,,,,,,,,,,,,,,,,,,,,,,
,,,,,,,,,,,,,,,,,,,,,,,,,,,,,,,,,,,,,,,,,,,,,,,,,,,,,space,860322,23,2020-08-05_09h46.16.589,CDT_GNG_IUS12,2020.1.2,Win32,60,,,,,,,,,,,,,,,,0,1,,space,1,0.56156,0,8,8,43,1,,,,,,,,,,,,,,,,,,,,,,,,,,,,,,
,,,,,,,,,,,,,,,,,,,,,,,,,,,,,,,,,,,,,,,,,,,,,,,,,,,,,space,860322,23,2020-08-05_09h46.16.589,CDT_GNG_IUS12,2020.1.2,Win32,60,,,,,,,,,,,,,,,,0,1,,space,1,0.43973,0,9,9,10,1,,,,,,,,,,,,,,,,,,,,,,,,,,,,,,
,,,,,,,,,,,,,,,,,,,,,,,,,,,,,,,,,,,,,,,,,,,,,,,,,,,,,space,860322,23,2020-08-05_09h46.16.589,CDT_GNG_IUS12,2020.1.2,Win32,60,,,,,,,,,,,,,,,,0,1,,,0,,0,10,10,23,1,,,,,,,,,,,,,,,,,,,,,,,,,,,,,,
,,,,,,,,,,,,,,,,,,,,,,,,,,,,,,,,,,,,,,,,,,,,,,,,,,,,,space,860322,23,2020-08-05_09h46.16.589,CDT_GNG_IUS12,2020.1.2,Win32,60,,,,,,,,,,,,,,,,0,1,,space,1,0.21988,0,11,11,26,1,,,,,,,,,,,,,,,,,,,,,,,,,,,,,,
,,,,,,,,,,,,,,,,,,,,,,,,,,,,,,,,,,,,,,,,,,,,,,,,,,,,,space,860322,23,2020-08-05_09h46.16.589,CDT_GNG_IUS12,2020.1.2,Win32,60,,,,,,,,,,,,,,,,0,1,,space,1,0.27318,0,12,12,44,1,,,,,,,,,,,,,,,,,,,,,,,,,,,,,,
,,,,,,,,,,,,,,,,,,,,,,,,,,,,,,,,,,,,,,,,,,,,,,,,,,,,,space,860322,23,2020-08-05_09h46.16.589,CDT_GNG_IUS12,2020.1.2,Win32,60,,,,,,,,,,,,,,,,0,1,,space,1,0.2877,0,13,13,46,1,,,,,,,,,,,,,,,,,,,,,,,,,,,,,,
,,,,,,,,,,,,,,,,,,,,,,,,,,,,,,,,,,,,,,,,,,,,,,,,,,,,,space,860322,23,2020-08-05_09h46.16.589,CDT_GNG_IUS12,2020.1.2,Win32,60,,,,,,,,,,,,,,,,0,1,,space,1,0.2842,0,14,14,31,1,,,,,,,,,,,,,,,,,,,,,,,,,,,,,,
,,,,,,,,,,,,,,,,,,,,,,,,,,,,,,,,,,,,,,,,,,,,,,,,,,,,,space,860322,23,2020-08-05_09h46.16.589,CDT_GNG_IUS12,2020.1.2,Win32,60,,,,,,,,,,,,,,,,0,1,,space,1,0.274895,0,15,15,19,1,,,,,,,,,,,,,,,,,,,,,,,,,,,,,,
,,,,,,,,,,,,,,,,,,,,,,,,,,,,,,,,,,,,,,,,,,,,,,,,,,,,,space,860322,23,2020-08-05_09h46.16.589,CDT_GNG_IUS12,2020.1.2,Win32,60,,,,,,,,,,,,,,,,0,1,,space,1,0.27634,0,16,16,12,1,,,,,,,,,,,,,,,,,,,,,,,,,,,,,,
,,,,,,,,,,,,,,,,,,,,,,,,,,,,,,,,,,,,,,,,,,,,,,,,,,,,,space,860322,23,2020-08-05_09h46.16.589,CDT_GNG_IUS12,2020.1.2,Win32,60,,,,,,,,,,,,,,,,0,1,,space,1,0.24497,0,17,17,41,1,,,,,,,,,,,,,,,,,,,,,,,,,,,,,,
,,,,,,,,,,,,,,,,,,,,,,,,,,,,,,,,,,,,,,,,,,,,,,,,,,,,,space,860322,23,2020-08-05_09h46.16.589,CDT_GNG_IUS12,2020.1.2,Win32,60,,,,,,,,,,,,,,,,0,1,,space,1,0.252525,0,18,18,17,1,,,,,,,,,,,,,,,,,,,,,,,,,,,,,,
,,,,,,,,,,,,,,,,,,,,,,,,,,,,,,,,,,,,,,,,,,,,,,,,,,,,,space,860322,23,2020-08-05_09h46.16.589,CDT_GNG_IUS12,2020.1.2,Win32,60,,,,,,,,,,,,,,,,0,1,,space,1,0.21137,0,19,19,14,1,,,,,,,,,,,,,,,,,,,,,,,,,,,,,,
,,,,,,,,,,,,,,,,,,,,,,,,,,,,,,,,,,,,,,,,,,,,,,,,,,,,,space,860322,23,2020-08-05_09h46.16.589,CDT_GNG_IUS12,2020.1.2,Win32,60,,,,,,,,,,,,,,,,0,1,,space,1,0.22334,0,20,20,24,1,,,,,,,,,,,,,,,,,,,,,,,,,,,,,,
,,,,,,,,,,,,,,,,,,,,,,,,,,,,,,,,,,,,,,,,,,,,,,,,,,,,,space,860322,23,2020-08-05_09h46.16.589,CDT_GNG_IUS12,2020.1.2,Win32,60,,,,,,,,,,,,,,,,0,1,,space,1,0.3806,0,21,21,42,1,,,,,,,,,,,,,,,,,,,,,,,,,,,,,,
,,,,,,,,,,,,,,,,,,,,,,,,,,,,,,,,,,,,,,,,,,,,,,,,,,,,,space,860322,23,2020-08-05_09h46.16.589,CDT_GNG_IUS12,2020.1.2,Win32,60,,,,,,,,,,,,,,,,0,1,,space,1,0.330795,0,22,22,20,1,,,,,,,,,,,,,,,,,,,,,,,,,,,,,,
,,,,,,,,,,,,,,,,,,,,,,,,,,,,,,,,,,,,,,,,,,,,,,,,,,,,,,860322,23,2020-08-05_09h46.16.589,CDT_GNG_IUS12,2020.1.2,Win32,60,,,,,,,,,,,,,,,,1,0,,,1,,0,23,23,1,1,,,,,,,,,,,,,,,,,,,,,,,,,,,,,,
,,,,,,,,,,,,,,,,,,,,,,,,,,,,,,,,,,,,,,,,,,,,,,,,,,,,,space,860322,23,2020-08-05_09h46.16.589,CDT_GNG_IUS12,2020.1.2,Win32,60,,,,,,,,,,,,,,,,0,1,,space,1,0.343135,0,24,24,35,1,,,,,,,,,,,,,,,,,,,,,,,,,,,,,,
,,,,,,,,,,,,,,,,,,,,,,,,,,,,,,,,,,,,,,,,,,,,,,,,,,,,,space,860322,23,2020-08-05_09h46.16.589,CDT_GNG_IUS12,2020.1.2,Win32,60,,,,,,,,,,,,,,,,0,1,,space,1,0.420135,0,25,25,39,1,,,,,,,,,,,,,,,,,,,,,,,,,,,,,,
,,,,,,,,,,,,,,,,,,,,,,,,,,,,,,,,,,,,,,,,,,,,,,,,,,,,,space,860322,23,2020-08-05_09h46.16.589,CDT_GNG_IUS12,2020.1.2,Win32,60,,,,,,,,,,,,,,,,0,1,,space,1,0.282395,0,26,26,48,1,,,,,,,,,,,,,,,,,,,,,,,,,,,,,,
,,,,,,,,,,,,,,,,,,,,,,,,,,,,,,,,,,,,,,,,,,,,,,,,,,,,,space,860322,23,2020-08-05_09h46.16.589,CDT_GNG_IUS12,2020.1.2,Win32,60,,,,,,,,,,,,,,,,0,1,,space,1,0.310975,0,27,27,36,1,,,,,,,,,,,,,,,,,,,,,,,,,,,,,,
,,,,,,,,,,,,,,,,,,,,,,,,,,,,,,,,,,,,,,,,,,,,,,,,,,,,,,860322,23,2020-08-05_09h46.16.589,CDT_GNG_IUS12,2020.1.2,Win32,60,,,,,,,,,,,,,,,,1,0,,,1,,0,28,28,6,1,,,,,,,,,,,,,,,,,,,,,,,,,,,,,,
,,,,,,,,,,,,,,,,,,,,,,,,,,,,,,,,,,,,,,,,,,,,,,,,,,,,,space,860322,23,2020-08-05_09h46.16.589,CDT_GNG_IUS12,2020.1.2,Win32,60,,,,,,,,,,,,,,,,0,1,,space,1,0.31463,0,29,29,15,1,,,,,,,,,,,,,,,,,,,,,,,,,,,,,,
,,,,,,,,,,,,,,,,,,,,,,,,,,,,,,,,,,,,,,,,,,,,,,,,,,,,,space,860322,23,2020-08-05_09h46.16.589,CDT_GNG_IUS12,2020.1.2,Win32,60,,,,,,,,,,,,,,,,0,1,,space,1,0.338635,0,30,30,28,1,,,,,,,,,,,,,,,,,,,,,,,,,,,,,,
,,,,,,,,,,,,,,,,,,,,,,,,,,,,,,,,,,,,,,,,,,,,,,,,,,,,,,860322,23,2020-08-05_09h46.16.589,CDT_GNG_IUS12,2020.1.2,Win32,60,,,,,,,,,,,,,,,,1,0,,,1,,0,31,31,4,1,,,,,,,,,,,,,,,,,,,,,,,,,,,,,,
,,,,,,,,,,,,,,,,,,,,,,,,,,,,,,,,,,,,,,,,,,,,,,,,,,,,,space,860322,23,2020-08-05_09h46.16.589,CDT_GNG_IUS12,2020.1.2,Win32,60,,,,,,,,,,,,,,,,0,1,,space,1,0.29856,0,32,32,40,1,,,,,,,,,,,,,,,,,,,,,,,,,,,,,,
,,,,,,,,,,,,,,,,,,,,,,,,,,,,,,,,,,,,,,,,,,,,,,,,,,,,,space,860322,23,2020-08-05_09h46.16.589,CDT_GNG_IUS12,2020.1.2,Win32,60,,,,,,,,,,,,,,,,0,1,,space,1,0.44318,0,33,33,25,1,,,,,,,,,,,,,,,,,,,,,,,,,,,,,,
,,,,,,,,,,,,,,,,,,,,,,,,,,,,,,,,,,,,,,,,,,,,,,,,,,,,,space,860322,23,2020-08-05_09h46.16.589,CDT_GNG_IUS12,2020.1.2,Win32,60,,,,,,,,,,,,,,,,0,1,,space,1,0.30866,0,34,34,21,1,,,,,,,,,,,,,,,,,,,,,,,,,,,,,,
,,,,,,,,,,,,,,,,,,,,,,,,,,,,,,,,,,,,,,,,,,,,,,,,,,,,,space,860322,23,2020-08-05_09h46.16.589,CDT_GNG_IUS12,2020.1.2,Win32,60,,,,,,,,,,,,,,,,0,1,,space,1,0.257655,0,35,35,49,1,,,,,,,,,,,,,,,,,,,,,,,,,,,,,,
,,,,,,,,,,,,,,,,,,,,,,,,,,,,,,,,,,,,,,,,,,,,,,,,,,,,,space,860322,23,2020-08-05_09h46.16.589,CDT_GNG_IUS12,2020.1.2,Win32,60,,,,,,,,,,,,,,,,0,1,,space,1,0.23967,0,36,36,45,1,,,,,,,,,,,,,,,,,,,,,,,,,,,,,,
,,,,,,,,,,,,,,,,,,,,,,,,,,,,,,,,,,,,,,,,,,,,,,,,,,,,,space,860322,23,2020-08-05_09h46.16.589,CDT_GNG_IUS12,2020.1.2,Win32,60,,,,,,,,,,,,,,,,0,1,,space,1,0.25008,0,37,37,38,1,,,,,,,,,,,,,,,,,,,,,,,,,,,,,,
,,,,,,,,,,,,,,,,,,,,,,,,,,,,,,,,,,,,,,,,,,,,,,,,,,,,,space,860322,23,2020-08-05_09h46.16.589,CDT_GNG_IUS12,2020.1.2,Win32,60,,,,,,,,,,,,,,,,0,1,,space,1,0.238815,0,38,38,34,1,,,,,,,,,,,,,,,,,,,,,,,,,,,,,,
,,,,,,,,,,,,,,,,,,,,,,,,,,,,,,,,,,,,,,,,,,,,,,,,,,,,,space,860322,23,2020-08-05_09h46.16.589,CDT_GNG_IUS12,2020.1.2,Win32,60,,,,,,,,,,,,,,,,0,1,,space,1,0.23023,0,39,39,47,1,,,,,,,,,,,,,,,,,,,,,,,,,,,,,,
,,,,,,,,,,,,,,,,,,,,,,,,,,,,,,,,,,,,,,,,,,,,,,,,,,,,,space,860322,23,2020-08-05_09h46.16.589,CDT_GNG_IUS12,2020.1.2,Win32,60,,,,,,,,,,,,,,,,0,1,,space,1,0.360595,0,40,40,33,1,,,,,,,,,,,,,,,,,,,,,,,,,,,,,,
,,,,,,,,,,,,,,,,,,,,,,,,,,,,,,,,,,,,,,,,,,,,,,,,,,,,,space,860322,23,2020-08-05_09h46.16.589,CDT_GNG_IUS12,2020.1.2,Win32,60,,,,,,,,,,,,,,,,0,1,,space,1,0.45034,0,41,41,13,1,,,,,,,,,,,,,,,,,,,,,,,,,,,,,,
,,,,,,,,,,,,,,,,,,,,,,,,,,,,,,,,,,,,,,,,,,,,,,,,,,,,,space,860322,23,2020-08-05_09h46.16.589,CDT_GNG_IUS12,2020.1.2,Win32,60,,,,,,,,,,,,,,,,0,1,,,0,,0,42,42,22,1,,,,,,,,,,,,,,,,,,,,,,,,,,,,,,
,,,,,,,,,,,,,,,,,,,,,,,,,,,,,,,,,,,,,,,,,,,,,,,,,,,,,space,860322,23,2020-08-05_09h46.16.589,CDT_GNG_IUS12,2020.1.2,Win32,60,,,,,,,,,,,,,,,,0,1,,space,1,0.002005,0,43,43,27,1,,,,,,,,,,,,,,,,,,,,,,,,,,,,,,
,,,,,,,,,,,,,,,,,,,,,,,,,,,,,,,,,,,,,,,,,,,,,,,,,,,,,space,860322,23,2020-08-05_09h46.16.589,CDT_GNG_IUS12,2020.1.2,Win32,60,,,,,,,,,,,,,,,,0,1,,space,1,0.35928,0,44,44,29,1,,,,,,,,,,,,,,,,,,,,,,,,,,,,,,
,,,,,,,,,,,,,,,,,,,,,,,,,,,,,,,,,,,,,,,,,,,,,,,,,,,,,space,860322,23,2020-08-05_09h46.16.589,CDT_GNG_IUS12,2020.1.2,Win32,60,,,,,,,,,,,,,,,,0,1,,space,1,0.31208,0,45,45,18,1,,,,,,,,,,,,,,,,,,,,,,,,,,,,,,
,,,,,,,,,,,,,,,,,,,,,,,,,,,,,,,,,,,,,,,,,,,,,,,,,,,,,,860322,23,2020-08-05_09h46.16.589,CDT_GNG_IUS12,2020.1.2,Win32,60,,,,,,,,,,,,,,,,1,0,,,1,,0,46,46,7,1,,,,,,,,,,,,,,,,,,,,,,,,,,,,,,
,,,,,,,,,,,,,,,,,,,,,,,,,,,,,,,,,,,,,,,,,,,,,,,,,,,,,space,860322,23,2020-08-05_09h46.16.589,CDT_GNG_IUS12,2020.1.2,Win32,60,,,,,,,,,,,,,,,,0,1,,space,1,0.33449,0,47,47,11,1,,,,,,,,,,,,,,,,,,,,,,,,,,,,,,
,,,,,,,,,,,,,,,,,,,,,,,,,,,,,,,,,,,,,,,,,,,,,,,,,,,,,space,860322,23,2020-08-05_09h46.16.589,CDT_GNG_IUS12,2020.1.2,Win32,60,,,,,,,,,,,,,,,,0,1,,space,1,0.38204,0,48,48,16,1,,,,,,,,,,,,,,,,,,,,,,,,,,,,,,
,,,,,,,,,,,,,,,,,,,,,,,,,,,,,,,,,,,,,,,,,,,,,,,,,,,,,,860322,23,2020-08-05_09h46.16.589,CDT_GNG_IUS12,2020.1.2,Win32,60,,,,,,,,,,,,,,,,1,0,,,1,,0,49,49,5,1,,,,,,,,,,,,,,,,,,,,,,,,,,,,,,
,,,,,,,,,,,,,,,,,,,,,,,,,,,,,,,,,,,,,,,,,,,,,,,,,,,,,,860322,23,2020-08-05_09h46.16.589,CDT_GNG_IUS12,2020.1.2,Win32,60,,,,,,,,,,,,,,,,1,0,,,1,,,,,,,0,0,0,3,1,,,,,,,,,,,,,,,,,,,,,,,,,
,,,,,,,,,,,,,,,,,,,,,,,,,,,,,,,,,,,,,,,,,,,,,,,,,,,,,space,860322,23,2020-08-05_09h46.16.589,CDT_GNG_IUS12,2020.1.2,Win32,60,,,,,,,,,,,,,,,,0,1,,space,1,0.379085,,,,,,0,1,1,11,1,,,,,,,,,,,,,,,,,,,,,,,,,
,,,,,,,,,,,,,,,,,,,,,,,,,,,,,,,,,,,,,,,,,,,,,,,,,,,,,space,860322,23,2020-08-05_09h46.16.589,CDT_GNG_IUS12,2020.1.2,Win32,60,,,,,,,,,,,,,,,,0,1,,space,1,0.349165,,,,,,0,2,2,36,1,,,,,,,,,,,,,,,,,,,,,,,,,
,,,,,,,,,,,,,,,,,,,,,,,,,,,,,,,,,,,,,,,,,,,,,,,,,,,,,space,860322,23,2020-08-05_09h46.16.589,CDT_GNG_IUS12,2020.1.2,Win32,60,,,,,,,,,,,,,,,,0,1,,space,1,0.27223,,,,,,0,3,3,25,1,,,,,,,,,,,,,,,,,,,,,,,,,
,,,,,,,,,,,,,,,,,,,,,,,,,,,,,,,,,,,,,,,,,,,,,,,,,,,,,space,860322,23,2020-08-05_09h46.16.589,CDT_GNG_IUS12,2020.1.2,Win32,60,,,,,,,,,,,,,,,,0,1,,space,1,0.268865,,,,,,0,4,4,17,1,,,,,,,,,,,,,,,,,,,,,,,,,
,,,,,,,,,,,,,,,,,,,,,,,,,,,,,,,,,,,,,,,,,,,,,,,,,,,,,,860322,23,2020-08-05_09h46.16.589,CDT_GNG_IUS12,2020.1.2,Win32,60,,,,,,,,,,,,,,,,1,0,,,1,,,,,,,0,5,5,7,1,,,,,,,,,,,,,,,,,,,,,,,,,
,,,,,,,,,,,,,,,,,,,,,,,,,,,,,,,,,,,,,,,,,,,,,,,,,,,,,space,860322,23,2020-08-05_09h46.16.589,CDT_GNG_IUS12,2020.1.2,Win32,60,,,,,,,,,,,,,,,,0,1,,space,1,0.26869,,,,,,0,6,6,42,1,,,,,,,,,,,,,,,,,,,,,,,,,
,,,,,,,,,,,,,,,,,,,,,,,,,,,,,,,,,,,,,,,,,,,,,,,,,,,,,space,860322,23,2020-08-05_09h46.16.589,CDT_GNG_IUS12,2020.1.2,Win32,60,,,,,,,,,,,,,,,,0,1,,space,1,0.27875,,,,,,0,7,7,10,1,,,,,,,,,,,,,,,,,,,,,,,,,
,,,,,,,,,,,,,,,,,,,,,,,,,,,,,,,,,,,,,,,,,,,,,,,,,,,,,space,860322,23,2020-08-05_09h46.16.589,CDT_GNG_IUS12,2020.1.2,Win32,60,,,,,,,,,,,,,,,,0,1,,space,1,0.213205,,,,,,0,8,8,22,1,,,,,,,,,,,,,,,,,,,,,,,,,
,,,,,,,,,,,,,,,,,,,,,,,,,,,,,,,,,,,,,,,,,,,,,,,,,,,,,space,860322,23,2020-08-05_09h46.16.589,CDT_GNG_IUS12,2020.1.2,Win32,60,,,,,,,,,,,,,,,,0,1,,space,1,0.264105,,,,,,0,9,9,26,1,,,,,,,,,,,,,,,,,,,,,,,,,
,,,,,,,,,,,,,,,,,,,,,,,,,,,,,,,,,,,,,,,,,,,,,,,,,,,,,space,860322,23,2020-08-05_09h46.16.589,CDT_GNG_IUS12,2020.1.2,Win32,60,,,,,,,,,,,,,,,,0,1,,space,1,0.23037,,,,,,0,10,10,40,1,,,,,,,,,,,,,,,,,,,,,,,,,
,,,,,,,,,,,,,,,,,,,,,,,,,,,,,,,,,,,,,,,,,,,,,,,,,,,,,space,860322,23,2020-08-05_09h46.16.589,CDT_GNG_IUS12,2020.1.2,Win32,60,,,,,,,,,,,,,,,,0,1,,space,1,0.2476,,,,,,0,11,11,21,1,,,,,,,,,,,,,,,,,,,,,,,,,
,,,,,,,,,,,,,,,,,,,,,,,,,,,,,,,,,,,,,,,,,,,,,,,,,,,,,space,860322,23,2020-08-05_09h46.16.589,CDT_GNG_IUS12,2020.1.2,Win32,60,,,,,,,,,,,,,,,,0,1,,space,1,0.23593,,,,,,0,12,12,44,1,,,,,,,,,,,,,,,,,,,,,,,,,
,,,,,,,,,,,,,,,,,,,,,,,,,,,,,,,,,,,,,,,,,,,,,,,,,,,,,,860322,23,2020-08-05_09h46.16.589,CDT_GNG_IUS12,2020.1.2,Win32,60,,,,,,,,,,,,,,,,1,0,,,1,,,,,,,0,13,13,5,1,,,,,,,,,,,,,,,,,,,,,,,,,
,,,,,,,,,,,,,,,,,,,,,,,,,,,,,,,,,,,,,,,,,,,,,,,,,,,,,space,860322,23,2020-08-05_09h46.16.589,CDT_GNG_IUS12,2020.1.2,Win32,60,,,,,,,,,,,,,,,,0,1,,space,1,0.29381,,,,,,0,14,14,37,1,,,,,,,,,,,,,,,,,,,,,,,,,
,,,,,,,,,,,,,,,,,,,,,,,,,,,,,,,,,,,,,,,,,,,,,,,,,,,,,space,860322,23,2020-08-05_09h46.16.589,CDT_GNG_IUS12,2020.1.2,Win32,60,,,,,,,,,,,,,,,,0,1,,space,1,0.22932,,,,,,0,15,15,12,1,,,,,,,,,,,,,,,,,,,,,,,,,
,,,,,,,,,,,,,,,,,,,,,,,,,,,,,,,,,,,,,,,,,,,,,,,,,,,,,space,860322,23,2020-08-05_09h46.16.589,CDT_GNG_IUS12,2020.1.2,Win32,60,,,,,,,,,,,,,,,,0,1,,space,1,0.20546,,,,,,0,16,16,43,1,,,,,,,,,,,,,,,,,,,,,,,,,
,,,,,,,,,,,,,,,,,,,,,,,,,,,,,,,,,,,,,,,,,,,,,,,,,,,,,space,860322,23,2020-08-05_09h46.16.589,CDT_GNG_IUS12,2020.1.2,Win32,60,,,,,,,,,,,,,,,,0,1,,space,1,0.190755,,,,,,0,17,17,35,1,,,,,,,,,,,,,,,,,,,,,,,,,
,,,,,,,,,,,,,,,,,,,,,,,,,,,,,,,,,,,,,,,,,,,,,,,,,,,,,space,860322,23,2020-08-05_09h46.16.589,CDT_GNG_IUS12,2020.1.2,Win32,60,,,,,,,,,,,,,,,,0,1,,space,1,0.239305,,,,,,0,18,18,33,1,,,,,,,,,,,,,,,,,,,,,,,,,
,,,,,,,,,,,,,,,,,,,,,,,,,,,,,,,,,,,,,,,,,,,,,,,,,,,,,space,860322,23,2020-08-05_09h46.16.589,CDT_GNG_IUS12,2020.1.2,Win32,60,,,,,,,,,,,,,,,,0,1,,space,1,0.263985,,,,,,0,19,19,34,1,,,,,,,,,,,,,,,,,,,,,,,,,
,,,,,,,,,,,,,,,,,,,,,,,,,,,,,,,,,,,,,,,,,,,,,,,,,,,,,,860322,23,2020-08-05_09h46.16.589,CDT_GNG_IUS12,2020.1.2,Win32,60,,,,,,,,,,,,,,,,1,0,,space,0,0.251205,,,,,,0,20,20,2,1,,,,,,,,,,,,,,,,,,,,,,,,,
,,,,,,,,,,,,,,,,,,,,,,,,,,,,,,,,,,,,,,,,,,,,,,,,,,,,,space,860322,23,2020-08-05_09h46.16.589,CDT_GNG_IUS12,2020.1.2,Win32,60,,,,,,,,,,,,,,,,0,1,,space,1,0.32333,,,,,,0,21,21,39,1,,,,,,,,,,,,,,,,,,,,,,,,,
,,,,,,,,,,,,,,,,,,,,,,,,,,,,,,,,,,,,,,,,,,,,,,,,,,,,,space,860322,23,2020-08-05_09h46.16.589,CDT_GNG_IUS12,2020.1.2,Win32,60,,,,,,,,,,,,,,,,0,1,,space,1,0.290415,,,,,,0,22,22,41,1,,,,,,,,,,,,,,,,,,,,,,,,,
,,,,,,,,,,,,,,,,,,,,,,,,,,,,,,,,,,,,,,,,,,,,,,,,,,,,,space,860322,23,2020-08-05_09h46.16.589,CDT_GNG_IUS12,2020.1.2,Win32,60,,,,,,,,,,,,,,,,0,1,,space,1,0.276505,,,,,,0,23,23,28,1,,,,,,,,,,,,,,,,,,,,,,,,,
,,,,,,,,,,,,,,,,,,,,,,,,,,,,,,,,,,,,,,,,,,,,,,,,,,,,,,860322,23,2020-08-05_09h46.16.589,CDT_GNG_IUS12,2020.1.2,Win32,60,,,,,,,,,,,,,,,,1,0,,,1,,,,,,,0,24,24,6,1,,,,,,,,,,,,,,,,,,,,,,,,,
,,,,,,,,,,,,,,,,,,,,,,,,,,,,,,,,,,,,,,,,,,,,,,,,,,,,,space,860322,23,2020-08-05_09h46.16.589,CDT_GNG_IUS12,2020.1.2,Win32,60,,,,,,,,,,,,,,,,0,1,,space,1,0.220805,,,,,,0,25,25,14,1,,,,,,,,,,,,,,,,,,,,,,,,,
,,,,,,,,,,,,,,,,,,,,,,,,,,,,,,,,,,,,,,,,,,,,,,,,,,,,,space,860322,23,2020-08-05_09h46.16.589,CDT_GNG_IUS12,2020.1.2,Win32,60,,,,,,,,,,,,,,,,0,1,,space,1,0.226555,,,,,,0,26,26,46,1,,,,,,,,,,,,,,,,,,,,,,,,,
,,,,,,,,,,,,,,,,,,,,,,,,,,,,,,,,,,,,,,,,,,,,,,,,,,,,,space,860322,23,2020-08-05_09h46.16.589,CDT_GNG_IUS12,2020.1.2,Win32,60,,,,,,,,,,,,,,,,0,1,,space,1,0.257165,,,,,,0,27,27,20,1,,,,,,,,,,,,,,,,,,,,,,,,,
,,,,,,,,,,,,,,,,,,,,,,,,,,,,,,,,,,,,,,,,,,,,,,,,,,,,,space,860322,23,2020-08-05_09h46.16.589,CDT_GNG_IUS12,2020.1.2,Win32,60,,,,,,,,,,,,,,,,0,1,,space,1,0.31843,,,,,,0,28,28,32,1,,,,,,,,,,,,,,,,,,,,,,,,,
,,,,,,,,,,,,,,,,,,,,,,,,,,,,,,,,,,,,,,,,,,,,,,,,,,,,,space,860322,23,2020-08-05_09h46.16.589,CDT_GNG_IUS12,2020.1.2,Win32,60,,,,,,,,,,,,,,,,0,1,,space,1,0.25501,,,,,,0,29,29,45,1,,,,,,,,,,,,,,,,,,,,,,,,,
,,,,,,,,,,,,,,,,,,,,,,,,,,,,,,,,,,,,,,,,,,,,,,,,,,,,,,860322,23,2020-08-05_09h46.16.589,CDT_GNG_IUS12,2020.1.2,Win32,60,,,,,,,,,,,,,,,,1,0,,,1,,,,,,,0,30,30,0,1,,,,,,,,,,,,,,,,,,,,,,,,,
,,,,,,,,,,,,,,,,,,,,,,,,,,,,,,,,,,,,,,,,,,,,,,,,,,,,,,860322,23,2020-08-05_09h46.16.589,CDT_GNG_IUS12,2020.1.2,Win32,60,,,,,,,,,,,,,,,,1,0,,,1,,,,,,,0,31,31,4,1,,,,,,,,,,,,,,,,,,,,,,,,,
,,,,,,,,,,,,,,,,,,,,,,,,,,,,,,,,,,,,,,,,,,,,,,,,,,,,,space,860322,23,2020-08-05_09h46.16.589,CDT_GNG_IUS12,2020.1.2,Win32,60,,,,,,,,,,,,,,,,0,1,,space,1,0.361945,,,,,,0,32,32,19,1,,,,,,,,,,,,,,,,,,,,,,,,,
,,,,,,,,,,,,,,,,,,,,,,,,,,,,,,,,,,,,,,,,,,,,,,,,,,,,,space,860322,23,2020-08-05_09h46.16.589,CDT_GNG_IUS12,2020.1.2,Win32,60,,,,,,,,,,,,,,,,0,1,,space,1,0.321405,,,,,,0,33,33,31,1,,,,,,,,,,,,,,,,,,,,,,,,,
,,,,,,,,,,,,,,,,,,,,,,,,,,,,,,,,,,,,,,,,,,,,,,,,,,,,,space,860322,23,2020-08-05_09h46.16.589,CDT_GNG_IUS12,2020.1.2,Win32,60,,,,,,,,,,,,,,,,0,1,,space,1,0.250805,,,,,,0,34,34,47,1,,,,,,,,,,,,,,,,,,,,,,,,,
,,,,,,,,,,,,,,,,,,,,,,,,,,,,,,,,,,,,,,,,,,,,,,,,,,,,,space,860322,23,2020-08-05_09h46.16.589,CDT_GNG_IUS12,2020.1.2,Win32,60,,,,,,,,,,,,,,,,0,1,,space,1,0.333905,,,,,,0,35,35,16,1,,,,,,,,,,,,,,,,,,,,,,,,,
,,,,,,,,,,,,,,,,,,,,,,,,,,,,,,,,,,,,,,,,,,,,,,,,,,,,,space,860322,23,2020-08-05_09h46.16.589,CDT_GNG_IUS12,2020.1.2,Win32,60,,,,,,,,,,,,,,,,0,1,,space,1,0.367915,,,,,,0,36,36,18,1,,,,,,,,,,,,,,,,,,,,,,,,,
,,,,,,,,,,,,,,,,,,,,,,,,,,,,,,,,,,,,,,,,,,,,,,,,,,,,,space,860322,23,2020-08-05_09h46.16.589,CDT_GNG_IUS12,2020.1.2,Win32,60,,,,,,,,,,,,,,,,0,1,,space,1,0.35012,,,,,,0,37,37,24,1,,,,,,,,,,,,,,,,,,,,,,,,,
,,,,,,,,,,,,,,,,,,,,,,,,,,,,,,,,,,,,,,,,,,,,,,,,,,,,,,860322,23,2020-08-05_09h46.16.589,CDT_GNG_IUS12,2020.1.2,Win32,60,,,,,,,,,,,,,,,,1,0,,,1,,,,,,,0,38,38,8,1,,,,,,,,,,,,,,,,,,,,,,,,,
,,,,,,,,,,,,,,,,,,,,,,,,,,,,,,,,,,,,,,,,,,,,,,,,,,,,,space,860322,23,2020-08-05_09h46.16.589,CDT_GNG_IUS12,2020.1.2,Win32,60,,,,,,,,,,,,,,,,0,1,,space,1,0.367365,,,,,,0,39,39,30,1,,,,,,,,,,,,,,,,,,,,,,,,,
,,,,,,,,,,,,,,,,,,,,,,,,,,,,,,,,,,,,,,,,,,,,,,,,,,,,,space,860322,23,2020-08-05_09h46.16.589,CDT_GNG_IUS12,2020.1.2,Win32,60,,,,,,,,,,,,,,,,0,1,,space,1,0.34267,,,,,,0,40,40,49,1,,,,,,,,,,,,,,,,,,,,,,,,,
,,,,,,,,,,,,,,,,,,,,,,,,,,,,,,,,,,,,,,,,,,,,,,,,,,,,,space,860322,23,2020-08-05_09h46.16.589,CDT_GNG_IUS12,2020.1.2,Win32,60,,,,,,,,,,,,,,,,0,1,,space,1,0.335375,,,,,,0,41,41,23,1,,,,,,,,,,,,,,,,,,,,,,,,,
,,,,,,,,,,,,,,,,,,,,,,,,,,,,,,,,,,,,,,,,,,,,,,,,,,,,,,860322,23,2020-08-05_09h46.16.589,CDT_GNG_IUS12,2020.1.2,Win32,60,,,,,,,,,,,,,,,,1,0,,,1,,,,,,,0,42,42,9,1,,,,,,,,,,,,,,,,,,,,,,,,,
,,,,,,,,,,,,,,,,,,,,,,,,,,,,,,,,,,,,,,,,,,,,,,,,,,,,,space,860322,23,2020-08-05_09h46.16.589,CDT_GNG_IUS12,2020.1.2,Win32,60,,,,,,,,,,,,,,,,0,1,,space,1,0.335965,,,,,,0,43,43,48,1,,,,,,,,,,,,,,,,,,,,,,,,,
,,,,,,,,,,,,,,,,,,,,,,,,,,,,,,,,,,,,,,,,,,,,,,,,,,,,,space,860322,23,2020-08-05_09h46.16.589,CDT_GNG_IUS12,2020.1.2,Win32,60,,,,,,,,,,,,,,,,0,1,,space,1,0.30405,,,,,,0,44,44,38,1,,,,,,,,,,,,,,,,,,,,,,,,,
,,,,,,,,,,,,,,,,,,,,,,,,,,,,,,,,,,,,,,,,,,,,,,,,,,,,,space,860322,23,2020-08-05_09h46.16.589,CDT_GNG_IUS12,2020.1.2,Win32,60,,,,,,,,,,,,,,,,0,1,,space,1,0.28206,,,,,,0,45,45,15,1,,,,,,,,,,,,,,,,,,,,,,,,,
,,,,,,,,,,,,,,,,,,,,,,,,,,,,,,,,,,,,,,,,,,,,,,,,,,,,,,860322,23,2020-08-05_09h46.16.589,CDT_GNG_IUS12,2020.1.2,Win32,60,,,,,,,,,,,,,,,,1,0,,,1,,,,,,,0,46,46,1,1,,,,,,,,,,,,,,,,,,,,,,,,,
,,,,,,,,,,,,,,,,,,,,,,,,,,,,,,,,,,,,,,,,,,,,,,,,,,,,,space,860322,23,2020-08-05_09h46.16.589,CDT_GNG_IUS12,2020.1.2,Win32,60,,,,,,,,,,,,,,,,0,1,,space,1,0.181795,,,,,,0,47,47,29,1,,,,,,,,,,,,,,,,,,,,,,,,,
,,,,,,,,,,,,,,,,,,,,,,,,,,,,,,,,,,,,,,,,,,,,,,,,,,,,,space,860322,23,2020-08-05_09h46.16.589,CDT_GNG_IUS12,2020.1.2,Win32,60,,,,,,,,,,,,,,,,0,1,,space,1,0.19247,,,,,,0,48,48,13,1,,,,,,,,,,,,,,,,,,,,,,,,,
,,,,,,,,,,,,,,,,,,,,,,,,,,,,,,,,,,,,,,,,,,,,,,,,,,,,,space,860322,23,2020-08-05_09h46.16.589,CDT_GNG_IUS12,2020.1.2,Win32,60,,,,,,,,,,,,,,,,0,1,,space,1,0.175745,,,,,,0,49,49,27,1,,,,,,,,,,,,,,,,,,,,,,,,,
,,,,,,,,,,,,,,,,,,,,,,,,,,,,,,,,,,,,,,,,,,,,,,,,,,,,,space,860322,23,2020-08-05_09h46.16.589,CDT_GNG_IUS12,2020.1.2,Win32,60,,,,,,,,,,,,,,,,0,1,,space,1,0.391415,,,,,,,,,,,0,0,0,14,1,,,,,,,,,,,,,,,,,,,,
,,,,,,,,,,,,,,,,,,,,,,,,,,,,,,,,,,,,,,,,,,,,,,,,,,,,,space,860322,23,2020-08-05_09h46.16.589,CDT_GNG_IUS12,2020.1.2,Win32,60,,,,,,,,,,,,,,,,0,1,,space,1,0.325135,,,,,,,,,,,0,1,1,21,1,,,,,,,,,,,,,,,,,,,,
,,,,,,,,,,,,,,,,,,,,,,,,,,,,,,,,,,,,,,,,,,,,,,,,,,,,,space,860322,23,2020-08-05_09h46.16.589,CDT_GNG_IUS12,2020.1.2,Win32,60,,,,,,,,,,,,,,,,0,1,,space,1,0.27065,,,,,,,,,,,0,2,2,32,1,,,,,,,,,,,,,,,,,,,,
,,,,,,,,,,,,,,,,,,,,,,,,,,,,,,,,,,,,,,,,,,,,,,,,,,,,,space,860322,23,2020-08-05_09h46.16.589,CDT_GNG_IUS12,2020.1.2,Win32,60,,,,,,,,,,,,,,,,0,1,,space,1,0.22859,,,,,,,,,,,0,3,3,31,1,,,,,,,,,,,,,,,,,,,,
,,,,,,,,,,,,,,,,,,,,,,,,,,,,,,,,,,,,,,,,,,,,,,,,,,,,,space,860322,23,2020-08-05_09h46.16.589,CDT_GNG_IUS12,2020.1.2,Win32,60,,,,,,,,,,,,,,,,0,1,,space,1,0.23249,,,,,,,,,,,0,4,4,45,1,,,,,,,,,,,,,,,,,,,,
,,,,,,,,,,,,,,,,,,,,,,,,,,,,,,,,,,,,,,,,,,,,,,,,,,,,,,860322,23,2020-08-05_09h46.16.589,CDT_GNG_IUS12,2020.1.2,Win32,60,,,,,,,,,,,,,,,,1,0,,space,0,0.20444,,,,,,,,,,,0,5,5,4,1,,,,,,,,,,,,,,,,,,,,
,,,,,,,,,,,,,,,,,,,,,,,,,,,,,,,,,,,,,,,,,,,,,,,,,,,,,space,860322,23,2020-08-05_09h46.16.589,CDT_GNG_IUS12,2020.1.2,Win32,60,,,,,,,,,,,,,,,,0,1,,space,1,0.197275,,,,,,,,,,,0,6,6,28,1,,,,,,,,,,,,,,,,,,,,
,,,,,,,,,,,,,,,,,,,,,,,,,,,,,,,,,,,,,,,,,,,,,,,,,,,,,space,860322,23,2020-08-05_09h46.16.589,CDT_GNG_IUS12,2020.1.2,Win32,60,,,,,,,,,,,,,,,,0,1,,space,1,0.22278,,,,,,,,,,,0,7,7,23,1,,,,,,,,,,,,,,,,,,,,
,,,,,,,,,,,,,,,,,,,,,,,,,,,,,,,,,,,,,,,,,,,,,,,,,,,,,,860322,23,2020-08-05_09h46.16.589,CDT_GNG_IUS12,2020.1.2,Win32,60,,,,,,,,,,,,,,,,1,0,,space,0,0.23011,,,,,,,,,,,0,8,8,3,1,,,,,,,,,,,,,,,,,,,,
,,,,,,,,,,,,,,,,,,,,,,,,,,,,,,,,,,,,,,,,,,,,,,,,,,,,,space,860322,23,2020-08-05_09h46.16.589,CDT_GNG_IUS12,2020.1.2,Win32,60,,,,,,,,,,,,,,,,0,1,,space,1,0.347765,,,,,,,,,,,0,9,9,35,1,,,,,,,,,,,,,,,,,,,,
,,,,,,,,,,,,,,,,,,,,,,,,,,,,,,,,,,,,,,,,,,,,,,,,,,,,,,860322,23,2020-08-05_09h46.16.589,CDT_GNG_IUS12,2020.1.2,Win32,60,,,,,,,,,,,,,,,,1,0,,,1,,,,,,,,,,,,0,10,10,7,1,,,,,,,,,,,,,,,,,,,,
,,,,,,,,,,,,,,,,,,,,,,,,,,,,,,,,,,,,,,,,,,,,,,,,,,,,,space,860322,23,2020-08-05_09h46.16.589,CDT_GNG_IUS12,2020.1.2,Win32,60,,,,,,,,,,,,,,,,0,1,,space,1,0.051695,,,,,,,,,,,0,11,11,18,1,,,,,,,,,,,,,,,,,,,,
,,,,,,,,,,,,,,,,,,,,,,,,,,,,,,,,,,,,,,,,,,,,,,,,,,,,,space,860322,23,2020-08-05_09h46.16.589,CDT_GNG_IUS12,2020.1.2,Win32,60,,,,,,,,,,,,,,,,0,1,,space,1,0.30153,,,,,,,,,,,0,12,12,20,1,,,,,,,,,,,,,,,,,,,,
,,,,,,,,,,,,,,,,,,,,,,,,,,,,,,,,,,,,,,,,,,,,,,,,,,,,,space,860322,23,2020-08-05_09h46.16.589,CDT_GNG_IUS12,2020.1.2,Win32,60,,,,,,,,,,,,,,,,0,1,,space,1,0.269475,,,,,,,,,,,0,13,13,49,1,,,,,,,,,,,,,,,,,,,,
,,,,,,,,,,,,,,,,,,,,,,,,,,,,,,,,,,,,,,,,,,,,,,,,,,,,,,860322,23,2020-08-05_09h46.16.589,CDT_GNG_IUS12,2020.1.2,Win32,60,,,,,,,,,,,,,,,,1,0,,space,0,0.56626,,,,,,,,,,,0,14,14,0,1,,,,,,,,,,,,,,,,,,,,
,,,,,,,,,,,,,,,,,,,,,,,,,,,,,,,,,,,,,,,,,,,,,,,,,,,,,space,860322,23,2020-08-05_09h46.16.589,CDT_GNG_IUS12,2020.1.2,Win32,60,,,,,,,,,,,,,,,,0,1,,,0,,,,,,,,,,,,0,15,15,37,1,,,,,,,,,,,,,,,,,,,,
,,,,,,,,,,,,,,,,,,,,,,,,,,,,,,,,,,,,,,,,,,,,,,,,,,,,,space,860322,23,2020-08-05_09h46.16.589,CDT_GNG_IUS12,2020.1.2,Win32,60,,,,,,,,,,,,,,,,0,1,,space,1,0.066565,,,,,,,,,,,0,16,16,43,1,,,,,,,,,,,,,,,,,,,,
,,,,,,,,,,,,,,,,,,,,,,,,,,,,,,,,,,,,,,,,,,,,,,,,,,,,,space,860322,23,2020-08-05_09h46.16.589,CDT_GNG_IUS12,2020.1.2,Win32,60,,,,,,,,,,,,,,,,0,1,,space,1,0.09731,,,,,,,,,,,0,17,17,24,1,,,,,,,,,,,,,,,,,,,,
,,,,,,,,,,,,,,,,,,,,,,,,,,,,,,,,,,,,,,,,,,,,,,,,,,,,,,860322,23,2020-08-05_09h46.16.589,CDT_GNG_IUS12,2020.1.2,Win32,60,,,,,,,,,,,,,,,,1,0,,,1,,,,,,,,,,,,0,18,18,8,1,,,,,,,,,,,,,,,,,,,,
,,,,,,,,,,,,,,,,,,,,,,,,,,,,,,,,,,,,,,,,,,,,,,,,,,,,,space,860322,23,2020-08-05_09h46.16.589,CDT_GNG_IUS12,2020.1.2,Win32,60,,,,,,,,,,,,,,,,0,1,,space,1,0.17989,,,,,,,,,,,0,19,19,27,1,,,,,,,,,,,,,,,,,,,,
,,,,,,,,,,,,,,,,,,,,,,,,,,,,,,,,,,,,,,,,,,,,,,,,,,,,,space,860322,23,2020-08-05_09h46.16.589,CDT_GNG_IUS12,2020.1.2,Win32,60,,,,,,,,,,,,,,,,0,1,,space,1,0.263045,,,,,,,,,,,0,20,20,44,1,,,,,,,,,,,,,,,,,,,,
,,,,,,,,,,,,,,,,,,,,,,,,,,,,,,,,,,,,,,,,,,,,,,,,,,,,,,860322,23,2020-08-05_09h46.16.589,CDT_GNG_IUS12,2020.1.2,Win32,60,,,,,,,,,,,,,,,,1,0,,,1,,,,,,,,,,,,0,21,21,5,1,,,,,,,,,,,,,,,,,,,,
,,,,,,,,,,,,,,,,,,,,,,,,,,,,,,,,,,,,,,,,,,,,,,,,,,,,,space,860322,23,2020-08-05_09h46.16.589,CDT_GNG_IUS12,2020.1.2,Win32,60,,,,,,,,,,,,,,,,0,1,,space,1,0.302715,,,,,,,,,,,0,22,22,13,1,,,,,,,,,,,,,,,,,,,,
,,,,,,,,,,,,,,,,,,,,,,,,,,,,,,,,,,,,,,,,,,,,,,,,,,,,,space,860322,23,2020-08-05_09h46.16.589,CDT_GNG_IUS12,2020.1.2,Win32,60,,,,,,,,,,,,,,,,0,1,,space,1,0.27518,,,,,,,,,,,0,23,23,39,1,,,,,,,,,,,,,,,,,,,,
,,,,,,,,,,,,,,,,,,,,,,,,,,,,,,,,,,,,,,,,,,,,,,,,,,,,,space,860322,23,2020-08-05_09h46.16.589,CDT_GNG_IUS12,2020.1.2,Win32,60,,,,,,,,,,,,,,,,0,1,,space,1,0.32166,,,,,,,,,,,0,24,24,40,1,,,,,,,,,,,,,,,,,,,,
,,,,,,,,,,,,,,,,,,,,,,,,,,,,,,,,,,,,,,,,,,,,,,,,,,,,,space,860322,23,2020-08-05_09h46.16.589,CDT_GNG_IUS12,2020.1.2,Win32,60,,,,,,,,,,,,,,,,0,1,,space,1,0.440815,,,,,,,,,,,0,25,25,46,1,,,,,,,,,,,,,,,,,,,,
,,,,,,,,,,,,,,,,,,,,,,,,,,,,,,,,,,,,,,,,,,,,,,,,,,,,,space,860322,23,2020-08-05_09h46.16.589,CDT_GNG_IUS12,2020.1.2,Win32,60,,,,,,,,,,,,,,,,0,1,,space,1,0.354445,,,,,,,,,,,0,26,26,15,1,,,,,,,,,,,,,,,,,,,,
,,,,,,,,,,,,,,,,,,,,,,,,,,,,,,,,,,,,,,,,,,,,,,,,,,,,,space,860322,23,2020-08-05_09h46.16.589,CDT_GNG_IUS12,2020.1.2,Win32,60,,,,,,,,,,,,,,,,0,1,,space,1,0.42396,,,,,,,,,,,0,27,27,25,1,,,,,,,,,,,,,,,,,,,,
,,,,,,,,,,,,,,,,,,,,,,,,,,,,,,,,,,,,,,,,,,,,,,,,,,,,,,860322,23,2020-08-05_09h46.16.589,CDT_GNG_IUS12,2020.1.2,Win32,60,,,,,,,,,,,,,,,,1,0,,,1,,,,,,,,,,,,0,28,28,9,1,,,,,,,,,,,,,,,,,,,,
,,,,,,,,,,,,,,,,,,,,,,,,,,,,,,,,,,,,,,,,,,,,,,,,,,,,,space,860322,23,2020-08-05_09h46.16.589,CDT_GNG_IUS12,2020.1.2,Win32,60,,,,,,,,,,,,,,,,0,1,,space,1,0.52462,,,,,,,,,,,0,29,29,11,1,,,,,,,,,,,,,,,,,,,,
,,,,,,,,,,,,,,,,,,,,,,,,,,,,,,,,,,,,,,,,,,,,,,,,,,,,,space,860322,23,2020-08-05_09h46.16.589,CDT_GNG_IUS12,2020.1.2,Win32,60,,,,,,,,,,,,,,,,0,1,,space,1,0.51398,,,,,,,,,,,0,30,30,19,1,,,,,,,,,,,,,,,,,,,,
,,,,,,,,,,,,,,,,,,,,,,,,,,,,,,,,,,,,,,,,,,,,,,,,,,,,,space,860322,23,2020-08-05_09h46.16.589,CDT_GNG_IUS12,2020.1.2,Win32,60,,,,,,,,,,,,,,,,0,1,,,0,,,,,,,,,,,,0,31,31,16,1,,,,,,,,,,,,,,,,,,,,
,,,,,,,,,,,,,,,,,,,,,,,,,,,,,,,,,,,,,,,,,,,,,,,,,,,,,,860322,23,2020-08-05_09h46.16.589,CDT_GNG_IUS12,2020.1.2,Win32,60,,,,,,,,,,,,,,,,1,0,,,1,,,,,,,,,,,,0,32,32,1,1,,,,,,,,,,,,,,,,,,,,
,,,,,,,,,,,,,,,,,,,,,,,,,,,,,,,,,,,,,,,,,,,,,,,,,,,,,,860322,23,2020-08-05_09h46.16.589,CDT_GNG_IUS12,2020.1.2,Win32,60,,,,,,,,,,,,,,,,1,0,,,1,,,,,,,,,,,,0,33,33,2,1,,,,,,,,,,,,,,,,,,,,
,,,,,,,,,,,,,,,,,,,,,,,,,,,,,,,,,,,,,,,,,,,,,,,,,,,,,space,860322,23,2020-08-05_09h46.16.589,CDT_GNG_IUS12,2020.1.2,Win32,60,,,,,,,,,,,,,,,,0,1,,space,1,0.323085,,,,,,,,,,,0,34,34,42,1,,,,,,,,,,,,,,,,,,,,
,,,,,,,,,,,,,,,,,,,,,,,,,,,,,,,,,,,,,,,,,,,,,,,,,,,,,,860322,23,2020-08-05_09h46.16.589,CDT_GNG_IUS12,2020.1.2,Win32,60,,,,,,,,,,,,,,,,1,0,,,1,,,,,,,,,,,,0,35,35,6,1,,,,,,,,,,,,,,,,,,,,
,,,,,,,,,,,,,,,,,,,,,,,,,,,,,,,,,,,,,,,,,,,,,,,,,,,,,space,860322,23,2020-08-05_09h46.16.589,CDT_GNG_IUS12,2020.1.2,Win32,60,,,,,,,,,,,,,,,,0,1,,space,1,0.241725,,,,,,,,,,,0,36,36,33,1,,,,,,,,,,,,,,,,,,,,
,,,,,,,,,,,,,,,,,,,,,,,,,,,,,,,,,,,,,,,,,,,,,,,,,,,,,space,860322,23,2020-08-05_09h46.16.589,CDT_GNG_IUS12,2020.1.2,Win32,60,,,,,,,,,,,,,,,,0,1,,space,1,0.287105,,,,,,,,,,,0,37,37,12,1,,,,,,,,,,,,,,,,,,,,
,,,,,,,,,,,,,,,,,,,,,,,,,,,,,,,,,,,,,,,,,,,,,,,,,,,,,space,860322,23,2020-08-05_09h46.16.589,CDT_GNG_IUS12,2020.1.2,Win32,60,,,,,,,,,,,,,,,,0,1,,space,1,0.270005,,,,,,,,,,,0,38,38,26,1,,,,,,,,,,,,,,,,,,,,
,,,,,,,,,,,,,,,,,,,,,,,,,,,,,,,,,,,,,,,,,,,,,,,,,,,,,space,860322,23,2020-08-05_09h46.16.589,CDT_GNG_IUS12,2020.1.2,Win32,60,,,,,,,,,,,,,,,,0,1,,space,1,0.249965,,,,,,,,,,,0,39,39,22,1,,,,,,,,,,,,,,,,,,,,
,,,,,,,,,,,,,,,,,,,,,,,,,,,,,,,,,,,,,,,,,,,,,,,,,,,,,space,860322,23,2020-08-05_09h46.16.589,CDT_GNG_IUS12,2020.1.2,Win32,60,,,,,,,,,,,,,,,,0,1,,space,1,0.249135,,,,,,,,,,,0,40,40,38,1,,,,,,,,,,,,,,,,,,,,
,,,,,,,,,,,,,,,,,,,,,,,,,,,,,,,,,,,,,,,,,,,,,,,,,,,,,space,860322,23,2020-08-05_09h46.16.589,CDT_GNG_IUS12,2020.1.2,Win32,60,,,,,,,,,,,,,,,,0,1,,space,1,0.2909,,,,,,,,,,,0,41,41,36,1,,,,,,,,,,,,,,,,,,,,
,,,,,,,,,,,,,,,,,,,,,,,,,,,,,,,,,,,,,,,,,,,,,,,,,,,,,space,860322,23,2020-08-05_09h46.16.589,CDT_GNG_IUS12,2020.1.2,Win32,60,,,,,,,,,,,,,,,,0,1,,space,1,0.282585,,,,,,,,,,,0,42,42,41,1,,,,,,,,,,,,,,,,,,,,
,,,,,,,,,,,,,,,,,,,,,,,,,,,,,,,,,,,,,,,,,,,,,,,,,,,,,space,860322,23,2020-08-05_09h46.16.589,CDT_GNG_IUS12,2020.1.2,Win32,60,,,,,,,,,,,,,,,,0,1,,space,1,0.279125,,,,,,,,,,,0,43,43,30,1,,,,,,,,,,,,,,,,,,,,
,,,,,,,,,,,,,,,,,,,,,,,,,,,,,,,,,,,,,,,,,,,,,,,,,,,,,space,860322,23,2020-08-05_09h46.16.589,CDT_GNG_IUS12,2020.1.2,Win32,60,,,,,,,,,,,,,,,,0,1,,space,1,0.26716,,,,,,,,,,,0,44,44,17,1,,,,,,,,,,,,,,,,,,,,
,,,,,,,,,,,,,,,,,,,,,,,,,,,,,,,,,,,,,,,,,,,,,,,,,,,,,space,860322,23,2020-08-05_09h46.16.589,CDT_GNG_IUS12,2020.1.2,Win32,60,,,,,,,,,,,,,,,,0,1,,space,1,0.316045,,,,,,,,,,,0,45,45,48,1,,,,,,,,,,,,,,,,,,,,
,,,,,,,,,,,,,,,,,,,,,,,,,,,,,,,,,,,,,,,,,,,,,,,,,,,,,space,860322,23,2020-08-05_09h46.16.589,CDT_GNG_IUS12,2020.1.2,Win32,60,,,,,,,,,,,,,,,,0,1,,space,1,0.266645,,,,,,,,,,,0,46,46,47,1,,,,,,,,,,,,,,,,,,,,
,,,,,,,,,,,,,,,,,,,,,,,,,,,,,,,,,,,,,,,,,,,,,,,,,,,,,space,860322,23,2020-08-05_09h46.16.589,CDT_GNG_IUS12,2020.1.2,Win32,60,,,,,,,,,,,,,,,,0,1,,space,1,0.250735,,,,,,,,,,,0,47,47,34,1,,,,,,,,,,,,,,,,,,,,
,,,,,,,,,,,,,,,,,,,,,,,,,,,,,,,,,,,,,,,,,,,,,,,,,,,,,space,860322,23,2020-08-05_09h46.16.589,CDT_GNG_IUS12,2020.1.2,Win32,60,,,,,,,,,,,,,,,,0,1,,space,1,0.31546,,,,,,,,,,,0,48,48,29,1,,,,,,,,,,,,,,,,,,,,
,,,,,,,,,,,,,,,,,,,,,,,,,,,,,,,,,,,,,,,,,,,,,,,,,,,,,space,860322,23,2020-08-05_09h46.16.589,CDT_GNG_IUS12,2020.1.2,Win32,60,,,,,,,,,,,,,,,,0,1,,space,1,0.264075,,,,,,,,,,,0,49,49,10,1,,,,,,,,,,,,,,,,,,,,
,,,,,,,,,,,,,,,,,,,,,,,,,,,,,,,,,,,,,,,,,,,,,,,,,,,,,,860322,23,2020-08-05_09h46.16.589,CDT_GNG_IUS12,2020.1.2,Win32,60,,,,,,,,,,,,,,,,,,,,,,,,,,,,,,,,,,,,,9.12037037,11.589695,0,0,0,0,1,1,"On a scale from 0 to 10, indicate your personal perception of your proficiency level for English (10 being the highest score)",,,,,,,,,,,
,,,,,,,,,,,,,,,,,,,,,,,,,,,,,,,,,,,,,,,,,,,,,,,,,,,,,,860322,23,2020-08-05_09h46.16.589,CDT_GNG_IUS12,2020.1.2,Win32,60,,,,,,,,,,,,,,,,,,,,,,,,,,,,,,,,,,,,,8.925925926,0.08655,0,1,1,1,1,2,"On a scale from 0 to 10, indicate how frequently you are exposed to English (10 being 'always', 0 being 'never')",,,,,,,,,,,
,,,,,,,,,,,,,,,,,,,,,,,,,,,,,,,,,,,,,,,,,,,,,,,,,,,,,,860322,23,2020-08-05_09h46.16.589,CDT_GNG_IUS12,2020.1.2,Win32,60,,,,,,,,,,,,,,,,,,,,,,,,,,,,,,,,,,,,,,,,,,,,,"On a scale from 0 to 10, indicate your personal perception of your proficiency level for English (10 being the highest score)",2.007407407,7.66437,0,0,0,0,1,1,Unforeseen events upset me greatly.,,
,,,,,,,,,,,,,,,,,,,,,,,,,,,,,,,,,,,,,,,,,,,,,,,,,,,,,,860322,23,2020-08-05_09h46.16.589,CDT_GNG_IUS12,2020.1.2,Win32,60,,,,,,,,,,,,,,,,,,,,,,,,,,,,,,,,,,,,,,,,,,,,,"On a scale from 0 to 10, indicate how frequently you are exposed to English (10 being 'always', 0 being 'never')",4.062962963,6.64633,0,1,1,1,1,2,It frustrates me not having all the information I need.,,
,,,,,,,,,,,,,,,,,,,,,,,,,,,,,,,,,,,,,,,,,,,,,,,,,,,,,,860322,23,2020-08-05_09h46.16.589,CDT_GNG_IUS12,2020.1.2,Win32,60,,,,,,,,,,,,,,,,,,,,,,,,,,,,,,,,,,,,,,,,,,,,,,3.014814815,6.12625,0,2,2,2,1,3,One should always look ahead so as to avoid surprises.,,
,,,,,,,,,,,,,,,,,,,,,,,,,,,,,,,,,,,,,,,,,,,,,,,,,,,,,,860322,23,2020-08-05_09h46.16.589,CDT_GNG_IUS12,2020.1.2,Win32,60,,,,,,,,,,,,,,,,,,,,,,,,,,,,,,,,,,,,,,,,,,,,,,3.085185185,6.54547,0,3,3,3,1,4,"A small, unforeseen event can spoil everything, even with the best of planning. ",,
,,,,,,,,,,,,,,,,,,,,,,,,,,,,,,,,,,,,,,,,,,,,,,,,,,,,,,860322,23,2020-08-05_09h46.16.589,CDT_GNG_IUS12,2020.1.2,Win32,60,,,,,,,,,,,,,,,,,,,,,,,,,,,,,,,,,,,,,,,,,,,,,,1.014814815,5.62145,0,4,4,4,1,5,I always want to know what the future has in store for me.,,
,,,,,,,,,,,,,,,,,,,,,,,,,,,,,,,,,,,,,,,,,,,,,,,,,,,,,,860322,23,2020-08-05_09h46.16.589,CDT_GNG_IUS12,2020.1.2,Win32,60,,,,,,,,,,,,,,,,,,,,,,,,,,,,,,,,,,,,,,,,,,,,,,1,5.020465,0,5,5,5,1,6,I can't stand being taken by surprise.,,
,,,,,,,,,,,,,,,,,,,,,,,,,,,,,,,,,,,,,,,,,,,,,,,,,,,,,,860322,23,2020-08-05_09h46.16.589,CDT_GNG_IUS12,2020.1.2,Win32,60,,,,,,,,,,,,,,,,,,,,,,,,,,,,,,,,,,,,,,,,,,,,,,2.037037037,6.558905,0,6,6,6,1,7,I should be able to organize everything in advance,,
,,,,,,,,,,,,,,,,,,,,,,,,,,,,,,,,,,,,,,,,,,,,,,,,,,,,,,860322,23,2020-08-05_09h46.16.589,CDT_GNG_IUS12,2020.1.2,Win32,60,,,,,,,,,,,,,,,,,,,,,,,,,,,,,,,,,,,,,,,,,,,,,,3.088888889,12.547755,0,7,7,7,1,8,Uncertainty keeps me from living a full life.,,
,,,,,,,,,,,,,,,,,,,,,,,,,,,,,,,,,,,,,,,,,,,,,,,,,,,,,,860322,23,2020-08-05_09h46.16.589,CDT_GNG_IUS12,2020.1.2,Win32,60,,,,,,,,,,,,,,,,,,,,,,,,,,,,,,,,,,,,,,,,,,,,,,3.037037037,6.968045,0,8,8,8,1,9,"When it's time to act, uncertainty paralyses me. ",,
,,,,,,,,,,,,,,,,,,,,,,,,,,,,,,,,,,,,,,,,,,,,,,,,,,,,,,860322,23,2020-08-05_09h46.16.589,CDT_GNG_IUS12,2020.1.2,Win32,60,,,,,,,,,,,,,,,,,,,,,,,,,,,,,,,,,,,,,,,,,,,,,,2.014814815,3.53702,0,9,9,9,1,10,"When I am uncertain, I can't function very well. ",,
,,,,,,,,,,,,,,,,,,,,,,,,,,,,,,,,,,,,,,,,,,,,,,,,,,,,,,860322,23,2020-08-05_09h46.16.589,CDT_GNG_IUS12,2020.1.2,Win32,60,,,,,,,,,,,,,,,,,,,,,,,,,,,,,,,,,,,,,,,,,,,,,,1.044444444,2.586045,0,10,10,10,1,11,The smallest doubt can stop me from acting. ,,
,,,,,,,,,,,,,,,,,,,,,,,,,,,,,,,,,,,,,,,,,,,,,,,,,,,,,,860322,23,2020-08-05_09h46.16.589,CDT_GNG_IUS12,2020.1.2,Win32,60,,,,,,,,,,,,,,,,,,,,,,,,,,,,,,,,,,,,,,,,,,,,,,1.040740741,2.392425,0,11,11,11,1,12,I must get away from all uncertain situations. ,,
,,,,,,,,,,,,,,,,,,,,,,,,,,,,,,,,,,,,,,,,,,,,,,,,,,,,,,860322,23,2020-08-05_09h46.16.589,CDT_GNG_IUS12,2020.1.2,Win32,60,,,,,,,,,,,,,,,,,,,,,,,,,,,,,,,,,,,,,,,,,,,,,,,,,,,,,,,x,15.67255
