key_resp_6.keys,key_resp_6.rt,key_resp_2.keys,key_resp_2.corr,key_resp_2.rt,CDT_trials_train.thisRepN,CDT_trials_train.thisTrialN,CDT_trials_train.thisN,CDT_trials_train.thisIndex,CDT_trials_train.ran,trialnum,condit,stimamt,stim1posx,stim1posy,stim1col,stim1opa,stim2posx,stim2posy,stim2col,stim2opa,stim3posx,stim3posy,stim3col,stim3opa,stim4posx,stim4posy,stim4col,stim4opa,stim5posx,stim5posy,stim5col,stim5opa,stim6posx,stim6posy,stim6col,stim6opa,stimsizex,stimsizey,stimdur,targetposx,targetposy,targetcol,corrAns,participant,age,date,expName,psychopyVersion,OS,frameRate,key_resp_5.keys,key_resp.keys,key_resp.corr,key_resp.rt,CDT_trials.thisRepN,CDT_trials.thisTrialN,CDT_trials.thisN,CDT_trials.thisIndex,CDT_trials.ran,trialResp_Train.keys,trialResp_Train.corr,GNGtrials_train.thisRepN,GNGtrials_train.thisTrialN,GNGtrials_train.thisN,GNGtrials_train.thisIndex,GNGtrials_train.ran,orangeOpacity,blueOpacity,trialResp_Train.rt,trialResp.keys,trialResp.corr,GNG_trials_1.thisRepN,GNG_trials_1.thisTrialN,GNG_trials_1.thisN,GNG_trials_1.thisIndex,GNG_trials_1.ran,trialResp.rt,GNG_trials_2.thisRepN,GNG_trials_2.thisTrialN,GNG_trials_2.thisN,GNG_trials_2.thisIndex,GNG_trials_2.ran,GNG_trials_3.thisRepN,GNG_trials_3.thisTrialN,GNG_trials_3.thisN,GNG_trials_3.thisIndex,GNG_trials_3.ran,slider_2.response,slider_2.rt,engprof_trials.thisRepN,engprof_trials.thisTrialN,engprof_trials.thisN,engprof_trials.thisIndex,engprof_trials.ran,qpnumber,qproficiency,slider.response,slider.rt,IUS12_trials.thisRepN,IUS12_trials.thisTrialN,IUS12_trials.thisN,IUS12_trials.thisIndex,IUS12_trials.ran,qnumber,qenglish,key_resp_end.keys,key_resp_end.rt
y,6.472665,k,1,6.779795,0,0,0,0,1,1,same,4,0.273779233,-0.054755847,black,1,-0.16426754,-0.273779233,magenta,1,-0.16426754,0.16426754,orange,1,0.16426754,0.054755847,yellow,1,0.16426754,-0.054755847,cyan,0,-0.054755847,-0.16426754,blue,0,0.05,0.05,0.15,-0.16426754,0.16426754,orange,k,948980,24,2020-08-14_00h09.27.514,CDT_GNG_IUS12,2020.1.2,Win32,60,,,,,,,,,,,,,,,,,,,,,,,,,,,,,,,,,,,,,,,,,,,,,,,,,,,,,,,,,
,,k,0,2.212075,0,1,1,1,1,2,different,4,0.054755847,-0.054755847,orange,1,-0.273779233,0.273779233,magenta,1,0.273779233,0.16426754,yellow,1,-0.273779233,-0.16426754,blue,1,0.273779233,-0.054755847,red,0,-0.273779233,0.054755847,cyan,0,0.05,0.05,0.15,-0.273779233,-0.16426754,black,l,948980,24,2020-08-14_00h09.27.514,CDT_GNG_IUS12,2020.1.2,Win32,60,,,,,,,,,,,,,,,,,,,,,,,,,,,,,,,,,,,,,,,,,,,,,,,,,,,,,,,,,
,,l,0,1.27022,0,2,2,2,1,3,same,6,-0.054755847,0.273779233,green,1,0.273779233,-0.273779233,magenta,1,0.273779233,0.16426754,cyan,1,-0.054755847,-0.054755847,black,1,-0.273779233,0.16426754,orange,1,0.16426754,-0.054755847,blue,1,0.05,0.05,0.15,-0.054755847,0.273779233,green,k,948980,24,2020-08-14_00h09.27.514,CDT_GNG_IUS12,2020.1.2,Win32,60,,,,,,,,,,,,,,,,,,,,,,,,,,,,,,,,,,,,,,,,,,,,,,,,,,,,,,,,,
,,k,0,2.35683,0,3,3,3,1,4,different,6,0.16426754,-0.054755847,orange,1,-0.054755847,0.273779233,red,1,0.273779233,0.273779233,green,1,-0.054755847,-0.273779233,yellow,1,0.273779233,-0.054755847,blue,1,-0.16426754,0.16426754,black,1,0.05,0.05,0.15,0.273779233,0.273779233,cyan,l,948980,24,2020-08-14_00h09.27.514,CDT_GNG_IUS12,2020.1.2,Win32,60,,,,,,,,,,,,,,,,,,,,,,,,,,,,,,,,,,,,,,,,,,,,,,,,,,,,,,,,,
,,,,,,,,,,120,different,6,0.16426754,-0.054755847,blue,1,-0.16426754,-0.273779233,cyan,1,0.16426754,0.16426754,magenta,1,-0.273779233,0.273779233,black,1,0.273779233,-0.16426754,green,1,-0.273779233,-0.16426754,orange,1,0.05,0.05,0.15,0.16426754,0.16426754,yellow,l,948980,24,2020-08-14_00h09.27.514,CDT_GNG_IUS12,2020.1.2,Win32,60,,l,1,1.18681,0,0,0,119,1,,,,,,,,,,,,,,,,,,,,,,,,,,,,,,,,,,,,,,,,,,,,,,,,
,,,,,,,,,,94,different,6,0.273779233,-0.273779233,green,1,-0.16426754,-0.054755847,black,1,-0.273779233,0.16426754,blue,1,0.273779233,0.054755847,cyan,1,0.16426754,-0.16426754,magenta,1,-0.054755847,-0.054755847,orange,1,0.05,0.05,0.15,0.273779233,-0.273779233,magenta,l,948980,24,2020-08-14_00h09.27.514,CDT_GNG_IUS12,2020.1.2,Win32,60,,l,1,2.22506,0,1,1,93,1,,,,,,,,,,,,,,,,,,,,,,,,,,,,,,,,,,,,,,,,,,,,,,,,
,,,,,,,,,,57,different,4,-0.273779233,-0.054755847,yellow,1,0.16426754,-0.054755847,green,1,-0.273779233,0.16426754,red,1,0.273779233,0.054755847,black,1,-0.16426754,-0.054755847,orange,0,0.054755847,-0.16426754,magenta,0,0.05,0.05,0.15,0.16426754,-0.054755847,orange,l,948980,24,2020-08-14_00h09.27.514,CDT_GNG_IUS12,2020.1.2,Win32,60,,l,1,1.222685,0,2,2,56,1,,,,,,,,,,,,,,,,,,,,,,,,,,,,,,,,,,,,,,,,,,,,,,,,
,,,,,,,,,,35,different,4,-0.054755847,-0.054755847,black,1,0.054755847,0.273779233,magenta,1,-0.273779233,0.054755847,blue,1,0.273779233,-0.054755847,red,1,-0.054755847,-0.16426754,cyan,0,0.054755847,0.054755847,yellow,0,0.05,0.05,0.15,0.054755847,0.273779233,cyan,l,948980,24,2020-08-14_00h09.27.514,CDT_GNG_IUS12,2020.1.2,Win32,60,,l,1,0.93322,0,3,3,34,1,,,,,,,,,,,,,,,,,,,,,,,,,,,,,,,,,,,,,,,,,,,,,,,,
,,,,,,,,,,47,different,4,-0.16426754,-0.054755847,orange,1,0.273779233,0.054755847,black,1,-0.16426754,0.16426754,red,1,0.273779233,-0.16426754,blue,1,-0.054755847,-0.273779233,green,0,0.16426754,0.16426754,yellow,0,0.05,0.05,0.15,0.273779233,0.054755847,red,l,948980,24,2020-08-14_00h09.27.514,CDT_GNG_IUS12,2020.1.2,Win32,60,,l,1,0.78562,0,4,4,46,1,,,,,,,,,,,,,,,,,,,,,,,,,,,,,,,,,,,,,,,,,,,,,,,,
,,,,,,,,,,40,different,4,-0.273779233,-0.273779233,magenta,1,0.054755847,-0.16426754,yellow,1,-0.16426754,0.054755847,red,1,0.273779233,0.273779233,orange,1,-0.054755847,-0.054755847,cyan,0,0.16426754,-0.16426754,green,0,0.05,0.05,0.15,0.273779233,0.273779233,black,l,948980,24,2020-08-14_00h09.27.514,CDT_GNG_IUS12,2020.1.2,Win32,60,,l,1,0.83352,0,5,5,39,1,,,,,,,,,,,,,,,,,,,,,,,,,,,,,,,,,,,,,,,,,,,,,,,,
,,,,,,,,,,77,same,6,0.273779233,0.273779233,black,1,-0.273779233,-0.16426754,red,1,0.16426754,-0.054755847,magenta,1,-0.054755847,0.16426754,cyan,1,0.16426754,0.273779233,orange,1,-0.16426754,-0.273779233,blue,1,0.05,0.05,0.15,-0.273779233,-0.16426754,red,k,948980,24,2020-08-14_00h09.27.514,CDT_GNG_IUS12,2020.1.2,Win32,60,,k,1,0.565505,0,6,6,76,1,,,,,,,,,,,,,,,,,,,,,,,,,,,,,,,,,,,,,,,,,,,,,,,,
,,,,,,,,,,80,same,6,-0.273779233,0.16426754,orange,1,0.054755847,-0.273779233,yellow,1,0.054755847,0.273779233,green,1,-0.16426754,-0.273779233,red,1,-0.16426754,0.273779233,blue,1,0.273779233,-0.16426754,black,1,0.05,0.05,0.15,0.054755847,-0.273779233,yellow,k,948980,24,2020-08-14_00h09.27.514,CDT_GNG_IUS12,2020.1.2,Win32,60,,l,0,1.647335,0,7,7,79,1,,,,,,,,,,,,,,,,,,,,,,,,,,,,,,,,,,,,,,,,,,,,,,,,
,,,,,,,,,,100,different,6,0.273779233,0.16426754,blue,1,-0.054755847,0.054755847,magenta,1,-0.273779233,-0.054755847,orange,1,0.273779233,-0.273779233,red,1,0.16426754,0.054755847,green,1,-0.273779233,0.054755847,yellow,1,0.05,0.05,0.15,0.273779233,0.16426754,orange,l,948980,24,2020-08-14_00h09.27.514,CDT_GNG_IUS12,2020.1.2,Win32,60,,l,1,1.05952,0,8,8,99,1,,,,,,,,,,,,,,,,,,,,,,,,,,,,,,,,,,,,,,,,,,,,,,,,
,,,,,,,,,,64,same,6,0.16426754,0.273779233,black,1,-0.16426754,-0.16426754,orange,1,0.16426754,-0.16426754,red,1,-0.273779233,0.054755847,magenta,1,0.054755847,0.16426754,cyan,1,-0.054755847,-0.16426754,yellow,1,0.05,0.05,0.15,0.16426754,0.273779233,black,k,948980,24,2020-08-14_00h09.27.514,CDT_GNG_IUS12,2020.1.2,Win32,60,,l,0,1.189245,0,9,9,63,1,,,,,,,,,,,,,,,,,,,,,,,,,,,,,,,,,,,,,,,,,,,,,,,,
,,,,,,,,,,56,different,4,0.16426754,0.054755847,red,1,-0.054755847,0.16426754,orange,1,0.16426754,-0.16426754,black,1,-0.273779233,-0.054755847,yellow,1,0.16426754,0.273779233,blue,0,-0.054755847,0.273779233,magenta,0,0.05,0.05,0.15,-0.273779233,-0.054755847,green,l,948980,24,2020-08-14_00h09.27.514,CDT_GNG_IUS12,2020.1.2,Win32,60,,l,1,1.35735,0,10,10,55,1,,,,,,,,,,,,,,,,,,,,,,,,,,,,,,,,,,,,,,,,,,,,,,,,
,,,,,,,,,,71,same,6,-0.054755847,-0.16426754,orange,1,0.273779233,0.054755847,green,1,0.16426754,-0.16426754,yellow,1,-0.054755847,0.054755847,blue,1,-0.054755847,-0.273779233,black,1,0.054755847,0.16426754,cyan,1,0.05,0.05,0.15,-0.054755847,0.054755847,blue,k,948980,24,2020-08-14_00h09.27.514,CDT_GNG_IUS12,2020.1.2,Win32,60,,k,1,0.62732,0,11,11,70,1,,,,,,,,,,,,,,,,,,,,,,,,,,,,,,,,,,,,,,,,,,,,,,,,
,,,,,,,,,,84,same,6,-0.273779233,-0.16426754,black,1,0.273779233,0.273779233,blue,1,-0.054755847,0.054755847,red,1,0.16426754,-0.054755847,orange,1,-0.16426754,-0.16426754,cyan,1,0.16426754,0.16426754,magenta,1,0.05,0.05,0.15,-0.16426754,-0.16426754,cyan,k,948980,24,2020-08-14_00h09.27.514,CDT_GNG_IUS12,2020.1.2,Win32,60,,l,0,0.94164,0,12,12,83,1,,,,,,,,,,,,,,,,,,,,,,,,,,,,,,,,,,,,,,,,,,,,,,,,
,,,,,,,,,,87,same,6,0.273779233,0.16426754,green,1,-0.16426754,-0.054755847,black,1,-0.054755847,0.054755847,cyan,1,0.273779233,-0.054755847,blue,1,0.054755847,0.054755847,yellow,1,-0.273779233,-0.273779233,red,1,0.05,0.05,0.15,-0.273779233,-0.273779233,red,k,948980,24,2020-08-14_00h09.27.514,CDT_GNG_IUS12,2020.1.2,Win32,60,,k,1,1.27007,0,13,13,86,1,,,,,,,,,,,,,,,,,,,,,,,,,,,,,,,,,,,,,,,,,,,,,,,,
,,,,,,,,,,11,same,4,0.273779233,0.16426754,black,1,-0.054755847,0.273779233,cyan,1,0.16426754,-0.054755847,blue,1,-0.273779233,-0.16426754,orange,1,0.054755847,0.273779233,magenta,0,-0.273779233,0.054755847,green,0,0.05,0.05,0.15,0.273779233,0.16426754,black,k,948980,24,2020-08-14_00h09.27.514,CDT_GNG_IUS12,2020.1.2,Win32,60,,l,0,2.840085,0,14,14,10,1,,,,,,,,,,,,,,,,,,,,,,,,,,,,,,,,,,,,,,,,,,,,,,,,
,,,,,,,,,,75,same,6,0.16426754,0.273779233,magenta,1,-0.273779233,-0.16426754,green,1,-0.273779233,0.16426754,yellow,1,0.054755847,-0.054755847,red,1,0.273779233,0.054755847,blue,1,-0.16426754,-0.054755847,cyan,1,0.05,0.05,0.15,0.054755847,-0.054755847,red,k,948980,24,2020-08-14_00h09.27.514,CDT_GNG_IUS12,2020.1.2,Win32,60,,l,0,1.708235,0,15,15,74,1,,,,,,,,,,,,,,,,,,,,,,,,,,,,,,,,,,,,,,,,,,,,,,,,
,,,,,,,,,,48,different,4,0.16426754,0.273779233,cyan,1,-0.054755847,-0.273779233,magenta,1,0.16426754,-0.054755847,orange,1,-0.273779233,0.273779233,blue,1,0.273779233,0.16426754,red,0,-0.054755847,-0.16426754,green,0,0.05,0.05,0.15,0.16426754,-0.054755847,red,l,948980,24,2020-08-14_00h09.27.514,CDT_GNG_IUS12,2020.1.2,Win32,60,,l,1,1.01132,0,16,16,47,1,,,,,,,,,,,,,,,,,,,,,,,,,,,,,,,,,,,,,,,,,,,,,,,,
,,,,,,,,,,59,different,4,0.16426754,-0.16426754,red,1,-0.054755847,-0.16426754,cyan,1,0.054755847,0.16426754,yellow,1,-0.16426754,0.273779233,green,1,0.16426754,-0.054755847,orange,0,-0.16426754,-0.054755847,black,0,0.05,0.05,0.15,-0.16426754,0.273779233,black,l,948980,24,2020-08-14_00h09.27.514,CDT_GNG_IUS12,2020.1.2,Win32,60,,l,1,0.94451,0,17,17,58,1,,,,,,,,,,,,,,,,,,,,,,,,,,,,,,,,,,,,,,,,,,,,,,,,
,,,,,,,,,,112,different,6,-0.273779233,-0.16426754,magenta,1,-0.054755847,0.054755847,orange,1,0.054755847,0.273779233,cyan,1,0.16426754,-0.273779233,yellow,1,-0.273779233,-0.273779233,black,1,-0.16426754,0.054755847,red,1,0.05,0.05,0.15,-0.16426754,0.054755847,orange,l,948980,24,2020-08-14_00h09.27.514,CDT_GNG_IUS12,2020.1.2,Win32,60,,k,0,1.42533,0,18,18,111,1,,,,,,,,,,,,,,,,,,,,,,,,,,,,,,,,,,,,,,,,,,,,,,,,
,,,,,,,,,,63,same,6,-0.273779233,0.273779233,red,1,-0.273779233,-0.16426754,orange,1,0.054755847,-0.273779233,black,1,0.16426754,0.16426754,cyan,1,-0.054755847,0.054755847,blue,1,-0.273779233,-0.054755847,magenta,1,0.05,0.05,0.15,-0.273779233,-0.054755847,magenta,k,948980,24,2020-08-14_00h09.27.514,CDT_GNG_IUS12,2020.1.2,Win32,60,,l,0,0.877095,0,19,19,62,1,,,,,,,,,,,,,,,,,,,,,,,,,,,,,,,,,,,,,,,,,,,,,,,,
,,,,,,,,,,91,different,6,-0.054755847,0.054755847,green,1,0.054755847,-0.16426754,cyan,1,-0.054755847,-0.054755847,black,1,0.16426754,0.273779233,yellow,1,-0.273779233,0.273779233,magenta,1,0.16426754,-0.054755847,red,1,0.05,0.05,0.15,0.16426754,-0.054755847,green,l,948980,24,2020-08-14_00h09.27.514,CDT_GNG_IUS12,2020.1.2,Win32,60,,l,1,1.09383,0,20,20,90,1,,,,,,,,,,,,,,,,,,,,,,,,,,,,,,,,,,,,,,,,,,,,,,,,
,,,,,,,,,,66,same,6,0.273779233,-0.273779233,cyan,1,-0.273779233,-0.054755847,black,1,-0.273779233,0.054755847,yellow,1,0.273779233,0.16426754,green,1,0.054755847,-0.16426754,orange,1,-0.273779233,-0.16426754,magenta,1,0.05,0.05,0.15,0.273779233,0.16426754,green,k,948980,24,2020-08-14_00h09.27.514,CDT_GNG_IUS12,2020.1.2,Win32,60,,l,0,1.42234,0,21,21,65,1,,,,,,,,,,,,,,,,,,,,,,,,,,,,,,,,,,,,,,,,,,,,,,,,
,,,,,,,,,,99,different,6,0.054755847,0.16426754,orange,1,0.16426754,-0.16426754,yellow,1,-0.16426754,0.273779233,red,1,-0.273779233,-0.054755847,magenta,1,0.16426754,0.054755847,black,1,0.054755847,-0.054755847,green,1,0.05,0.05,0.15,-0.16426754,0.273779233,blue,l,948980,24,2020-08-14_00h09.27.514,CDT_GNG_IUS12,2020.1.2,Win32,60,,l,1,0.847795,0,22,22,98,1,,,,,,,,,,,,,,,,,,,,,,,,,,,,,,,,,,,,,,,,,,,,,,,,
,,,,,,,,,,28,same,4,0.16426754,-0.273779233,yellow,1,-0.054755847,0.16426754,black,1,0.16426754,0.054755847,cyan,1,-0.273779233,-0.16426754,blue,1,0.273779233,-0.273779233,orange,0,-0.054755847,0.054755847,magenta,0,0.05,0.05,0.15,-0.054755847,0.16426754,black,k,948980,24,2020-08-14_00h09.27.514,CDT_GNG_IUS12,2020.1.2,Win32,60,,k,1,0.702595,0,23,23,27,1,,,,,,,,,,,,,,,,,,,,,,,,,,,,,,,,,,,,,,,,,,,,,,,,
,,,,,,,,,,17,same,4,0.16426754,0.273779233,yellow,1,-0.054755847,0.16426754,orange,1,0.273779233,-0.054755847,cyan,1,-0.273779233,-0.054755847,green,1,0.16426754,0.16426754,blue,0,-0.054755847,0.273779233,magenta,0,0.05,0.05,0.15,0.16426754,0.273779233,yellow,k,948980,24,2020-08-14_00h09.27.514,CDT_GNG_IUS12,2020.1.2,Win32,60,,l,0,1.0716,0,24,24,16,1,,,,,,,,,,,,,,,,,,,,,,,,,,,,,,,,,,,,,,,,,,,,,,,,
,,,,,,,,,,96,different,6,-0.16426754,-0.16426754,green,1,-0.16426754,0.054755847,black,1,0.054755847,0.16426754,cyan,1,0.16426754,-0.273779233,yellow,1,-0.273779233,-0.273779233,blue,1,-0.054755847,0.054755847,red,1,0.05,0.05,0.15,-0.16426754,0.054755847,magenta,l,948980,24,2020-08-14_00h09.27.514,CDT_GNG_IUS12,2020.1.2,Win32,60,,l,1,1.470195,0,25,25,95,1,,,,,,,,,,,,,,,,,,,,,,,,,,,,,,,,,,,,,,,,,,,,,,,,
,,,,,,,,,,72,same,6,0.273779233,-0.16426754,blue,1,0.16426754,0.273779233,yellow,1,-0.16426754,0.273779233,magenta,1,-0.273779233,-0.054755847,orange,1,0.054755847,-0.16426754,cyan,1,0.273779233,0.054755847,black,1,0.05,0.05,0.15,-0.16426754,0.273779233,magenta,k,948980,24,2020-08-14_00h09.27.514,CDT_GNG_IUS12,2020.1.2,Win32,60,,k,1,1.261175,0,26,26,71,1,,,,,,,,,,,,,,,,,,,,,,,,,,,,,,,,,,,,,,,,,,,,,,,,
,,,,,,,,,,117,different,6,-0.054755847,0.054755847,black,1,0.054755847,0.273779233,magenta,1,-0.273779233,-0.273779233,yellow,1,0.054755847,-0.16426754,blue,1,-0.16426754,0.054755847,cyan,1,0.054755847,0.054755847,red,1,0.05,0.05,0.15,-0.16426754,0.054755847,black,l,948980,24,2020-08-14_00h09.27.514,CDT_GNG_IUS12,2020.1.2,Win32,60,,l,1,1.68434,0,27,27,116,1,,,,,,,,,,,,,,,,,,,,,,,,,,,,,,,,,,,,,,,,,,,,,,,,
,,,,,,,,,,18,same,4,-0.054755847,0.273779233,black,1,-0.16426754,-0.16426754,cyan,1,0.054755847,0.16426754,red,1,0.273779233,-0.273779233,magenta,1,-0.16426754,0.273779233,orange,0,-0.054755847,-0.273779233,green,0,0.05,0.05,0.15,0.273779233,-0.273779233,magenta,k,948980,24,2020-08-14_00h09.27.514,CDT_GNG_IUS12,2020.1.2,Win32,60,,l,0,1.56982,0,28,28,17,1,,,,,,,,,,,,,,,,,,,,,,,,,,,,,,,,,,,,,,,,,,,,,,,,
,,,,,,,,,,23,same,4,0.273779233,-0.16426754,yellow,1,0.054755847,0.273779233,red,1,-0.054755847,0.054755847,black,1,-0.273779233,-0.054755847,orange,1,0.273779233,-0.054755847,green,0,0.273779233,0.054755847,magenta,0,0.05,0.05,0.15,-0.054755847,0.054755847,black,k,948980,24,2020-08-14_00h09.27.514,CDT_GNG_IUS12,2020.1.2,Win32,60,,k,1,1.289155,0,29,29,22,1,,,,,,,,,,,,,,,,,,,,,,,,,,,,,,,,,,,,,,,,,,,,,,,,
,,,,,,,,,,15,same,4,0.054755847,-0.273779233,yellow,1,-0.273779233,-0.054755847,cyan,1,0.273779233,0.16426754,green,1,-0.16426754,0.16426754,blue,1,0.273779233,-0.054755847,magenta,0,-0.16426754,-0.054755847,orange,0,0.05,0.05,0.15,-0.273779233,-0.054755847,cyan,k,948980,24,2020-08-14_00h09.27.514,CDT_GNG_IUS12,2020.1.2,Win32,60,,l,0,1.395975,0,30,30,14,1,,,,,,,,,,,,,,,,,,,,,,,,,,,,,,,,,,,,,,,,,,,,,,,,
,,,,,,,,,,55,different,4,0.273779233,0.054755847,yellow,1,0.054755847,-0.16426754,green,1,-0.273779233,-0.16426754,orange,1,-0.273779233,0.273779233,blue,1,0.273779233,0.273779233,red,0,0.273779233,-0.16426754,cyan,0,0.05,0.05,0.15,0.054755847,-0.16426754,red,l,948980,24,2020-08-14_00h09.27.514,CDT_GNG_IUS12,2020.1.2,Win32,60,,l,1,0.94817,0,31,31,54,1,,,,,,,,,,,,,,,,,,,,,,,,,,,,,,,,,,,,,,,,,,,,,,,,
,,,,,,,,,,103,different,6,-0.273779233,-0.16426754,black,1,0.273779233,-0.054755847,cyan,1,0.054755847,0.273779233,magenta,1,-0.054755847,0.16426754,orange,1,-0.16426754,-0.16426754,green,1,0.273779233,-0.16426754,red,1,0.05,0.05,0.15,-0.273779233,-0.16426754,blue,l,948980,24,2020-08-14_00h09.27.514,CDT_GNG_IUS12,2020.1.2,Win32,60,,l,1,2.15696,0,32,32,102,1,,,,,,,,,,,,,,,,,,,,,,,,,,,,,,,,,,,,,,,,,,,,,,,,
,,,,,,,,,,62,same,6,0.054755847,-0.054755847,yellow,1,-0.273779233,-0.16426754,green,1,0.273779233,0.054755847,orange,1,-0.16426754,0.054755847,cyan,1,0.054755847,-0.273779233,red,1,-0.054755847,-0.054755847,blue,1,0.05,0.05,0.15,0.054755847,-0.054755847,yellow,k,948980,24,2020-08-14_00h09.27.514,CDT_GNG_IUS12,2020.1.2,Win32,60,,k,1,1.099545,0,33,33,61,1,,,,,,,,,,,,,,,,,,,,,,,,,,,,,,,,,,,,,,,,,,,,,,,,
,,,,,,,,,,21,same,4,0.273779233,0.273779233,black,1,-0.273779233,-0.273779233,blue,1,0.054755847,-0.16426754,yellow,1,-0.273779233,0.054755847,cyan,1,0.16426754,0.273779233,magenta,0,-0.054755847,-0.054755847,green,0,0.05,0.05,0.15,0.273779233,0.273779233,black,k,948980,24,2020-08-14_00h09.27.514,CDT_GNG_IUS12,2020.1.2,Win32,60,,l,0,0.85176,0,34,34,20,1,,,,,,,,,,,,,,,,,,,,,,,,,,,,,,,,,,,,,,,,,,,,,,,,
,,,,,,,,,,36,different,4,-0.16426754,-0.054755847,cyan,1,0.16426754,0.054755847,red,1,0.16426754,-0.054755847,black,1,-0.273779233,0.273779233,orange,1,-0.054755847,-0.054755847,yellow,0,0.273779233,0.273779233,green,0,0.05,0.05,0.15,0.16426754,-0.054755847,orange,l,948980,24,2020-08-14_00h09.27.514,CDT_GNG_IUS12,2020.1.2,Win32,60,,l,1,5.2107,0,35,35,35,1,,,,,,,,,,,,,,,,,,,,,,,,,,,,,,,,,,,,,,,,,,,,,,,,
,,,,,,,,,,93,different,6,-0.16426754,0.16426754,red,1,0.054755847,-0.054755847,black,1,-0.054755847,-0.16426754,blue,1,0.054755847,0.273779233,magenta,1,-0.054755847,0.054755847,orange,1,0.16426754,-0.054755847,cyan,1,0.05,0.05,0.15,-0.054755847,-0.16426754,black,l,948980,24,2020-08-14_00h09.27.514,CDT_GNG_IUS12,2020.1.2,Win32,60,,k,0,2.06903,0,36,36,92,1,,,,,,,,,,,,,,,,,,,,,,,,,,,,,,,,,,,,,,,,,,,,,,,,
,,,,,,,,,,107,different,6,0.273779233,0.16426754,cyan,1,-0.16426754,-0.273779233,magenta,1,-0.054755847,0.054755847,black,1,0.16426754,-0.054755847,blue,1,0.16426754,0.054755847,green,1,-0.273779233,-0.16426754,yellow,1,0.05,0.05,0.15,0.16426754,0.054755847,blue,l,948980,24,2020-08-14_00h09.27.514,CDT_GNG_IUS12,2020.1.2,Win32,60,,l,1,5.54612,0,37,37,106,1,,,,,,,,,,,,,,,,,,,,,,,,,,,,,,,,,,,,,,,,,,,,,,,,
,,,,,,,,,,3,same,4,-0.054755847,-0.054755847,yellow,1,-0.054755847,0.054755847,cyan,1,0.16426754,-0.273779233,black,1,0.273779233,0.273779233,magenta,1,-0.054755847,-0.273779233,orange,0,-0.273779233,0.054755847,green,0,0.05,0.05,0.15,0.273779233,0.273779233,magenta,k,948980,24,2020-08-14_00h09.27.514,CDT_GNG_IUS12,2020.1.2,Win32,60,,l,0,3.1555,0,38,38,2,1,,,,,,,,,,,,,,,,,,,,,,,,,,,,,,,,,,,,,,,,,,,,,,,,
,,,,,,,,,,106,different,6,0.054755847,-0.16426754,blue,1,-0.273779233,-0.273779233,magenta,1,0.273779233,0.273779233,yellow,1,-0.273779233,0.054755847,orange,1,0.054755847,-0.054755847,green,1,-0.054755847,-0.16426754,black,1,0.05,0.05,0.15,0.054755847,-0.054755847,cyan,l,948980,24,2020-08-14_00h09.27.514,CDT_GNG_IUS12,2020.1.2,Win32,60,,k,0,2.55597,0,39,39,105,1,,,,,,,,,,,,,,,,,,,,,,,,,,,,,,,,,,,,,,,,,,,,,,,,
,,,,,,,,,,104,different,6,0.054755847,-0.16426754,magenta,1,0.273779233,0.273779233,yellow,1,-0.273779233,0.273779233,blue,1,-0.16426754,-0.054755847,cyan,1,0.16426754,-0.054755847,orange,1,0.273779233,0.16426754,green,1,0.05,0.05,0.15,0.054755847,-0.16426754,cyan,l,948980,24,2020-08-14_00h09.27.514,CDT_GNG_IUS12,2020.1.2,Win32,60,,l,1,107.569895,0,40,40,103,1,,,,,,,,,,,,,,,,,,,,,,,,,,,,,,,,,,,,,,,,,,,,,,,,
,,,,,,,,,,76,same,6,0.16426754,0.054755847,cyan,1,0.273779233,-0.273779233,red,1,-0.054755847,-0.273779233,magenta,1,-0.054755847,0.16426754,yellow,1,0.054755847,0.273779233,blue,1,0.054755847,-0.273779233,green,1,0.05,0.05,0.15,0.16426754,0.054755847,cyan,k,948980,24,2020-08-14_00h09.27.514,CDT_GNG_IUS12,2020.1.2,Win32,60,,l,0,11.692555,0,41,41,75,1,,,,,,,,,,,,,,,,,,,,,,,,,,,,,,,,,,,,,,,,,,,,,,,,
,,,,,,,,,,68,same,6,0.16426754,-0.054755847,blue,1,-0.054755847,-0.16426754,orange,1,-0.16426754,0.054755847,red,1,0.16426754,0.273779233,magenta,1,0.054755847,-0.054755847,black,1,-0.273779233,-0.273779233,yellow,1,0.05,0.05,0.15,-0.054755847,-0.16426754,orange,k,948980,24,2020-08-14_00h09.27.514,CDT_GNG_IUS12,2020.1.2,Win32,60,,l,0,1.11096,0,42,42,67,1,,,,,,,,,,,,,,,,,,,,,,,,,,,,,,,,,,,,,,,,,,,,,,,,
,,,,,,,,,,9,same,4,-0.16426754,0.054755847,cyan,1,0.16426754,-0.16426754,magenta,1,-0.273779233,-0.054755847,black,1,0.054755847,0.054755847,green,1,-0.273779233,0.16426754,orange,0,0.273779233,-0.273779233,red,0,0.05,0.05,0.15,-0.273779233,-0.054755847,black,k,948980,24,2020-08-14_00h09.27.514,CDT_GNG_IUS12,2020.1.2,Win32,60,,k,1,1.46622,0,43,43,8,1,,,,,,,,,,,,,,,,,,,,,,,,,,,,,,,,,,,,,,,,,,,,,,,,
,,,,,,,,,,82,same,6,-0.054755847,-0.16426754,red,1,0.273779233,-0.054755847,cyan,1,0.16426754,0.273779233,blue,1,-0.054755847,0.054755847,black,1,-0.16426754,-0.16426754,yellow,1,0.273779233,-0.16426754,green,1,0.05,0.05,0.15,-0.16426754,-0.16426754,yellow,k,948980,24,2020-08-14_00h09.27.514,CDT_GNG_IUS12,2020.1.2,Win32,60,,k,1,1.748215,0,44,44,81,1,,,,,,,,,,,,,,,,,,,,,,,,,,,,,,,,,,,,,,,,,,,,,,,,
,,,,,,,,,,29,same,4,0.273779233,0.054755847,magenta,1,-0.054755847,0.273779233,cyan,1,0.16426754,-0.054755847,green,1,-0.16426754,-0.054755847,black,1,0.273779233,0.16426754,orange,0,-0.16426754,0.054755847,blue,0,0.05,0.05,0.15,0.16426754,-0.054755847,green,k,948980,24,2020-08-14_00h09.27.514,CDT_GNG_IUS12,2020.1.2,Win32,60,,l,0,2.992945,0,45,45,28,1,,,,,,,,,,,,,,,,,,,,,,,,,,,,,,,,,,,,,,,,,,,,,,,,
,,,,,,,,,,86,same,6,0.054755847,0.273779233,green,1,-0.054755847,0.273779233,red,1,0.16426754,-0.16426754,yellow,1,-0.054755847,-0.273779233,black,1,0.273779233,0.273779233,cyan,1,-0.273779233,0.054755847,orange,1,0.05,0.05,0.15,-0.273779233,0.054755847,orange,k,948980,24,2020-08-14_00h09.27.514,CDT_GNG_IUS12,2020.1.2,Win32,60,,l,0,1.176945,0,46,46,85,1,,,,,,,,,,,,,,,,,,,,,,,,,,,,,,,,,,,,,,,,,,,,,,,,
,,,,,,,,,,97,different,6,-0.273779233,-0.273779233,orange,1,0.054755847,-0.273779233,blue,1,0.16426754,0.16426754,green,1,-0.16426754,0.054755847,cyan,1,-0.16426754,-0.16426754,black,1,0.273779233,-0.16426754,yellow,1,0.05,0.05,0.15,-0.16426754,0.054755847,yellow,l,948980,24,2020-08-14_00h09.27.514,CDT_GNG_IUS12,2020.1.2,Win32,60,,l,1,1.314215,0,47,47,96,1,,,,,,,,,,,,,,,,,,,,,,,,,,,,,,,,,,,,,,,,,,,,,,,,
,,,,,,,,,,98,different,6,-0.054755847,-0.16426754,magenta,1,0.273779233,0.273779233,green,1,0.273779233,-0.273779233,red,1,-0.16426754,0.273779233,blue,1,-0.273779233,-0.16426754,cyan,1,0.273779233,0.054755847,black,1,0.05,0.05,0.15,-0.16426754,0.273779233,cyan,l,948980,24,2020-08-14_00h09.27.514,CDT_GNG_IUS12,2020.1.2,Win32,60,,k,0,2.034505,0,48,48,97,1,,,,,,,,,,,,,,,,,,,,,,,,,,,,,,,,,,,,,,,,,,,,,,,,
,,,,,,,,,,73,same,6,0.054755847,0.16426754,blue,1,-0.273779233,0.273779233,red,1,-0.273779233,-0.16426754,green,1,0.054755847,-0.054755847,orange,1,0.16426754,0.16426754,black,1,-0.054755847,0.16426754,magenta,1,0.05,0.05,0.15,-0.273779233,0.273779233,red,k,948980,24,2020-08-14_00h09.27.514,CDT_GNG_IUS12,2020.1.2,Win32,60,,l,0,0.85206,0,49,49,72,1,,,,,,,,,,,,,,,,,,,,,,,,,,,,,,,,,,,,,,,,,,,,,,,,
,,,,,,,,,,4,same,4,0.16426754,-0.16426754,black,1,-0.054755847,0.16426754,yellow,1,0.16426754,0.16426754,blue,1,-0.16426754,-0.16426754,green,1,0.054755847,-0.16426754,magenta,0,-0.054755847,0.273779233,orange,0,0.05,0.05,0.15,0.16426754,-0.16426754,black,k,948980,24,2020-08-14_00h09.27.514,CDT_GNG_IUS12,2020.1.2,Win32,60,,l,0,0.74259,0,50,50,3,1,,,,,,,,,,,,,,,,,,,,,,,,,,,,,,,,,,,,,,,,,,,,,,,,
,,,,,,,,,,10,same,4,0.273779233,0.273779233,green,1,-0.16426754,-0.054755847,yellow,1,-0.16426754,0.16426754,cyan,1,0.273779233,-0.16426754,blue,1,0.273779233,0.054755847,orange,0,-0.273779233,-0.16426754,red,0,0.05,0.05,0.15,0.273779233,0.273779233,green,k,948980,24,2020-08-14_00h09.27.514,CDT_GNG_IUS12,2020.1.2,Win32,60,,l,0,1.039345,0,51,51,9,1,,,,,,,,,,,,,,,,,,,,,,,,,,,,,,,,,,,,,,,,,,,,,,,,
,,,,,,,,,,60,different,4,0.273779233,0.273779233,red,1,-0.273779233,-0.054755847,blue,1,-0.273779233,0.054755847,magenta,1,0.054755847,-0.273779233,black,1,0.273779233,0.054755847,orange,0,-0.054755847,-0.16426754,yellow,0,0.05,0.05,0.15,-0.273779233,0.054755847,yellow,l,948980,24,2020-08-14_00h09.27.514,CDT_GNG_IUS12,2020.1.2,Win32,60,,k,0,1.010675,0,52,52,59,1,,,,,,,,,,,,,,,,,,,,,,,,,,,,,,,,,,,,,,,,,,,,,,,,
,,,,,,,,,,38,different,4,0.273779233,-0.16426754,red,1,-0.054755847,0.16426754,blue,1,-0.273779233,-0.054755847,green,1,0.273779233,0.054755847,cyan,1,0.16426754,-0.054755847,orange,0,-0.054755847,0.054755847,yellow,0,0.05,0.05,0.15,0.273779233,0.054755847,black,l,948980,24,2020-08-14_00h09.27.514,CDT_GNG_IUS12,2020.1.2,Win32,60,,l,1,0.73852,0,53,53,37,1,,,,,,,,,,,,,,,,,,,,,,,,,,,,,,,,,,,,,,,,,,,,,,,,
,,,,,,,,,,46,different,4,-0.16426754,0.273779233,yellow,1,-0.16426754,-0.16426754,green,1,0.16426754,0.054755847,black,1,0.273779233,-0.054755847,red,1,-0.16426754,0.16426754,blue,0,-0.273779233,-0.054755847,cyan,0,0.05,0.05,0.15,0.16426754,0.054755847,cyan,l,948980,24,2020-08-14_00h09.27.514,CDT_GNG_IUS12,2020.1.2,Win32,60,,l,1,1.11905,0,54,54,45,1,,,,,,,,,,,,,,,,,,,,,,,,,,,,,,,,,,,,,,,,,,,,,,,,
,,,,,,,,,,70,same,6,0.16426754,0.16426754,cyan,1,0.273779233,-0.273779233,red,1,-0.16426754,0.16426754,yellow,1,-0.273779233,-0.273779233,green,1,0.16426754,0.054755847,magenta,1,0.16426754,-0.054755847,blue,1,0.05,0.05,0.15,0.273779233,-0.273779233,red,k,948980,24,2020-08-14_00h09.27.514,CDT_GNG_IUS12,2020.1.2,Win32,60,,l,0,0.9686,0,55,55,69,1,,,,,,,,,,,,,,,,,,,,,,,,,,,,,,,,,,,,,,,,,,,,,,,,
,,,,,,,,,,74,same,6,-0.273779233,-0.273779233,magenta,1,0.16426754,0.054755847,cyan,1,-0.16426754,0.273779233,black,1,0.273779233,-0.054755847,yellow,1,-0.16426754,-0.16426754,red,1,0.054755847,0.273779233,green,1,0.05,0.05,0.15,-0.16426754,-0.16426754,red,k,948980,24,2020-08-14_00h09.27.514,CDT_GNG_IUS12,2020.1.2,Win32,60,,k,1,1.10012,0,56,56,73,1,,,,,,,,,,,,,,,,,,,,,,,,,,,,,,,,,,,,,,,,,,,,,,,,
,,,,,,,,,,85,same,6,-0.16426754,-0.273779233,black,1,-0.16426754,0.16426754,green,1,0.16426754,-0.054755847,blue,1,0.054755847,0.054755847,magenta,1,-0.16426754,-0.054755847,red,1,-0.054755847,0.054755847,yellow,1,0.05,0.05,0.15,-0.16426754,-0.273779233,black,k,948980,24,2020-08-14_00h09.27.514,CDT_GNG_IUS12,2020.1.2,Win32,60,,l,0,1.39128,0,57,57,84,1,,,,,,,,,,,,,,,,,,,,,,,,,,,,,,,,,,,,,,,,,,,,,,,,
,,,,,,,,,,54,different,4,-0.054755847,-0.054755847,black,1,0.054755847,0.054755847,cyan,1,0.273779233,-0.16426754,green,1,-0.273779233,0.16426754,magenta,1,-0.054755847,-0.16426754,orange,0,0.054755847,0.16426754,blue,0,0.05,0.05,0.15,-0.273779233,0.16426754,orange,l,948980,24,2020-08-14_00h09.27.514,CDT_GNG_IUS12,2020.1.2,Win32,60,,l,1,0.665655,0,58,58,53,1,,,,,,,,,,,,,,,,,,,,,,,,,,,,,,,,,,,,,,,,,,,,,,,,
,,,,,,,,,,67,same,6,0.273779233,-0.054755847,magenta,1,0.16426754,0.273779233,orange,1,-0.273779233,0.273779233,cyan,1,-0.16426754,-0.054755847,yellow,1,0.16426754,-0.16426754,blue,1,0.16426754,0.16426754,red,1,0.05,0.05,0.15,-0.273779233,0.273779233,cyan,k,948980,24,2020-08-14_00h09.27.514,CDT_GNG_IUS12,2020.1.2,Win32,60,,k,1,210.02007,0,59,59,66,1,,,,,,,,,,,,,,,,,,,,,,,,,,,,,,,,,,,,,,,,,,,,,,,,
,,,,,,,,,,78,same,6,0.054755847,0.054755847,black,1,-0.054755847,0.16426754,red,1,0.273779233,-0.273779233,blue,1,-0.054755847,-0.054755847,magenta,1,0.16426754,0.054755847,yellow,1,-0.273779233,0.16426754,cyan,1,0.05,0.05,0.15,-0.054755847,0.16426754,red,k,948980,24,2020-08-14_00h09.27.514,CDT_GNG_IUS12,2020.1.2,Win32,60,,l,0,1.02818,0,60,60,77,1,,,,,,,,,,,,,,,,,,,,,,,,,,,,,,,,,,,,,,,,,,,,,,,,
,,,,,,,,,,65,same,6,-0.273779233,-0.16426754,cyan,1,-0.054755847,0.054755847,blue,1,0.054755847,-0.054755847,red,1,0.273779233,0.054755847,green,1,-0.16426754,-0.054755847,orange,1,-0.273779233,0.273779233,yellow,1,0.05,0.05,0.15,-0.273779233,-0.16426754,cyan,k,948980,24,2020-08-14_00h09.27.514,CDT_GNG_IUS12,2020.1.2,Win32,60,,l,0,0.855965,0,61,61,64,1,,,,,,,,,,,,,,,,,,,,,,,,,,,,,,,,,,,,,,,,,,,,,,,,
,,,,,,,,,,88,same,6,0.054755847,0.054755847,orange,1,0.054755847,-0.273779233,red,1,-0.16426754,-0.16426754,magenta,1,-0.16426754,0.273779233,yellow,1,0.16426754,0.16426754,blue,1,0.273779233,-0.16426754,cyan,1,0.05,0.05,0.15,-0.16426754,0.273779233,yellow,k,948980,24,2020-08-14_00h09.27.514,CDT_GNG_IUS12,2020.1.2,Win32,60,,k,1,0.641835,0,62,62,87,1,,,,,,,,,,,,,,,,,,,,,,,,,,,,,,,,,,,,,,,,,,,,,,,,
,,,,,,,,,,16,same,4,0.16426754,0.16426754,cyan,1,-0.16426754,-0.273779233,red,1,-0.16426754,0.16426754,black,1,0.273779233,-0.054755847,yellow,1,0.273779233,0.273779233,orange,0,-0.054755847,-0.273779233,blue,0,0.05,0.05,0.15,-0.16426754,-0.273779233,red,k,948980,24,2020-08-14_00h09.27.514,CDT_GNG_IUS12,2020.1.2,Win32,60,,k,1,1.19971,0,63,63,15,1,,,,,,,,,,,,,,,,,,,,,,,,,,,,,,,,,,,,,,,,,,,,,,,,
,,,,,,,,,,26,same,4,0.16426754,-0.16426754,green,1,-0.054755847,0.16426754,yellow,1,-0.273779233,-0.16426754,black,1,0.054755847,0.054755847,red,1,0.16426754,-0.054755847,cyan,0,-0.273779233,0.273779233,magenta,0,0.05,0.05,0.15,-0.054755847,0.16426754,yellow,k,948980,24,2020-08-14_00h09.27.514,CDT_GNG_IUS12,2020.1.2,Win32,60,,l,0,1.465285,0,64,64,25,1,,,,,,,,,,,,,,,,,,,,,,,,,,,,,,,,,,,,,,,,,,,,,,,,
,,,,,,,,,,52,different,4,-0.273779233,-0.16426754,magenta,1,-0.273779233,0.054755847,green,1,0.273779233,-0.054755847,cyan,1,0.273779233,0.054755847,black,1,-0.16426754,-0.16426754,orange,0,-0.054755847,0.054755847,red,0,0.05,0.05,0.15,-0.273779233,-0.16426754,black,l,948980,24,2020-08-14_00h09.27.514,CDT_GNG_IUS12,2020.1.2,Win32,60,,l,1,1.16816,0,65,65,51,1,,,,,,,,,,,,,,,,,,,,,,,,,,,,,,,,,,,,,,,,,,,,,,,,
,,,,,,,,,,37,different,4,0.273779233,-0.273779233,cyan,1,-0.054755847,0.054755847,orange,1,-0.054755847,-0.16426754,yellow,1,0.16426754,0.054755847,blue,1,0.054755847,-0.273779233,red,0,-0.273779233,0.16426754,green,0,0.05,0.05,0.15,-0.054755847,0.054755847,green,l,948980,24,2020-08-14_00h09.27.514,CDT_GNG_IUS12,2020.1.2,Win32,60,,l,1,0.65813,0,66,66,36,1,,,,,,,,,,,,,,,,,,,,,,,,,,,,,,,,,,,,,,,,,,,,,,,,
,,,,,,,,,,5,same,4,0.273779233,-0.054755847,green,1,0.273779233,0.054755847,orange,1,-0.054755847,0.054755847,black,1,-0.054755847,-0.16426754,blue,1,0.054755847,-0.054755847,cyan,0,0.054755847,0.273779233,red,0,0.05,0.05,0.15,-0.054755847,-0.16426754,blue,k,948980,24,2020-08-14_00h09.27.514,CDT_GNG_IUS12,2020.1.2,Win32,60,,k,1,0.65499,0,67,67,4,1,,,,,,,,,,,,,,,,,,,,,,,,,,,,,,,,,,,,,,,,,,,,,,,,
,,,,,,,,,,111,different,6,0.273779233,0.273779233,green,1,0.054755847,-0.16426754,red,1,-0.16426754,-0.16426754,black,1,-0.16426754,0.16426754,magenta,1,0.054755847,0.054755847,blue,1,0.273779233,-0.16426754,yellow,1,0.05,0.05,0.15,0.273779233,-0.16426754,green,l,948980,24,2020-08-14_00h09.27.514,CDT_GNG_IUS12,2020.1.2,Win32,60,,l,1,0.83965,0,68,68,110,1,,,,,,,,,,,,,,,,,,,,,,,,,,,,,,,,,,,,,,,,,,,,,,,,
,,,,,,,,,,90,same,6,0.16426754,-0.054755847,black,1,-0.273779233,-0.054755847,orange,1,-0.16426754,0.16426754,cyan,1,0.273779233,0.273779233,blue,1,0.054755847,-0.054755847,magenta,1,-0.273779233,-0.273779233,yellow,1,0.05,0.05,0.15,-0.273779233,-0.054755847,orange,k,948980,24,2020-08-14_00h09.27.514,CDT_GNG_IUS12,2020.1.2,Win32,60,,l,0,0.75063,0,69,69,89,1,,,,,,,,,,,,,,,,,,,,,,,,,,,,,,,,,,,,,,,,,,,,,,,,
,,,,,,,,,,31,different,4,-0.16426754,0.16426754,blue,1,0.16426754,-0.054755847,magenta,1,-0.16426754,-0.054755847,yellow,1,0.054755847,0.273779233,black,1,-0.273779233,0.054755847,red,0,0.273779233,-0.273779233,cyan,0,0.05,0.05,0.15,-0.16426754,-0.054755847,black,l,948980,24,2020-08-14_00h09.27.514,CDT_GNG_IUS12,2020.1.2,Win32,60,,l,1,0.87649,0,70,70,30,1,,,,,,,,,,,,,,,,,,,,,,,,,,,,,,,,,,,,,,,,,,,,,,,,
,,,,,,,,,,51,different,4,-0.16426754,-0.273779233,yellow,1,0.16426754,-0.273779233,cyan,1,0.273779233,0.054755847,blue,1,-0.054755847,0.273779233,green,1,-0.16426754,-0.054755847,black,0,0.273779233,-0.273779233,red,0,0.05,0.05,0.15,0.16426754,-0.273779233,red,l,948980,24,2020-08-14_00h09.27.514,CDT_GNG_IUS12,2020.1.2,Win32,60,,l,1,0.876245,0,71,71,50,1,,,,,,,,,,,,,,,,,,,,,,,,,,,,,,,,,,,,,,,,,,,,,,,,
,,,,,,,,,,19,same,4,-0.054755847,-0.16426754,orange,1,-0.273779233,0.273779233,red,1,0.273779233,0.054755847,yellow,1,0.273779233,-0.16426754,magenta,1,-0.273779233,-0.054755847,black,0,-0.054755847,0.273779233,blue,0,0.05,0.05,0.15,0.273779233,-0.16426754,magenta,k,948980,24,2020-08-14_00h09.27.514,CDT_GNG_IUS12,2020.1.2,Win32,60,,l,0,1.22645,0,72,72,18,1,,,,,,,,,,,,,,,,,,,,,,,,,,,,,,,,,,,,,,,,,,,,,,,,
,,,,,,,,,,92,different,6,0.16426754,0.16426754,green,1,-0.054755847,-0.054755847,cyan,1,-0.054755847,0.054755847,red,1,0.16426754,-0.054755847,magenta,1,0.054755847,0.16426754,orange,1,-0.273779233,-0.16426754,yellow,1,0.05,0.05,0.15,0.16426754,0.16426754,cyan,l,948980,24,2020-08-14_00h09.27.514,CDT_GNG_IUS12,2020.1.2,Win32,60,,l,1,0.72486,0,73,73,91,1,,,,,,,,,,,,,,,,,,,,,,,,,,,,,,,,,,,,,,,,,,,,,,,,
,,,,,,,,,,42,different,4,0.273779233,0.16426754,cyan,1,-0.054755847,0.16426754,magenta,1,0.16426754,-0.054755847,green,1,-0.16426754,-0.16426754,red,1,0.16426754,0.273779233,black,0,-0.054755847,0.273779233,yellow,0,0.05,0.05,0.15,0.273779233,0.16426754,blue,l,948980,24,2020-08-14_00h09.27.514,CDT_GNG_IUS12,2020.1.2,Win32,60,,l,1,0.64977,0,74,74,41,1,,,,,,,,,,,,,,,,,,,,,,,,,,,,,,,,,,,,,,,,,,,,,,,,
,,,,,,,,,,14,same,4,0.16426754,0.16426754,magenta,1,-0.16426754,0.16426754,blue,1,0.16426754,-0.16426754,green,1,-0.16426754,-0.16426754,red,1,0.16426754,0.273779233,cyan,0,-0.16426754,0.273779233,orange,0,0.05,0.05,0.15,-0.16426754,0.16426754,blue,k,948980,24,2020-08-14_00h09.27.514,CDT_GNG_IUS12,2020.1.2,Win32,60,,k,1,0.58522,0,75,75,13,1,,,,,,,,,,,,,,,,,,,,,,,,,,,,,,,,,,,,,,,,,,,,,,,,
,,,,,,,,,,30,same,4,0.16426754,0.16426754,blue,1,0.054755847,-0.054755847,green,1,-0.273779233,-0.16426754,black,1,-0.054755847,0.273779233,yellow,1,0.16426754,0.273779233,red,0,0.16426754,-0.16426754,magenta,0,0.05,0.05,0.15,0.054755847,-0.054755847,green,k,948980,24,2020-08-14_00h09.27.514,CDT_GNG_IUS12,2020.1.2,Win32,60,,l,0,0.74364,0,76,76,29,1,,,,,,,,,,,,,,,,,,,,,,,,,,,,,,,,,,,,,,,,,,,,,,,,
,,,,,,,,,,81,same,6,-0.273779233,-0.273779233,green,1,-0.273779233,0.16426754,blue,1,0.054755847,-0.16426754,black,1,0.273779233,0.054755847,cyan,1,-0.16426754,-0.273779233,orange,1,-0.054755847,0.054755847,red,1,0.05,0.05,0.15,0.054755847,-0.16426754,black,k,948980,24,2020-08-14_00h09.27.514,CDT_GNG_IUS12,2020.1.2,Win32,60,,l,0,0.90221,0,77,77,80,1,,,,,,,,,,,,,,,,,,,,,,,,,,,,,,,,,,,,,,,,,,,,,,,,
,,,,,,,,,,33,different,4,-0.273779233,0.273779233,yellow,1,0.16426754,-0.16426754,cyan,1,-0.273779233,-0.273779233,black,1,0.054755847,0.273779233,blue,1,-0.16426754,0.273779233,green,0,0.054755847,-0.273779233,orange,0,0.05,0.05,0.15,-0.273779233,-0.273779233,cyan,l,948980,24,2020-08-14_00h09.27.514,CDT_GNG_IUS12,2020.1.2,Win32,60,,l,1,0.80032,0,78,78,32,1,,,,,,,,,,,,,,,,,,,,,,,,,,,,,,,,,,,,,,,,,,,,,,,,
,,,,,,,,,,50,different,4,-0.16426754,0.054755847,black,1,-0.273779233,-0.16426754,magenta,1,0.054755847,0.054755847,cyan,1,0.273779233,-0.16426754,green,1,-0.273779233,0.273779233,yellow,0,-0.16426754,-0.054755847,orange,0,0.05,0.05,0.15,-0.273779233,-0.16426754,yellow,l,948980,24,2020-08-14_00h09.27.514,CDT_GNG_IUS12,2020.1.2,Win32,60,,l,1,0.792255,0,79,79,49,1,,,,,,,,,,,,,,,,,,,,,,,,,,,,,,,,,,,,,,,,,,,,,,,,
,,,,,,,,,,22,same,4,-0.054755847,-0.16426754,green,1,-0.16426754,0.054755847,blue,1,0.16426754,0.16426754,yellow,1,0.273779233,-0.054755847,black,1,-0.273779233,-0.054755847,red,0,-0.054755847,0.16426754,cyan,0,0.05,0.05,0.15,0.273779233,-0.054755847,black,k,948980,24,2020-08-14_00h09.27.514,CDT_GNG_IUS12,2020.1.2,Win32,60,,l,0,0.62185,0,80,80,21,1,,,,,,,,,,,,,,,,,,,,,,,,,,,,,,,,,,,,,,,,,,,,,,,,
,,,,,,,,,,101,different,6,0.273779233,0.273779233,yellow,1,0.054755847,-0.16426754,black,1,-0.054755847,0.054755847,cyan,1,-0.054755847,-0.16426754,magenta,1,0.273779233,0.054755847,green,1,0.16426754,-0.16426754,blue,1,0.05,0.05,0.15,0.273779233,0.273779233,green,l,948980,24,2020-08-14_00h09.27.514,CDT_GNG_IUS12,2020.1.2,Win32,60,,k,0,1.46755,0,81,81,100,1,,,,,,,,,,,,,,,,,,,,,,,,,,,,,,,,,,,,,,,,,,,,,,,,
,,,,,,,,,,39,different,4,0.054755847,0.054755847,green,1,0.273779233,-0.16426754,yellow,1,-0.16426754,0.054755847,orange,1,-0.273779233,-0.054755847,red,1,0.273779233,0.054755847,blue,0,0.054755847,-0.16426754,cyan,0,0.05,0.05,0.15,-0.273779233,-0.054755847,cyan,l,948980,24,2020-08-14_00h09.27.514,CDT_GNG_IUS12,2020.1.2,Win32,60,,l,1,0.925355,0,82,82,38,1,,,,,,,,,,,,,,,,,,,,,,,,,,,,,,,,,,,,,,,,,,,,,,,,
,,,,,,,,,,44,different,4,0.16426754,0.16426754,green,1,0.16426754,-0.16426754,black,1,-0.16426754,-0.054755847,cyan,1,-0.16426754,0.054755847,magenta,1,0.16426754,0.054755847,blue,0,0.054755847,-0.273779233,yellow,0,0.05,0.05,0.15,0.16426754,0.16426754,red,l,948980,24,2020-08-14_00h09.27.514,CDT_GNG_IUS12,2020.1.2,Win32,60,,l,1,1.217885,0,83,83,43,1,,,,,,,,,,,,,,,,,,,,,,,,,,,,,,,,,,,,,,,,,,,,,,,,
,,,,,,,,,,113,different,6,-0.273779233,0.054755847,black,1,-0.16426754,-0.16426754,blue,1,0.054755847,-0.16426754,orange,1,0.16426754,0.16426754,red,1,-0.273779233,0.273779233,green,1,-0.273779233,-0.16426754,magenta,1,0.05,0.05,0.15,-0.273779233,-0.16426754,black,l,948980,24,2020-08-14_00h09.27.514,CDT_GNG_IUS12,2020.1.2,Win32,60,,l,1,3.15033,0,84,84,112,1,,,,,,,,,,,,,,,,,,,,,,,,,,,,,,,,,,,,,,,,,,,,,,,,
,,,,,,,,,,43,different,4,-0.16426754,-0.054755847,red,1,0.273779233,0.054755847,cyan,1,-0.16426754,0.054755847,orange,1,0.054755847,-0.054755847,blue,1,-0.054755847,-0.273779233,magenta,0,0.273779233,0.273779233,yellow,0,0.05,0.05,0.15,-0.16426754,-0.054755847,yellow,l,948980,24,2020-08-14_00h09.27.514,CDT_GNG_IUS12,2020.1.2,Win32,60,,l,1,2.266715,0,85,85,42,1,,,,,,,,,,,,,,,,,,,,,,,,,,,,,,,,,,,,,,,,,,,,,,,,
,,,,,,,,,,58,different,4,-0.16426754,0.273779233,blue,1,0.16426754,0.273779233,yellow,1,0.273779233,-0.16426754,black,1,-0.16426754,-0.054755847,cyan,1,-0.16426754,0.16426754,green,0,0.16426754,0.054755847,orange,0,0.05,0.05,0.15,0.273779233,-0.16426754,magenta,l,948980,24,2020-08-14_00h09.27.514,CDT_GNG_IUS12,2020.1.2,Win32,60,,l,1,0.987185,0,86,86,57,1,,,,,,,,,,,,,,,,,,,,,,,,,,,,,,,,,,,,,,,,,,,,,,,,
,,,,,,,,,,83,same,6,0.054755847,-0.16426754,cyan,1,-0.16426754,-0.16426754,blue,1,0.273779233,0.054755847,magenta,1,-0.273779233,0.273779233,green,1,0.273779233,-0.16426754,orange,1,-0.054755847,-0.054755847,yellow,1,0.05,0.05,0.15,-0.054755847,-0.054755847,yellow,k,948980,24,2020-08-14_00h09.27.514,CDT_GNG_IUS12,2020.1.2,Win32,60,,l,0,0.71706,0,87,87,82,1,,,,,,,,,,,,,,,,,,,,,,,,,,,,,,,,,,,,,,,,,,,,,,,,
,,,,,,,,,,27,same,4,-0.273779233,0.054755847,blue,1,-0.16426754,-0.16426754,black,1,0.16426754,-0.273779233,cyan,1,0.273779233,0.054755847,red,1,-0.054755847,0.273779233,magenta,0,-0.054755847,-0.273779233,yellow,0,0.05,0.05,0.15,0.273779233,0.054755847,red,k,948980,24,2020-08-14_00h09.27.514,CDT_GNG_IUS12,2020.1.2,Win32,60,,l,0,0.936965,0,88,88,26,1,,,,,,,,,,,,,,,,,,,,,,,,,,,,,,,,,,,,,,,,,,,,,,,,
,,,,,,,,,,2,same,4,0.273779233,0.054755847,magenta,1,-0.273779233,0.273779233,red,1,-0.054755847,-0.054755847,yellow,1,0.273779233,-0.273779233,blue,1,0.054755847,0.16426754,green,0,-0.16426754,0.054755847,cyan,0,0.05,0.05,0.15,0.273779233,-0.273779233,blue,k,948980,24,2020-08-14_00h09.27.514,CDT_GNG_IUS12,2020.1.2,Win32,60,,l,0,1.161065,0,89,89,1,1,,,,,,,,,,,,,,,,,,,,,,,,,,,,,,,,,,,,,,,,,,,,,,,,
,,,,,,,,,,109,different,6,-0.273779233,-0.16426754,blue,1,0.054755847,-0.16426754,black,1,-0.054755847,0.054755847,cyan,1,0.054755847,0.16426754,green,1,-0.054755847,-0.054755847,yellow,1,0.16426754,-0.273779233,orange,1,0.05,0.05,0.15,-0.273779233,-0.16426754,green,l,948980,24,2020-08-14_00h09.27.514,CDT_GNG_IUS12,2020.1.2,Win32,60,,l,1,0.900245,0,90,90,108,1,,,,,,,,,,,,,,,,,,,,,,,,,,,,,,,,,,,,,,,,,,,,,,,,
,,,,,,,,,,95,different,6,-0.273779233,-0.16426754,magenta,1,0.16426754,0.273779233,green,1,-0.273779233,0.273779233,black,1,0.16426754,-0.273779233,orange,1,-0.054755847,-0.16426754,blue,1,0.16426754,0.054755847,cyan,1,0.05,0.05,0.15,0.16426754,0.273779233,black,l,948980,24,2020-08-14_00h09.27.514,CDT_GNG_IUS12,2020.1.2,Win32,60,,l,1,0.75011,0,91,91,94,1,,,,,,,,,,,,,,,,,,,,,,,,,,,,,,,,,,,,,,,,,,,,,,,,
,,,,,,,,,,45,different,4,0.054755847,0.16426754,blue,1,-0.054755847,-0.273779233,magenta,1,-0.16426754,0.16426754,black,1,0.054755847,-0.16426754,orange,1,0.273779233,0.273779233,green,0,-0.273779233,-0.16426754,cyan,0,0.05,0.05,0.15,-0.16426754,0.16426754,magenta,l,948980,24,2020-08-14_00h09.27.514,CDT_GNG_IUS12,2020.1.2,Win32,60,,l,1,0.71681,0,92,92,44,1,,,,,,,,,,,,,,,,,,,,,,,,,,,,,,,,,,,,,,,,,,,,,,,,
,,,,,,,,,,69,same,6,-0.054755847,-0.054755847,black,1,0.273779233,-0.054755847,orange,1,-0.273779233,0.16426754,blue,1,0.054755847,0.054755847,yellow,1,-0.16426754,-0.16426754,green,1,0.054755847,-0.16426754,magenta,1,0.05,0.05,0.15,-0.16426754,-0.16426754,green,k,948980,24,2020-08-14_00h09.27.514,CDT_GNG_IUS12,2020.1.2,Win32,60,,l,0,0.80982,0,93,93,68,1,,,,,,,,,,,,,,,,,,,,,,,,,,,,,,,,,,,,,,,,,,,,,,,,
,,,,,,,,,,61,same,6,0.273779233,0.16426754,cyan,1,0.273779233,-0.273779233,blue,1,-0.16426754,-0.16426754,green,1,-0.16426754,0.273779233,black,1,0.16426754,0.054755847,red,1,0.273779233,-0.16426754,yellow,1,0.05,0.05,0.15,0.273779233,-0.16426754,yellow,k,948980,24,2020-08-14_00h09.27.514,CDT_GNG_IUS12,2020.1.2,Win32,60,,l,0,1.059885,0,94,94,60,1,,,,,,,,,,,,,,,,,,,,,,,,,,,,,,,,,,,,,,,,,,,,,,,,
,,,,,,,,,,110,different,6,-0.273779233,0.273779233,black,1,0.273779233,-0.16426754,red,1,0.054755847,0.273779233,cyan,1,-0.273779233,-0.16426754,orange,1,-0.054755847,0.054755847,magenta,1,0.16426754,-0.054755847,yellow,1,0.05,0.05,0.15,0.273779233,-0.16426754,yellow,l,948980,24,2020-08-14_00h09.27.514,CDT_GNG_IUS12,2020.1.2,Win32,60,,l,1,0.64031,0,95,95,109,1,,,,,,,,,,,,,,,,,,,,,,,,,,,,,,,,,,,,,,,,,,,,,,,,
,,,,,,,,,,13,same,4,0.16426754,0.273779233,orange,1,0.054755847,-0.273779233,blue,1,-0.054755847,0.054755847,magenta,1,-0.054755847,-0.16426754,black,1,0.054755847,0.16426754,yellow,0,0.16426754,-0.054755847,cyan,0,0.05,0.05,0.15,0.054755847,-0.273779233,blue,k,948980,24,2020-08-14_00h09.27.514,CDT_GNG_IUS12,2020.1.2,Win32,60,,l,0,0.675055,0,96,96,12,1,,,,,,,,,,,,,,,,,,,,,,,,,,,,,,,,,,,,,,,,,,,,,,,,
,,,,,,,,,,8,same,4,0.16426754,-0.16426754,blue,1,-0.16426754,-0.054755847,red,1,-0.273779233,0.16426754,green,1,0.054755847,0.054755847,cyan,1,0.16426754,-0.273779233,magenta,0,-0.054755847,-0.054755847,orange,0,0.05,0.05,0.15,-0.273779233,0.16426754,green,k,948980,24,2020-08-14_00h09.27.514,CDT_GNG_IUS12,2020.1.2,Win32,60,,k,1,0.685635,0,97,97,7,1,,,,,,,,,,,,,,,,,,,,,,,,,,,,,,,,,,,,,,,,,,,,,,,,
,,,,,,,,,,1,same,4,-0.16426754,-0.273779233,orange,1,0.054755847,0.16426754,yellow,1,-0.16426754,0.16426754,green,1,0.054755847,-0.054755847,red,1,-0.273779233,-0.16426754,cyan,0,0.16426754,0.16426754,blue,0,0.05,0.05,0.15,0.054755847,0.16426754,yellow,k,948980,24,2020-08-14_00h09.27.514,CDT_GNG_IUS12,2020.1.2,Win32,60,,k,1,1.257845,0,98,98,0,1,,,,,,,,,,,,,,,,,,,,,,,,,,,,,,,,,,,,,,,,,,,,,,,,
,,,,,,,,,,49,different,4,-0.16426754,-0.273779233,black,1,0.16426754,0.16426754,red,1,-0.273779233,0.16426754,yellow,1,0.054755847,-0.273779233,green,1,-0.273779233,-0.273779233,magenta,0,0.054755847,0.273779233,blue,0,0.05,0.05,0.15,0.054755847,-0.273779233,orange,l,948980,24,2020-08-14_00h09.27.514,CDT_GNG_IUS12,2020.1.2,Win32,60,,l,1,0.91843,0,99,99,48,1,,,,,,,,,,,,,,,,,,,,,,,,,,,,,,,,,,,,,,,,,,,,,,,,
,,,,,,,,,,53,different,4,-0.16426754,0.054755847,green,1,0.273779233,0.054755847,cyan,1,-0.273779233,-0.273779233,magenta,1,0.054755847,-0.16426754,black,1,-0.054755847,0.16426754,red,0,0.273779233,0.273779233,blue,0,0.05,0.05,0.15,-0.273779233,-0.273779233,black,l,948980,24,2020-08-14_00h09.27.514,CDT_GNG_IUS12,2020.1.2,Win32,60,,l,1,3.117625,0,100,100,52,1,,,,,,,,,,,,,,,,,,,,,,,,,,,,,,,,,,,,,,,,,,,,,,,,
,,,,,,,,,,89,same,6,-0.054755847,-0.273779233,cyan,1,-0.16426754,0.16426754,green,1,0.273779233,0.273779233,black,1,0.273779233,-0.273779233,orange,1,-0.273779233,-0.16426754,magenta,1,-0.16426754,0.273779233,yellow,1,0.05,0.05,0.15,-0.16426754,0.273779233,yellow,k,948980,24,2020-08-14_00h09.27.514,CDT_GNG_IUS12,2020.1.2,Win32,60,,k,1,1.38107,0,101,101,88,1,,,,,,,,,,,,,,,,,,,,,,,,,,,,,,,,,,,,,,,,,,,,,,,,
,,,,,,,,,,6,same,4,0.273779233,0.273779233,blue,1,-0.273779233,-0.16426754,magenta,1,-0.054755847,0.054755847,green,1,0.054755847,-0.054755847,black,1,0.054755847,0.054755847,orange,0,-0.054755847,-0.054755847,red,0,0.05,0.05,0.15,-0.054755847,0.054755847,green,k,948980,24,2020-08-14_00h09.27.514,CDT_GNG_IUS12,2020.1.2,Win32,60,,l,0,0.91666,0,102,102,5,1,,,,,,,,,,,,,,,,,,,,,,,,,,,,,,,,,,,,,,,,,,,,,,,,
,,,,,,,,,,41,different,4,0.054755847,-0.273779233,orange,1,-0.273779233,0.054755847,blue,1,-0.054755847,-0.16426754,yellow,1,0.273779233,0.16426754,red,1,0.273779233,-0.273779233,black,0,-0.273779233,0.273779233,magenta,0,0.05,0.05,0.15,-0.054755847,-0.16426754,black,l,948980,24,2020-08-14_00h09.27.514,CDT_GNG_IUS12,2020.1.2,Win32,60,,l,1,0.79726,0,103,103,40,1,,,,,,,,,,,,,,,,,,,,,,,,,,,,,,,,,,,,,,,,,,,,,,,,
,,,,,,,,,,24,same,4,0.054755847,-0.16426754,red,1,0.054755847,0.054755847,yellow,1,-0.273779233,0.16426754,orange,1,-0.273779233,-0.16426754,magenta,1,0.273779233,-0.16426754,black,0,0.273779233,0.273779233,green,0,0.05,0.05,0.15,0.054755847,-0.16426754,red,k,948980,24,2020-08-14_00h09.27.514,CDT_GNG_IUS12,2020.1.2,Win32,60,,l,0,0.435835,0,104,104,23,1,,,,,,,,,,,,,,,,,,,,,,,,,,,,,,,,,,,,,,,,,,,,,,,,
,,,,,,,,,,105,different,6,0.054755847,0.273779233,cyan,1,0.273779233,-0.16426754,magenta,1,-0.16426754,-0.054755847,yellow,1,-0.16426754,0.16426754,blue,1,0.273779233,0.16426754,orange,1,0.16426754,-0.273779233,green,1,0.05,0.05,0.15,0.16426754,-0.273779233,blue,l,948980,24,2020-08-14_00h09.27.514,CDT_GNG_IUS12,2020.1.2,Win32,60,,l,1,1.297425,0,105,105,104,1,,,,,,,,,,,,,,,,,,,,,,,,,,,,,,,,,,,,,,,,,,,,,,,,
,,,,,,,,,,118,different,6,-0.16426754,-0.16426754,red,1,0.273779233,0.16426754,orange,1,-0.16426754,0.273779233,cyan,1,0.16426754,-0.273779233,black,1,-0.054755847,-0.054755847,yellow,1,0.054755847,0.054755847,green,1,0.05,0.05,0.15,-0.054755847,-0.054755847,magenta,l,948980,24,2020-08-14_00h09.27.514,CDT_GNG_IUS12,2020.1.2,Win32,60,,l,1,1.455925,0,106,106,117,1,,,,,,,,,,,,,,,,,,,,,,,,,,,,,,,,,,,,,,,,,,,,,,,,
,,,,,,,,,,116,different,6,-0.273779233,0.16426754,green,1,-0.054755847,-0.054755847,orange,1,0.273779233,-0.273779233,cyan,1,0.054755847,0.273779233,red,1,-0.054755847,0.16426754,blue,1,-0.16426754,-0.054755847,yellow,1,0.05,0.05,0.15,-0.054755847,-0.054755847,magenta,l,948980,24,2020-08-14_00h09.27.514,CDT_GNG_IUS12,2020.1.2,Win32,60,,l,1,0.75283,0,107,107,115,1,,,,,,,,,,,,,,,,,,,,,,,,,,,,,,,,,,,,,,,,,,,,,,,,
,,,,,,,,,,119,different,6,-0.273779233,0.054755847,cyan,1,-0.273779233,-0.273779233,blue,1,0.16426754,0.054755847,orange,1,0.054755847,-0.16426754,yellow,1,-0.273779233,0.273779233,black,1,-0.054755847,-0.054755847,green,1,0.05,0.05,0.15,-0.273779233,-0.273779233,cyan,l,948980,24,2020-08-14_00h09.27.514,CDT_GNG_IUS12,2020.1.2,Win32,60,,l,1,1.066955,0,108,108,118,1,,,,,,,,,,,,,,,,,,,,,,,,,,,,,,,,,,,,,,,,,,,,,,,,
,,,,,,,,,,7,same,4,-0.16426754,-0.054755847,yellow,1,0.273779233,0.16426754,magenta,1,-0.16426754,0.054755847,cyan,1,0.054755847,-0.054755847,black,1,-0.054755847,-0.054755847,orange,0,0.273779233,0.273779233,blue,0,0.05,0.05,0.15,0.054755847,-0.054755847,black,k,948980,24,2020-08-14_00h09.27.514,CDT_GNG_IUS12,2020.1.2,Win32,60,,l,0,0.81647,0,109,109,6,1,,,,,,,,,,,,,,,,,,,,,,,,,,,,,,,,,,,,,,,,,,,,,,,,
,,,,,,,,,,114,different,6,-0.16426754,0.16426754,black,1,-0.054755847,-0.273779233,orange,1,0.054755847,0.16426754,magenta,1,0.273779233,-0.16426754,green,1,-0.054755847,0.16426754,cyan,1,-0.273779233,-0.273779233,yellow,1,0.05,0.05,0.15,0.054755847,0.16426754,blue,l,948980,24,2020-08-14_00h09.27.514,CDT_GNG_IUS12,2020.1.2,Win32,60,,l,1,0.95203,0,110,110,113,1,,,,,,,,,,,,,,,,,,,,,,,,,,,,,,,,,,,,,,,,,,,,,,,,
,,,,,,,,,,79,same,6,0.054755847,-0.16426754,black,1,-0.054755847,-0.273779233,yellow,1,-0.273779233,0.273779233,red,1,0.054755847,0.054755847,magenta,1,0.16426754,-0.054755847,cyan,1,-0.16426754,-0.054755847,orange,1,0.05,0.05,0.15,0.054755847,0.054755847,magenta,k,948980,24,2020-08-14_00h09.27.514,CDT_GNG_IUS12,2020.1.2,Win32,60,,l,0,0.524685,0,111,111,78,1,,,,,,,,,,,,,,,,,,,,,,,,,,,,,,,,,,,,,,,,,,,,,,,,
,,,,,,,,,,25,same,4,0.16426754,-0.273779233,green,1,-0.16426754,-0.273779233,black,1,0.16426754,0.054755847,cyan,1,-0.273779233,0.273779233,blue,1,0.054755847,-0.273779233,yellow,0,-0.273779233,-0.273779233,red,0,0.05,0.05,0.15,-0.273779233,0.273779233,blue,k,948980,24,2020-08-14_00h09.27.514,CDT_GNG_IUS12,2020.1.2,Win32,60,,l,0,0.935555,0,112,112,24,1,,,,,,,,,,,,,,,,,,,,,,,,,,,,,,,,,,,,,,,,,,,,,,,,
,,,,,,,,,,34,different,4,0.16426754,0.16426754,yellow,1,0.273779233,-0.16426754,cyan,1,-0.273779233,-0.273779233,magenta,1,-0.273779233,0.16426754,green,1,0.054755847,0.054755847,black,0,0.273779233,-0.273779233,orange,0,0.05,0.05,0.15,0.16426754,0.16426754,cyan,l,948980,24,2020-08-14_00h09.27.514,CDT_GNG_IUS12,2020.1.2,Win32,60,,l,1,0.933985,0,113,113,33,1,,,,,,,,,,,,,,,,,,,,,,,,,,,,,,,,,,,,,,,,,,,,,,,,
,,,,,,,,,,32,different,4,-0.054755847,-0.273779233,green,1,-0.273779233,0.16426754,black,1,0.16426754,0.16426754,cyan,1,0.273779233,-0.16426754,yellow,1,-0.054755847,-0.054755847,blue,0,-0.054755847,0.273779233,orange,0,0.05,0.05,0.15,-0.054755847,-0.273779233,red,l,948980,24,2020-08-14_00h09.27.514,CDT_GNG_IUS12,2020.1.2,Win32,60,,l,1,0.75379,0,114,114,31,1,,,,,,,,,,,,,,,,,,,,,,,,,,,,,,,,,,,,,,,,,,,,,,,,
,,,,,,,,,,102,different,6,-0.273779233,-0.273779233,magenta,1,0.054755847,0.16426754,green,1,0.16426754,-0.273779233,yellow,1,-0.16426754,0.054755847,orange,1,-0.16426754,-0.273779233,red,1,0.273779233,0.054755847,cyan,1,0.05,0.05,0.15,-0.273779233,-0.273779233,yellow,l,948980,24,2020-08-14_00h09.27.514,CDT_GNG_IUS12,2020.1.2,Win32,60,,l,1,0.90174,0,115,115,101,1,,,,,,,,,,,,,,,,,,,,,,,,,,,,,,,,,,,,,,,,,,,,,,,,
,,,,,,,,,,12,same,4,0.054755847,0.054755847,blue,1,-0.273779233,-0.054755847,magenta,1,-0.054755847,0.273779233,black,1,0.16426754,-0.16426754,green,1,0.16426754,0.16426754,yellow,0,-0.16426754,-0.054755847,orange,0,0.05,0.05,0.15,0.054755847,0.054755847,blue,k,948980,24,2020-08-14_00h09.27.514,CDT_GNG_IUS12,2020.1.2,Win32,60,,k,1,1.592975,0,116,116,11,1,,,,,,,,,,,,,,,,,,,,,,,,,,,,,,,,,,,,,,,,,,,,,,,,
,,,,,,,,,,20,same,4,0.273779233,0.054755847,magenta,1,0.054755847,-0.273779233,black,1,-0.054755847,0.16426754,blue,1,-0.273779233,-0.054755847,orange,1,0.054755847,0.054755847,red,0,0.054755847,-0.054755847,cyan,0,0.05,0.05,0.15,-0.054755847,0.16426754,blue,k,948980,24,2020-08-14_00h09.27.514,CDT_GNG_IUS12,2020.1.2,Win32,60,,k,1,0.770685,0,117,117,19,1,,,,,,,,,,,,,,,,,,,,,,,,,,,,,,,,,,,,,,,,,,,,,,,,
,,,,,,,,,,115,different,6,-0.16426754,0.273779233,magenta,1,-0.273779233,-0.054755847,blue,1,0.273779233,0.273779233,red,1,0.054755847,-0.273779233,cyan,1,-0.054755847,0.16426754,green,1,-0.273779233,-0.273779233,yellow,1,0.05,0.05,0.15,-0.273779233,-0.054755847,yellow,l,948980,24,2020-08-14_00h09.27.514,CDT_GNG_IUS12,2020.1.2,Win32,60,,l,1,0.572215,0,118,118,114,1,,,,,,,,,,,,,,,,,,,,,,,,,,,,,,,,,,,,,,,,,,,,,,,,
,,,,,,,,,,108,different,6,-0.273779233,-0.054755847,magenta,1,0.054755847,0.16426754,red,1,-0.16426754,0.054755847,cyan,1,0.054755847,-0.273779233,green,1,-0.273779233,-0.16426754,orange,1,0.273779233,0.273779233,black,1,0.05,0.05,0.15,-0.273779233,-0.054755847,blue,l,948980,24,2020-08-14_00h09.27.514,CDT_GNG_IUS12,2020.1.2,Win32,60,,l,1,0.678275,0,119,119,107,1,,,,,,,,,,,,,,,,,,,,,,,,,,,,,,,,,,,,,,,,,,,,,,,,
,,,,,,,,,,,,,,,,,,,,,,,,,,,,,,,,,,,,,,,,,,,,948980,24,2020-08-14_00h09.27.514,CDT_GNG_IUS12,2020.1.2,Win32,60,,,,,,,,,,,1,0,0,0,3,1,1,0,,,,,,,,,,,,,,,,,,,,,,,,,,,,,,,,,,,,,,,
,,,,,,,,,,,,,,,,,,,,,,,,,,,,,,,,,,,,,,,,,,,,948980,24,2020-08-14_00h09.27.514,CDT_GNG_IUS12,2020.1.2,Win32,60,,,,,,,,,,,1,0,1,1,2,1,1,0,,,,,,,,,,,,,,,,,,,,,,,,,,,,,,,,,,,,,,,
,,,,,,,,,,,,,,,,,,,,,,,,,,,,,,,,,,,,,,,,,,,space,948980,24,2020-08-14_00h09.27.514,CDT_GNG_IUS12,2020.1.2,Win32,60,,,,,,,,,,space,1,0,2,2,6,1,0,1,0.318555,,,,,,,,,,,,,,,,,,,,,,,,,,,,,,,,,,,,,,
,,,,,,,,,,,,,,,,,,,,,,,,,,,,,,,,,,,,,,,,,,,space,948980,24,2020-08-14_00h09.27.514,CDT_GNG_IUS12,2020.1.2,Win32,60,,,,,,,,,,space,1,0,3,3,7,1,0,1,0.346115,,,,,,,,,,,,,,,,,,,,,,,,,,,,,,,,,,,,,,
,,,,,,,,,,,,,,,,,,,,,,,,,,,,,,,,,,,,,,,,,,,space,948980,24,2020-08-14_00h09.27.514,CDT_GNG_IUS12,2020.1.2,Win32,60,,,,,,,,,,space,1,0,4,4,5,1,0,1,0.53948,,,,,,,,,,,,,,,,,,,,,,,,,,,,,,,,,,,,,,
,,,,,,,,,,,,,,,,,,,,,,,,,,,,,,,,,,,,,,,,,,,space,948980,24,2020-08-14_00h09.27.514,CDT_GNG_IUS12,2020.1.2,Win32,60,,,,,,,,,,space,1,0,5,5,4,1,0,1,0.442625,,,,,,,,,,,,,,,,,,,,,,,,,,,,,,,,,,,,,,
,,,,,,,,,,,,,,,,,,,,,,,,,,,,,,,,,,,,,,,,,,,,948980,24,2020-08-14_00h09.27.514,CDT_GNG_IUS12,2020.1.2,Win32,60,,,,,,,,,,,1,0,6,6,1,1,1,0,,,,,,,,,,,,,,,,,,,,,,,,,,,,,,,,,,,,,,,
,,,,,,,,,,,,,,,,,,,,,,,,,,,,,,,,,,,,,,,,,,,,948980,24,2020-08-14_00h09.27.514,CDT_GNG_IUS12,2020.1.2,Win32,60,,,,,,,,,,,1,0,7,7,0,1,1,0,,,,,,,,,,,,,,,,,,,,,,,,,,,,,,,,,,,,,,,
,,,,,,,,,,,,,,,,,,,,,,,,,,,,,,,,,,,,,,,,,,,space,948980,24,2020-08-14_00h09.27.514,CDT_GNG_IUS12,2020.1.2,Win32,60,,,,,,,,,,,,,,,,,0,1,,,0,0,0,0,22,1,,,,,,,,,,,,,,,,,,,,,,,,,,,,,,,
,,,,,,,,,,,,,,,,,,,,,,,,,,,,,,,,,,,,,,,,,,,space,948980,24,2020-08-14_00h09.27.514,CDT_GNG_IUS12,2020.1.2,Win32,60,,,,,,,,,,,,,,,,,0,1,,space,1,0,1,1,45,1,0.03018,,,,,,,,,,,,,,,,,,,,,,,,,,,,,,
,,,,,,,,,,,,,,,,,,,,,,,,,,,,,,,,,,,,,,,,,,,,948980,24,2020-08-14_00h09.27.514,CDT_GNG_IUS12,2020.1.2,Win32,60,,,,,,,,,,,,,,,,,1,0,,space,0,0,2,2,5,1,0.00131,,,,,,,,,,,,,,,,,,,,,,,,,,,,,,
,,,,,,,,,,,,,,,,,,,,,,,,,,,,,,,,,,,,,,,,,,,space,948980,24,2020-08-14_00h09.27.514,CDT_GNG_IUS12,2020.1.2,Win32,60,,,,,,,,,,,,,,,,,0,1,,,0,0,3,3,15,1,,,,,,,,,,,,,,,,,,,,,,,,,,,,,,,
,,,,,,,,,,,,,,,,,,,,,,,,,,,,,,,,,,,,,,,,,,,space,948980,24,2020-08-14_00h09.27.514,CDT_GNG_IUS12,2020.1.2,Win32,60,,,,,,,,,,,,,,,,,0,1,,space,1,0,4,4,27,1,0.24813,,,,,,,,,,,,,,,,,,,,,,,,,,,,,,
,,,,,,,,,,,,,,,,,,,,,,,,,,,,,,,,,,,,,,,,,,,,948980,24,2020-08-14_00h09.27.514,CDT_GNG_IUS12,2020.1.2,Win32,60,,,,,,,,,,,,,,,,,1,0,,,1,0,5,5,0,1,,,,,,,,,,,,,,,,,,,,,,,,,,,,,,,
,,,,,,,,,,,,,,,,,,,,,,,,,,,,,,,,,,,,,,,,,,,space,948980,24,2020-08-14_00h09.27.514,CDT_GNG_IUS12,2020.1.2,Win32,60,,,,,,,,,,,,,,,,,0,1,,space,1,0,6,6,36,1,0.251345,,,,,,,,,,,,,,,,,,,,,,,,,,,,,,
,,,,,,,,,,,,,,,,,,,,,,,,,,,,,,,,,,,,,,,,,,,space,948980,24,2020-08-14_00h09.27.514,CDT_GNG_IUS12,2020.1.2,Win32,60,,,,,,,,,,,,,,,,,0,1,,space,1,0,7,7,10,1,0.34814,,,,,,,,,,,,,,,,,,,,,,,,,,,,,,
,,,,,,,,,,,,,,,,,,,,,,,,,,,,,,,,,,,,,,,,,,,space,948980,24,2020-08-14_00h09.27.514,CDT_GNG_IUS12,2020.1.2,Win32,60,,,,,,,,,,,,,,,,,0,1,,,0,0,8,8,11,1,,,,,,,,,,,,,,,,,,,,,,,,,,,,,,,
,,,,,,,,,,,,,,,,,,,,,,,,,,,,,,,,,,,,,,,,,,,,948980,24,2020-08-14_00h09.27.514,CDT_GNG_IUS12,2020.1.2,Win32,60,,,,,,,,,,,,,,,,,1,0,,,1,0,9,9,2,1,,,,,,,,,,,,,,,,,,,,,,,,,,,,,,,
,,,,,,,,,,,,,,,,,,,,,,,,,,,,,,,,,,,,,,,,,,,space,948980,24,2020-08-14_00h09.27.514,CDT_GNG_IUS12,2020.1.2,Win32,60,,,,,,,,,,,,,,,,,0,1,,space,1,0,10,10,32,1,0.314925,,,,,,,,,,,,,,,,,,,,,,,,,,,,,,
,,,,,,,,,,,,,,,,,,,,,,,,,,,,,,,,,,,,,,,,,,,space,948980,24,2020-08-14_00h09.27.514,CDT_GNG_IUS12,2020.1.2,Win32,60,,,,,,,,,,,,,,,,,0,1,,space,1,0,11,11,43,1,0.469335,,,,,,,,,,,,,,,,,,,,,,,,,,,,,,
,,,,,,,,,,,,,,,,,,,,,,,,,,,,,,,,,,,,,,,,,,,space,948980,24,2020-08-14_00h09.27.514,CDT_GNG_IUS12,2020.1.2,Win32,60,,,,,,,,,,,,,,,,,0,1,,,0,0,12,12,34,1,,,,,,,,,,,,,,,,,,,,,,,,,,,,,,,
,,,,,,,,,,,,,,,,,,,,,,,,,,,,,,,,,,,,,,,,,,,space,948980,24,2020-08-14_00h09.27.514,CDT_GNG_IUS12,2020.1.2,Win32,60,,,,,,,,,,,,,,,,,0,1,,space,1,0,13,13,16,1,0.164915,,,,,,,,,,,,,,,,,,,,,,,,,,,,,,
,,,,,,,,,,,,,,,,,,,,,,,,,,,,,,,,,,,,,,,,,,,space,948980,24,2020-08-14_00h09.27.514,CDT_GNG_IUS12,2020.1.2,Win32,60,,,,,,,,,,,,,,,,,0,1,,space,1,0,14,14,29,1,0.28459,,,,,,,,,,,,,,,,,,,,,,,,,,,,,,
,,,,,,,,,,,,,,,,,,,,,,,,,,,,,,,,,,,,,,,,,,,space,948980,24,2020-08-14_00h09.27.514,CDT_GNG_IUS12,2020.1.2,Win32,60,,,,,,,,,,,,,,,,,0,1,,space,1,0,15,15,47,1,0.32383,,,,,,,,,,,,,,,,,,,,,,,,,,,,,,
,,,,,,,,,,,,,,,,,,,,,,,,,,,,,,,,,,,,,,,,,,,space,948980,24,2020-08-14_00h09.27.514,CDT_GNG_IUS12,2020.1.2,Win32,60,,,,,,,,,,,,,,,,,0,1,,space,1,0,16,16,25,1,0.534185,,,,,,,,,,,,,,,,,,,,,,,,,,,,,,
,,,,,,,,,,,,,,,,,,,,,,,,,,,,,,,,,,,,,,,,,,,space,948980,24,2020-08-14_00h09.27.514,CDT_GNG_IUS12,2020.1.2,Win32,60,,,,,,,,,,,,,,,,,0,1,,,0,0,17,17,31,1,,,,,,,,,,,,,,,,,,,,,,,,,,,,,,,
,,,,,,,,,,,,,,,,,,,,,,,,,,,,,,,,,,,,,,,,,,,space,948980,24,2020-08-14_00h09.27.514,CDT_GNG_IUS12,2020.1.2,Win32,60,,,,,,,,,,,,,,,,,0,1,,space,1,0,18,18,28,1,0.16857,,,,,,,,,,,,,,,,,,,,,,,,,,,,,,
,,,,,,,,,,,,,,,,,,,,,,,,,,,,,,,,,,,,,,,,,,,space,948980,24,2020-08-14_00h09.27.514,CDT_GNG_IUS12,2020.1.2,Win32,60,,,,,,,,,,,,,,,,,0,1,,space,1,0,19,19,13,1,0.283445,,,,,,,,,,,,,,,,,,,,,,,,,,,,,,
,,,,,,,,,,,,,,,,,,,,,,,,,,,,,,,,,,,,,,,,,,,space,948980,24,2020-08-14_00h09.27.514,CDT_GNG_IUS12,2020.1.2,Win32,60,,,,,,,,,,,,,,,,,0,1,,space,1,0,20,20,48,1,0.27505,,,,,,,,,,,,,,,,,,,,,,,,,,,,,,
,,,,,,,,,,,,,,,,,,,,,,,,,,,,,,,,,,,,,,,,,,,,948980,24,2020-08-14_00h09.27.514,CDT_GNG_IUS12,2020.1.2,Win32,60,,,,,,,,,,,,,,,,,1,0,,,1,0,21,21,1,1,,,,,,,,,,,,,,,,,,,,,,,,,,,,,,,
,,,,,,,,,,,,,,,,,,,,,,,,,,,,,,,,,,,,,,,,,,,space,948980,24,2020-08-14_00h09.27.514,CDT_GNG_IUS12,2020.1.2,Win32,60,,,,,,,,,,,,,,,,,0,1,,space,1,0,22,22,39,1,0.247525,,,,,,,,,,,,,,,,,,,,,,,,,,,,,,
,,,,,,,,,,,,,,,,,,,,,,,,,,,,,,,,,,,,,,,,,,,space,948980,24,2020-08-14_00h09.27.514,CDT_GNG_IUS12,2020.1.2,Win32,60,,,,,,,,,,,,,,,,,0,1,,space,1,0,23,23,21,1,0.264,,,,,,,,,,,,,,,,,,,,,,,,,,,,,,
,,,,,,,,,,,,,,,,,,,,,,,,,,,,,,,,,,,,,,,,,,,space,948980,24,2020-08-14_00h09.27.514,CDT_GNG_IUS12,2020.1.2,Win32,60,,,,,,,,,,,,,,,,,0,1,,space,1,0,24,24,17,1,0.40125,,,,,,,,,,,,,,,,,,,,,,,,,,,,,,
,,,,,,,,,,,,,,,,,,,,,,,,,,,,,,,,,,,,,,,,,,,space,948980,24,2020-08-14_00h09.27.514,CDT_GNG_IUS12,2020.1.2,Win32,60,,,,,,,,,,,,,,,,,0,1,,space,1,0,25,25,42,1,0.46503,,,,,,,,,,,,,,,,,,,,,,,,,,,,,,
,,,,,,,,,,,,,,,,,,,,,,,,,,,,,,,,,,,,,,,,,,,space,948980,24,2020-08-14_00h09.27.514,CDT_GNG_IUS12,2020.1.2,Win32,60,,,,,,,,,,,,,,,,,0,1,,,0,0,26,26,19,1,,,,,,,,,,,,,,,,,,,,,,,,,,,,,,,
,,,,,,,,,,,,,,,,,,,,,,,,,,,,,,,,,,,,,,,,,,,space,948980,24,2020-08-14_00h09.27.514,CDT_GNG_IUS12,2020.1.2,Win32,60,,,,,,,,,,,,,,,,,0,1,,space,1,0,27,27,41,1,0.194725,,,,,,,,,,,,,,,,,,,,,,,,,,,,,,
,,,,,,,,,,,,,,,,,,,,,,,,,,,,,,,,,,,,,,,,,,,space,948980,24,2020-08-14_00h09.27.514,CDT_GNG_IUS12,2020.1.2,Win32,60,,,,,,,,,,,,,,,,,0,1,,space,1,0,28,28,30,1,0.173245,,,,,,,,,,,,,,,,,,,,,,,,,,,,,,
,,,,,,,,,,,,,,,,,,,,,,,,,,,,,,,,,,,,,,,,,,,space,948980,24,2020-08-14_00h09.27.514,CDT_GNG_IUS12,2020.1.2,Win32,60,,,,,,,,,,,,,,,,,0,1,,space,1,0,29,29,23,1,0.230555,,,,,,,,,,,,,,,,,,,,,,,,,,,,,,
,,,,,,,,,,,,,,,,,,,,,,,,,,,,,,,,,,,,,,,,,,,space,948980,24,2020-08-14_00h09.27.514,CDT_GNG_IUS12,2020.1.2,Win32,60,,,,,,,,,,,,,,,,,0,1,,space,1,0,30,30,46,1,0.264735,,,,,,,,,,,,,,,,,,,,,,,,,,,,,,
,,,,,,,,,,,,,,,,,,,,,,,,,,,,,,,,,,,,,,,,,,,space,948980,24,2020-08-14_00h09.27.514,CDT_GNG_IUS12,2020.1.2,Win32,60,,,,,,,,,,,,,,,,,0,1,,space,1,0,31,31,24,1,0.23958,,,,,,,,,,,,,,,,,,,,,,,,,,,,,,
,,,,,,,,,,,,,,,,,,,,,,,,,,,,,,,,,,,,,,,,,,,space,948980,24,2020-08-14_00h09.27.514,CDT_GNG_IUS12,2020.1.2,Win32,60,,,,,,,,,,,,,,,,,0,1,,space,1,0,32,32,26,1,0.260305,,,,,,,,,,,,,,,,,,,,,,,,,,,,,,
,,,,,,,,,,,,,,,,,,,,,,,,,,,,,,,,,,,,,,,,,,,space,948980,24,2020-08-14_00h09.27.514,CDT_GNG_IUS12,2020.1.2,Win32,60,,,,,,,,,,,,,,,,,0,1,,space,1,0,33,33,37,1,0.28597,,,,,,,,,,,,,,,,,,,,,,,,,,,,,,
,,,,,,,,,,,,,,,,,,,,,,,,,,,,,,,,,,,,,,,,,,,space,948980,24,2020-08-14_00h09.27.514,CDT_GNG_IUS12,2020.1.2,Win32,60,,,,,,,,,,,,,,,,,0,1,,space,1,0,34,34,49,1,0.327645,,,,,,,,,,,,,,,,,,,,,,,,,,,,,,
,,,,,,,,,,,,,,,,,,,,,,,,,,,,,,,,,,,,,,,,,,,,948980,24,2020-08-14_00h09.27.514,CDT_GNG_IUS12,2020.1.2,Win32,60,,,,,,,,,,,,,,,,,1,0,,,1,0,35,35,9,1,,,,,,,,,,,,,,,,,,,,,,,,,,,,,,,
,,,,,,,,,,,,,,,,,,,,,,,,,,,,,,,,,,,,,,,,,,,,948980,24,2020-08-14_00h09.27.514,CDT_GNG_IUS12,2020.1.2,Win32,60,,,,,,,,,,,,,,,,,1,0,,space,0,0,36,36,3,1,0.22927,,,,,,,,,,,,,,,,,,,,,,,,,,,,,,
,,,,,,,,,,,,,,,,,,,,,,,,,,,,,,,,,,,,,,,,,,,space,948980,24,2020-08-14_00h09.27.514,CDT_GNG_IUS12,2020.1.2,Win32,60,,,,,,,,,,,,,,,,,0,1,,space,1,0,37,37,33,1,0.363495,,,,,,,,,,,,,,,,,,,,,,,,,,,,,,
,,,,,,,,,,,,,,,,,,,,,,,,,,,,,,,,,,,,,,,,,,,space,948980,24,2020-08-14_00h09.27.514,CDT_GNG_IUS12,2020.1.2,Win32,60,,,,,,,,,,,,,,,,,0,1,,space,1,0,38,38,20,1,0.4005,,,,,,,,,,,,,,,,,,,,,,,,,,,,,,
,,,,,,,,,,,,,,,,,,,,,,,,,,,,,,,,,,,,,,,,,,,,948980,24,2020-08-14_00h09.27.514,CDT_GNG_IUS12,2020.1.2,Win32,60,,,,,,,,,,,,,,,,,1,0,,,1,0,39,39,6,1,,,,,,,,,,,,,,,,,,,,,,,,,,,,,,,
,,,,,,,,,,,,,,,,,,,,,,,,,,,,,,,,,,,,,,,,,,,space,948980,24,2020-08-14_00h09.27.514,CDT_GNG_IUS12,2020.1.2,Win32,60,,,,,,,,,,,,,,,,,0,1,,space,1,0,40,40,12,1,0.261815,,,,,,,,,,,,,,,,,,,,,,,,,,,,,,
,,,,,,,,,,,,,,,,,,,,,,,,,,,,,,,,,,,,,,,,,,,space,948980,24,2020-08-14_00h09.27.514,CDT_GNG_IUS12,2020.1.2,Win32,60,,,,,,,,,,,,,,,,,0,1,,space,1,0,41,41,44,1,0.325515,,,,,,,,,,,,,,,,,,,,,,,,,,,,,,
,,,,,,,,,,,,,,,,,,,,,,,,,,,,,,,,,,,,,,,,,,,,948980,24,2020-08-14_00h09.27.514,CDT_GNG_IUS12,2020.1.2,Win32,60,,,,,,,,,,,,,,,,,1,0,,,1,0,42,42,7,1,,,,,,,,,,,,,,,,,,,,,,,,,,,,,,,
,,,,,,,,,,,,,,,,,,,,,,,,,,,,,,,,,,,,,,,,,,,space,948980,24,2020-08-14_00h09.27.514,CDT_GNG_IUS12,2020.1.2,Win32,60,,,,,,,,,,,,,,,,,0,1,,space,1,0,43,43,40,1,0.22102,,,,,,,,,,,,,,,,,,,,,,,,,,,,,,
,,,,,,,,,,,,,,,,,,,,,,,,,,,,,,,,,,,,,,,,,,,space,948980,24,2020-08-14_00h09.27.514,CDT_GNG_IUS12,2020.1.2,Win32,60,,,,,,,,,,,,,,,,,0,1,,space,1,0,44,44,38,1,0.36804,,,,,,,,,,,,,,,,,,,,,,,,,,,,,,
,,,,,,,,,,,,,,,,,,,,,,,,,,,,,,,,,,,,,,,,,,,space,948980,24,2020-08-14_00h09.27.514,CDT_GNG_IUS12,2020.1.2,Win32,60,,,,,,,,,,,,,,,,,0,1,,space,1,0,45,45,18,1,0.470445,,,,,,,,,,,,,,,,,,,,,,,,,,,,,,
,,,,,,,,,,,,,,,,,,,,,,,,,,,,,,,,,,,,,,,,,,,space,948980,24,2020-08-14_00h09.27.514,CDT_GNG_IUS12,2020.1.2,Win32,60,,,,,,,,,,,,,,,,,0,1,,space,1,0,46,46,14,1,0.512975,,,,,,,,,,,,,,,,,,,,,,,,,,,,,,
,,,,,,,,,,,,,,,,,,,,,,,,,,,,,,,,,,,,,,,,,,,,948980,24,2020-08-14_00h09.27.514,CDT_GNG_IUS12,2020.1.2,Win32,60,,,,,,,,,,,,,,,,,1,0,,,1,0,47,47,8,1,,,,,,,,,,,,,,,,,,,,,,,,,,,,,,,
,,,,,,,,,,,,,,,,,,,,,,,,,,,,,,,,,,,,,,,,,,,space,948980,24,2020-08-14_00h09.27.514,CDT_GNG_IUS12,2020.1.2,Win32,60,,,,,,,,,,,,,,,,,0,1,,space,1,0,48,48,35,1,0.225505,,,,,,,,,,,,,,,,,,,,,,,,,,,,,,
,,,,,,,,,,,,,,,,,,,,,,,,,,,,,,,,,,,,,,,,,,,,948980,24,2020-08-14_00h09.27.514,CDT_GNG_IUS12,2020.1.2,Win32,60,,,,,,,,,,,,,,,,,1,0,,space,0,0,49,49,4,1,0.53392,,,,,,,,,,,,,,,,,,,,,,,,,,,,,,
,,,,,,,,,,,,,,,,,,,,,,,,,,,,,,,,,,,,,,,,,,,space,948980,24,2020-08-14_00h09.27.514,CDT_GNG_IUS12,2020.1.2,Win32,60,,,,,,,,,,,,,,,,,0,1,,space,1,,,,,,0.30053,0,0,0,36,1,,,,,,,,,,,,,,,,,,,,,,,,,
,,,,,,,,,,,,,,,,,,,,,,,,,,,,,,,,,,,,,,,,,,,space,948980,24,2020-08-14_00h09.27.514,CDT_GNG_IUS12,2020.1.2,Win32,60,,,,,,,,,,,,,,,,,0,1,,space,1,,,,,,0.234315,0,1,1,35,1,,,,,,,,,,,,,,,,,,,,,,,,,
,,,,,,,,,,,,,,,,,,,,,,,,,,,,,,,,,,,,,,,,,,,,948980,24,2020-08-14_00h09.27.514,CDT_GNG_IUS12,2020.1.2,Win32,60,,,,,,,,,,,,,,,,,1,0,,space,0,,,,,,0.215915,0,2,2,7,1,,,,,,,,,,,,,,,,,,,,,,,,,
,,,,,,,,,,,,,,,,,,,,,,,,,,,,,,,,,,,,,,,,,,,space,948980,24,2020-08-14_00h09.27.514,CDT_GNG_IUS12,2020.1.2,Win32,60,,,,,,,,,,,,,,,,,0,1,,space,1,,,,,,0.242575,0,3,3,12,1,,,,,,,,,,,,,,,,,,,,,,,,,
,,,,,,,,,,,,,,,,,,,,,,,,,,,,,,,,,,,,,,,,,,,space,948980,24,2020-08-14_00h09.27.514,CDT_GNG_IUS12,2020.1.2,Win32,60,,,,,,,,,,,,,,,,,0,1,,space,1,,,,,,0.26048,0,4,4,20,1,,,,,,,,,,,,,,,,,,,,,,,,,
,,,,,,,,,,,,,,,,,,,,,,,,,,,,,,,,,,,,,,,,,,,space,948980,24,2020-08-14_00h09.27.514,CDT_GNG_IUS12,2020.1.2,Win32,60,,,,,,,,,,,,,,,,,0,1,,space,1,,,,,,0.28694,0,5,5,10,1,,,,,,,,,,,,,,,,,,,,,,,,,
,,,,,,,,,,,,,,,,,,,,,,,,,,,,,,,,,,,,,,,,,,,,948980,24,2020-08-14_00h09.27.514,CDT_GNG_IUS12,2020.1.2,Win32,60,,,,,,,,,,,,,,,,,1,0,,space,0,,,,,,0.25162,0,6,6,0,1,,,,,,,,,,,,,,,,,,,,,,,,,
,,,,,,,,,,,,,,,,,,,,,,,,,,,,,,,,,,,,,,,,,,,space,948980,24,2020-08-14_00h09.27.514,CDT_GNG_IUS12,2020.1.2,Win32,60,,,,,,,,,,,,,,,,,0,1,,space,1,,,,,,0.217155,0,7,7,25,1,,,,,,,,,,,,,,,,,,,,,,,,,
,,,,,,,,,,,,,,,,,,,,,,,,,,,,,,,,,,,,,,,,,,,space,948980,24,2020-08-14_00h09.27.514,CDT_GNG_IUS12,2020.1.2,Win32,60,,,,,,,,,,,,,,,,,0,1,,space,1,,,,,,0.274665,0,8,8,45,1,,,,,,,,,,,,,,,,,,,,,,,,,
,,,,,,,,,,,,,,,,,,,,,,,,,,,,,,,,,,,,,,,,,,,space,948980,24,2020-08-14_00h09.27.514,CDT_GNG_IUS12,2020.1.2,Win32,60,,,,,,,,,,,,,,,,,0,1,,space,1,,,,,,0.26683,0,9,9,14,1,,,,,,,,,,,,,,,,,,,,,,,,,
,,,,,,,,,,,,,,,,,,,,,,,,,,,,,,,,,,,,,,,,,,,space,948980,24,2020-08-14_00h09.27.514,CDT_GNG_IUS12,2020.1.2,Win32,60,,,,,,,,,,,,,,,,,0,1,,space,1,,,,,,0.24887,0,10,10,31,1,,,,,,,,,,,,,,,,,,,,,,,,,
,,,,,,,,,,,,,,,,,,,,,,,,,,,,,,,,,,,,,,,,,,,space,948980,24,2020-08-14_00h09.27.514,CDT_GNG_IUS12,2020.1.2,Win32,60,,,,,,,,,,,,,,,,,0,1,,space,1,,,,,,0.23528,0,11,11,49,1,,,,,,,,,,,,,,,,,,,,,,,,,
,,,,,,,,,,,,,,,,,,,,,,,,,,,,,,,,,,,,,,,,,,,space,948980,24,2020-08-14_00h09.27.514,CDT_GNG_IUS12,2020.1.2,Win32,60,,,,,,,,,,,,,,,,,0,1,,space,1,,,,,,0.216465,0,12,12,15,1,,,,,,,,,,,,,,,,,,,,,,,,,
,,,,,,,,,,,,,,,,,,,,,,,,,,,,,,,,,,,,,,,,,,,space,948980,24,2020-08-14_00h09.27.514,CDT_GNG_IUS12,2020.1.2,Win32,60,,,,,,,,,,,,,,,,,0,1,,space,1,,,,,,0.22246,0,13,13,33,1,,,,,,,,,,,,,,,,,,,,,,,,,
,,,,,,,,,,,,,,,,,,,,,,,,,,,,,,,,,,,,,,,,,,,space,948980,24,2020-08-14_00h09.27.514,CDT_GNG_IUS12,2020.1.2,Win32,60,,,,,,,,,,,,,,,,,0,1,,space,1,,,,,,0.24496,0,14,14,32,1,,,,,,,,,,,,,,,,,,,,,,,,,
,,,,,,,,,,,,,,,,,,,,,,,,,,,,,,,,,,,,,,,,,,,space,948980,24,2020-08-14_00h09.27.514,CDT_GNG_IUS12,2020.1.2,Win32,60,,,,,,,,,,,,,,,,,0,1,,space,1,,,,,,0.231245,0,15,15,46,1,,,,,,,,,,,,,,,,,,,,,,,,,
,,,,,,,,,,,,,,,,,,,,,,,,,,,,,,,,,,,,,,,,,,,space,948980,24,2020-08-14_00h09.27.514,CDT_GNG_IUS12,2020.1.2,Win32,60,,,,,,,,,,,,,,,,,0,1,,space,1,,,,,,0.21548,0,16,16,37,1,,,,,,,,,,,,,,,,,,,,,,,,,
,,,,,,,,,,,,,,,,,,,,,,,,,,,,,,,,,,,,,,,,,,,,948980,24,2020-08-14_00h09.27.514,CDT_GNG_IUS12,2020.1.2,Win32,60,,,,,,,,,,,,,,,,,1,0,,space,0,,,,,,0.214025,0,17,17,1,1,,,,,,,,,,,,,,,,,,,,,,,,,
,,,,,,,,,,,,,,,,,,,,,,,,,,,,,,,,,,,,,,,,,,,space,948980,24,2020-08-14_00h09.27.514,CDT_GNG_IUS12,2020.1.2,Win32,60,,,,,,,,,,,,,,,,,0,1,,space,1,,,,,,0.27787,0,18,18,40,1,,,,,,,,,,,,,,,,,,,,,,,,,
,,,,,,,,,,,,,,,,,,,,,,,,,,,,,,,,,,,,,,,,,,,space,948980,24,2020-08-14_00h09.27.514,CDT_GNG_IUS12,2020.1.2,Win32,60,,,,,,,,,,,,,,,,,0,1,,space,1,,,,,,0.38292,0,19,19,34,1,,,,,,,,,,,,,,,,,,,,,,,,,
,,,,,,,,,,,,,,,,,,,,,,,,,,,,,,,,,,,,,,,,,,,,948980,24,2020-08-14_00h09.27.514,CDT_GNG_IUS12,2020.1.2,Win32,60,,,,,,,,,,,,,,,,,1,0,,,1,,,,,,,0,20,20,2,1,,,,,,,,,,,,,,,,,,,,,,,,,
,,,,,,,,,,,,,,,,,,,,,,,,,,,,,,,,,,,,,,,,,,,space,948980,24,2020-08-14_00h09.27.514,CDT_GNG_IUS12,2020.1.2,Win32,60,,,,,,,,,,,,,,,,,0,1,,space,1,,,,,,0.38125,0,21,21,13,1,,,,,,,,,,,,,,,,,,,,,,,,,
,,,,,,,,,,,,,,,,,,,,,,,,,,,,,,,,,,,,,,,,,,,space,948980,24,2020-08-14_00h09.27.514,CDT_GNG_IUS12,2020.1.2,Win32,60,,,,,,,,,,,,,,,,,0,1,,space,1,,,,,,0.396365,0,22,22,17,1,,,,,,,,,,,,,,,,,,,,,,,,,
,,,,,,,,,,,,,,,,,,,,,,,,,,,,,,,,,,,,,,,,,,,space,948980,24,2020-08-14_00h09.27.514,CDT_GNG_IUS12,2020.1.2,Win32,60,,,,,,,,,,,,,,,,,0,1,,space,1,,,,,,0.42953,0,23,23,48,1,,,,,,,,,,,,,,,,,,,,,,,,,
,,,,,,,,,,,,,,,,,,,,,,,,,,,,,,,,,,,,,,,,,,,space,948980,24,2020-08-14_00h09.27.514,CDT_GNG_IUS12,2020.1.2,Win32,60,,,,,,,,,,,,,,,,,0,1,,space,1,,,,,,0.465505,0,24,24,41,1,,,,,,,,,,,,,,,,,,,,,,,,,
,,,,,,,,,,,,,,,,,,,,,,,,,,,,,,,,,,,,,,,,,,,space,948980,24,2020-08-14_00h09.27.514,CDT_GNG_IUS12,2020.1.2,Win32,60,,,,,,,,,,,,,,,,,0,1,,space,1,,,,,,0.55496,0,25,25,30,1,,,,,,,,,,,,,,,,,,,,,,,,,
,,,,,,,,,,,,,,,,,,,,,,,,,,,,,,,,,,,,,,,,,,,space,948980,24,2020-08-14_00h09.27.514,CDT_GNG_IUS12,2020.1.2,Win32,60,,,,,,,,,,,,,,,,,0,1,,,0,,,,,,,0,26,26,11,1,,,,,,,,,,,,,,,,,,,,,,,,,
,,,,,,,,,,,,,,,,,,,,,,,,,,,,,,,,,,,,,,,,,,,space,948980,24,2020-08-14_00h09.27.514,CDT_GNG_IUS12,2020.1.2,Win32,60,,,,,,,,,,,,,,,,,0,1,,space,1,,,,,,0.08716,0,27,27,29,1,,,,,,,,,,,,,,,,,,,,,,,,,
,,,,,,,,,,,,,,,,,,,,,,,,,,,,,,,,,,,,,,,,,,,space,948980,24,2020-08-14_00h09.27.514,CDT_GNG_IUS12,2020.1.2,Win32,60,,,,,,,,,,,,,,,,,0,1,,space,1,,,,,,0.202725,0,28,28,18,1,,,,,,,,,,,,,,,,,,,,,,,,,
,,,,,,,,,,,,,,,,,,,,,,,,,,,,,,,,,,,,,,,,,,,space,948980,24,2020-08-14_00h09.27.514,CDT_GNG_IUS12,2020.1.2,Win32,60,,,,,,,,,,,,,,,,,0,1,,space,1,,,,,,0.220775,0,29,29,21,1,,,,,,,,,,,,,,,,,,,,,,,,,
,,,,,,,,,,,,,,,,,,,,,,,,,,,,,,,,,,,,,,,,,,,space,948980,24,2020-08-14_00h09.27.514,CDT_GNG_IUS12,2020.1.2,Win32,60,,,,,,,,,,,,,,,,,0,1,,space,1,,,,,,0.262395,0,30,30,16,1,,,,,,,,,,,,,,,,,,,,,,,,,
,,,,,,,,,,,,,,,,,,,,,,,,,,,,,,,,,,,,,,,,,,,space,948980,24,2020-08-14_00h09.27.514,CDT_GNG_IUS12,2020.1.2,Win32,60,,,,,,,,,,,,,,,,,0,1,,space,1,,,,,,0.25103,0,31,31,28,1,,,,,,,,,,,,,,,,,,,,,,,,,
,,,,,,,,,,,,,,,,,,,,,,,,,,,,,,,,,,,,,,,,,,,,948980,24,2020-08-14_00h09.27.514,CDT_GNG_IUS12,2020.1.2,Win32,60,,,,,,,,,,,,,,,,,1,0,,space,0,,,,,,0.48789,0,32,32,3,1,,,,,,,,,,,,,,,,,,,,,,,,,
,,,,,,,,,,,,,,,,,,,,,,,,,,,,,,,,,,,,,,,,,,,space,948980,24,2020-08-14_00h09.27.514,CDT_GNG_IUS12,2020.1.2,Win32,60,,,,,,,,,,,,,,,,,0,1,,,0,,,,,,,0,33,33,27,1,,,,,,,,,,,,,,,,,,,,,,,,,
,,,,,,,,,,,,,,,,,,,,,,,,,,,,,,,,,,,,,,,,,,,space,948980,24,2020-08-14_00h09.27.514,CDT_GNG_IUS12,2020.1.2,Win32,60,,,,,,,,,,,,,,,,,0,1,,space,1,,,,,,0.247195,0,34,34,39,1,,,,,,,,,,,,,,,,,,,,,,,,,
,,,,,,,,,,,,,,,,,,,,,,,,,,,,,,,,,,,,,,,,,,,space,948980,24,2020-08-14_00h09.27.514,CDT_GNG_IUS12,2020.1.2,Win32,60,,,,,,,,,,,,,,,,,0,1,,space,1,,,,,,0.459655,0,35,35,43,1,,,,,,,,,,,,,,,,,,,,,,,,,
,,,,,,,,,,,,,,,,,,,,,,,,,,,,,,,,,,,,,,,,,,,space,948980,24,2020-08-14_00h09.27.514,CDT_GNG_IUS12,2020.1.2,Win32,60,,,,,,,,,,,,,,,,,0,1,,,0,,,,,,,0,36,36,24,1,,,,,,,,,,,,,,,,,,,,,,,,,
,,,,,,,,,,,,,,,,,,,,,,,,,,,,,,,,,,,,,,,,,,,space,948980,24,2020-08-14_00h09.27.514,CDT_GNG_IUS12,2020.1.2,Win32,60,,,,,,,,,,,,,,,,,0,1,,space,1,,,,,,0.13668,0,37,37,26,1,,,,,,,,,,,,,,,,,,,,,,,,,
,,,,,,,,,,,,,,,,,,,,,,,,,,,,,,,,,,,,,,,,,,,,948980,24,2020-08-14_00h09.27.514,CDT_GNG_IUS12,2020.1.2,Win32,60,,,,,,,,,,,,,,,,,1,0,,space,0,,,,,,0.22928,0,38,38,9,1,,,,,,,,,,,,,,,,,,,,,,,,,
,,,,,,,,,,,,,,,,,,,,,,,,,,,,,,,,,,,,,,,,,,,space,948980,24,2020-08-14_00h09.27.514,CDT_GNG_IUS12,2020.1.2,Win32,60,,,,,,,,,,,,,,,,,0,1,,space,1,,,,,,0.49119,0,39,39,42,1,,,,,,,,,,,,,,,,,,,,,,,,,
,,,,,,,,,,,,,,,,,,,,,,,,,,,,,,,,,,,,,,,,,,,,948980,24,2020-08-14_00h09.27.514,CDT_GNG_IUS12,2020.1.2,Win32,60,,,,,,,,,,,,,,,,,1,0,,,1,,,,,,,0,40,40,5,1,,,,,,,,,,,,,,,,,,,,,,,,,
,,,,,,,,,,,,,,,,,,,,,,,,,,,,,,,,,,,,,,,,,,,,948980,24,2020-08-14_00h09.27.514,CDT_GNG_IUS12,2020.1.2,Win32,60,,,,,,,,,,,,,,,,,1,0,,space,0,,,,,,0.23159,0,41,41,4,1,,,,,,,,,,,,,,,,,,,,,,,,,
,,,,,,,,,,,,,,,,,,,,,,,,,,,,,,,,,,,,,,,,,,,,948980,24,2020-08-14_00h09.27.514,CDT_GNG_IUS12,2020.1.2,Win32,60,,,,,,,,,,,,,,,,,1,0,,,1,,,,,,,0,42,42,8,1,,,,,,,,,,,,,,,,,,,,,,,,,
,,,,,,,,,,,,,,,,,,,,,,,,,,,,,,,,,,,,,,,,,,,space,948980,24,2020-08-14_00h09.27.514,CDT_GNG_IUS12,2020.1.2,Win32,60,,,,,,,,,,,,,,,,,0,1,,space,1,,,,,,0.33715,0,43,43,22,1,,,,,,,,,,,,,,,,,,,,,,,,,
,,,,,,,,,,,,,,,,,,,,,,,,,,,,,,,,,,,,,,,,,,,space,948980,24,2020-08-14_00h09.27.514,CDT_GNG_IUS12,2020.1.2,Win32,60,,,,,,,,,,,,,,,,,0,1,,space,1,,,,,,0.429215,0,44,44,47,1,,,,,,,,,,,,,,,,,,,,,,,,,
,,,,,,,,,,,,,,,,,,,,,,,,,,,,,,,,,,,,,,,,,,,,948980,24,2020-08-14_00h09.27.514,CDT_GNG_IUS12,2020.1.2,Win32,60,,,,,,,,,,,,,,,,,1,0,,,1,,,,,,,0,45,45,6,1,,,,,,,,,,,,,,,,,,,,,,,,,
,,,,,,,,,,,,,,,,,,,,,,,,,,,,,,,,,,,,,,,,,,,space,948980,24,2020-08-14_00h09.27.514,CDT_GNG_IUS12,2020.1.2,Win32,60,,,,,,,,,,,,,,,,,0,1,,space,1,,,,,,0.369335,0,46,46,23,1,,,,,,,,,,,,,,,,,,,,,,,,,
,,,,,,,,,,,,,,,,,,,,,,,,,,,,,,,,,,,,,,,,,,,space,948980,24,2020-08-14_00h09.27.514,CDT_GNG_IUS12,2020.1.2,Win32,60,,,,,,,,,,,,,,,,,0,1,,space,1,,,,,,0.43421,0,47,47,44,1,,,,,,,,,,,,,,,,,,,,,,,,,
,,,,,,,,,,,,,,,,,,,,,,,,,,,,,,,,,,,,,,,,,,,space,948980,24,2020-08-14_00h09.27.514,CDT_GNG_IUS12,2020.1.2,Win32,60,,,,,,,,,,,,,,,,,0,1,,,0,,,,,,,0,48,48,38,1,,,,,,,,,,,,,,,,,,,,,,,,,
,,,,,,,,,,,,,,,,,,,,,,,,,,,,,,,,,,,,,,,,,,,space,948980,24,2020-08-14_00h09.27.514,CDT_GNG_IUS12,2020.1.2,Win32,60,,,,,,,,,,,,,,,,,0,1,,,0,,,,,,,0,49,49,19,1,,,,,,,,,,,,,,,,,,,,,,,,,
,,,,,,,,,,,,,,,,,,,,,,,,,,,,,,,,,,,,,,,,,,,space,948980,24,2020-08-14_00h09.27.514,CDT_GNG_IUS12,2020.1.2,Win32,60,,,,,,,,,,,,,,,,,0,1,,space,1,,,,,,0.23549,,,,,,0,0,0,38,1,,,,,,,,,,,,,,,,,,,,
,,,,,,,,,,,,,,,,,,,,,,,,,,,,,,,,,,,,,,,,,,,,948980,24,2020-08-14_00h09.27.514,CDT_GNG_IUS12,2020.1.2,Win32,60,,,,,,,,,,,,,,,,,1,0,,space,0,,,,,,0.25191,,,,,,0,1,1,4,1,,,,,,,,,,,,,,,,,,,,
,,,,,,,,,,,,,,,,,,,,,,,,,,,,,,,,,,,,,,,,,,,space,948980,24,2020-08-14_00h09.27.514,CDT_GNG_IUS12,2020.1.2,Win32,60,,,,,,,,,,,,,,,,,0,1,,space,1,,,,,,0.33376,,,,,,0,2,2,35,1,,,,,,,,,,,,,,,,,,,,
,,,,,,,,,,,,,,,,,,,,,,,,,,,,,,,,,,,,,,,,,,,space,948980,24,2020-08-14_00h09.27.514,CDT_GNG_IUS12,2020.1.2,Win32,60,,,,,,,,,,,,,,,,,0,1,,space,1,,,,,,0.317895,,,,,,0,3,3,15,1,,,,,,,,,,,,,,,,,,,,
,,,,,,,,,,,,,,,,,,,,,,,,,,,,,,,,,,,,,,,,,,,,948980,24,2020-08-14_00h09.27.514,CDT_GNG_IUS12,2020.1.2,Win32,60,,,,,,,,,,,,,,,,,1,0,,,1,,,,,,,,,,,,0,4,4,1,1,,,,,,,,,,,,,,,,,,,,
,,,,,,,,,,,,,,,,,,,,,,,,,,,,,,,,,,,,,,,,,,,space,948980,24,2020-08-14_00h09.27.514,CDT_GNG_IUS12,2020.1.2,Win32,60,,,,,,,,,,,,,,,,,0,1,,space,1,,,,,,0.240305,,,,,,0,5,5,27,1,,,,,,,,,,,,,,,,,,,,
,,,,,,,,,,,,,,,,,,,,,,,,,,,,,,,,,,,,,,,,,,,space,948980,24,2020-08-14_00h09.27.514,CDT_GNG_IUS12,2020.1.2,Win32,60,,,,,,,,,,,,,,,,,0,1,,space,1,,,,,,0.171105,,,,,,0,6,6,30,1,,,,,,,,,,,,,,,,,,,,
,,,,,,,,,,,,,,,,,,,,,,,,,,,,,,,,,,,,,,,,,,,space,948980,24,2020-08-14_00h09.27.514,CDT_GNG_IUS12,2020.1.2,Win32,60,,,,,,,,,,,,,,,,,0,1,,space,1,,,,,,0.17271,,,,,,0,7,7,22,1,,,,,,,,,,,,,,,,,,,,
,,,,,,,,,,,,,,,,,,,,,,,,,,,,,,,,,,,,,,,,,,,space,948980,24,2020-08-14_00h09.27.514,CDT_GNG_IUS12,2020.1.2,Win32,60,,,,,,,,,,,,,,,,,0,1,,space,1,,,,,,0.21532,,,,,,0,8,8,24,1,,,,,,,,,,,,,,,,,,,,
,,,,,,,,,,,,,,,,,,,,,,,,,,,,,,,,,,,,,,,,,,,,948980,24,2020-08-14_00h09.27.514,CDT_GNG_IUS12,2020.1.2,Win32,60,,,,,,,,,,,,,,,,,1,0,,space,0,,,,,,0.200685,,,,,,0,9,9,2,1,,,,,,,,,,,,,,,,,,,,
,,,,,,,,,,,,,,,,,,,,,,,,,,,,,,,,,,,,,,,,,,,,948980,24,2020-08-14_00h09.27.514,CDT_GNG_IUS12,2020.1.2,Win32,60,,,,,,,,,,,,,,,,,1,0,,space,0,,,,,,0.231795,,,,,,0,10,10,9,1,,,,,,,,,,,,,,,,,,,,
,,,,,,,,,,,,,,,,,,,,,,,,,,,,,,,,,,,,,,,,,,,space,948980,24,2020-08-14_00h09.27.514,CDT_GNG_IUS12,2020.1.2,Win32,60,,,,,,,,,,,,,,,,,0,1,,space,1,,,,,,0.36844,,,,,,0,11,11,10,1,,,,,,,,,,,,,,,,,,,,
,,,,,,,,,,,,,,,,,,,,,,,,,,,,,,,,,,,,,,,,,,,space,948980,24,2020-08-14_00h09.27.514,CDT_GNG_IUS12,2020.1.2,Win32,60,,,,,,,,,,,,,,,,,0,1,,space,1,,,,,,0.2383,,,,,,0,12,12,48,1,,,,,,,,,,,,,,,,,,,,
,,,,,,,,,,,,,,,,,,,,,,,,,,,,,,,,,,,,,,,,,,,space,948980,24,2020-08-14_00h09.27.514,CDT_GNG_IUS12,2020.1.2,Win32,60,,,,,,,,,,,,,,,,,0,1,,space,1,,,,,,0.219715,,,,,,0,13,13,39,1,,,,,,,,,,,,,,,,,,,,
,,,,,,,,,,,,,,,,,,,,,,,,,,,,,,,,,,,,,,,,,,,space,948980,24,2020-08-14_00h09.27.514,CDT_GNG_IUS12,2020.1.2,Win32,60,,,,,,,,,,,,,,,,,0,1,,space,1,,,,,,0.22094,,,,,,0,14,14,47,1,,,,,,,,,,,,,,,,,,,,
,,,,,,,,,,,,,,,,,,,,,,,,,,,,,,,,,,,,,,,,,,,space,948980,24,2020-08-14_00h09.27.514,CDT_GNG_IUS12,2020.1.2,Win32,60,,,,,,,,,,,,,,,,,0,1,,space,1,,,,,,0.233635,,,,,,0,15,15,14,1,,,,,,,,,,,,,,,,,,,,
,,,,,,,,,,,,,,,,,,,,,,,,,,,,,,,,,,,,,,,,,,,,948980,24,2020-08-14_00h09.27.514,CDT_GNG_IUS12,2020.1.2,Win32,60,,,,,,,,,,,,,,,,,1,0,,space,0,,,,,,0.22125,,,,,,0,16,16,8,1,,,,,,,,,,,,,,,,,,,,
,,,,,,,,,,,,,,,,,,,,,,,,,,,,,,,,,,,,,,,,,,,,948980,24,2020-08-14_00h09.27.514,CDT_GNG_IUS12,2020.1.2,Win32,60,,,,,,,,,,,,,,,,,1,0,,space,0,,,,,,0.23781,,,,,,0,17,17,0,1,,,,,,,,,,,,,,,,,,,,
,,,,,,,,,,,,,,,,,,,,,,,,,,,,,,,,,,,,,,,,,,,space,948980,24,2020-08-14_00h09.27.514,CDT_GNG_IUS12,2020.1.2,Win32,60,,,,,,,,,,,,,,,,,0,1,,space,1,,,,,,0.262505,,,,,,0,18,18,40,1,,,,,,,,,,,,,,,,,,,,
,,,,,,,,,,,,,,,,,,,,,,,,,,,,,,,,,,,,,,,,,,,space,948980,24,2020-08-14_00h09.27.514,CDT_GNG_IUS12,2020.1.2,Win32,60,,,,,,,,,,,,,,,,,0,1,,space,1,,,,,,0.25103,,,,,,0,19,19,25,1,,,,,,,,,,,,,,,,,,,,
,,,,,,,,,,,,,,,,,,,,,,,,,,,,,,,,,,,,,,,,,,,,948980,24,2020-08-14_00h09.27.514,CDT_GNG_IUS12,2020.1.2,Win32,60,,,,,,,,,,,,,,,,,1,0,,space,0,,,,,,0.21775,,,,,,0,20,20,7,1,,,,,,,,,,,,,,,,,,,,
,,,,,,,,,,,,,,,,,,,,,,,,,,,,,,,,,,,,,,,,,,,space,948980,24,2020-08-14_00h09.27.514,CDT_GNG_IUS12,2020.1.2,Win32,60,,,,,,,,,,,,,,,,,0,1,,space,1,,,,,,0.249155,,,,,,0,21,21,36,1,,,,,,,,,,,,,,,,,,,,
,,,,,,,,,,,,,,,,,,,,,,,,,,,,,,,,,,,,,,,,,,,space,948980,24,2020-08-14_00h09.27.514,CDT_GNG_IUS12,2020.1.2,Win32,60,,,,,,,,,,,,,,,,,0,1,,space,1,,,,,,0.265825,,,,,,0,22,22,20,1,,,,,,,,,,,,,,,,,,,,
,,,,,,,,,,,,,,,,,,,,,,,,,,,,,,,,,,,,,,,,,,,space,948980,24,2020-08-14_00h09.27.514,CDT_GNG_IUS12,2020.1.2,Win32,60,,,,,,,,,,,,,,,,,0,1,,space,1,,,,,,0.24764,,,,,,0,23,23,12,1,,,,,,,,,,,,,,,,,,,,
,,,,,,,,,,,,,,,,,,,,,,,,,,,,,,,,,,,,,,,,,,,,948980,24,2020-08-14_00h09.27.514,CDT_GNG_IUS12,2020.1.2,Win32,60,,,,,,,,,,,,,,,,,1,0,,space,0,,,,,,0.263115,,,,,,0,24,24,5,1,,,,,,,,,,,,,,,,,,,,
,,,,,,,,,,,,,,,,,,,,,,,,,,,,,,,,,,,,,,,,,,,space,948980,24,2020-08-14_00h09.27.514,CDT_GNG_IUS12,2020.1.2,Win32,60,,,,,,,,,,,,,,,,,0,1,,space,1,,,,,,0.244665,,,,,,0,25,25,43,1,,,,,,,,,,,,,,,,,,,,
,,,,,,,,,,,,,,,,,,,,,,,,,,,,,,,,,,,,,,,,,,,space,948980,24,2020-08-14_00h09.27.514,CDT_GNG_IUS12,2020.1.2,Win32,60,,,,,,,,,,,,,,,,,0,1,,,0,,,,,,,,,,,,0,26,26,42,1,,,,,,,,,,,,,,,,,,,,
,,,,,,,,,,,,,,,,,,,,,,,,,,,,,,,,,,,,,,,,,,,space,948980,24,2020-08-14_00h09.27.514,CDT_GNG_IUS12,2020.1.2,Win32,60,,,,,,,,,,,,,,,,,0,1,,space,1,,,,,,0.382695,,,,,,0,27,27,31,1,,,,,,,,,,,,,,,,,,,,
,,,,,,,,,,,,,,,,,,,,,,,,,,,,,,,,,,,,,,,,,,,space,948980,24,2020-08-14_00h09.27.514,CDT_GNG_IUS12,2020.1.2,Win32,60,,,,,,,,,,,,,,,,,0,1,,,0,,,,,,,,,,,,0,28,28,32,1,,,,,,,,,,,,,,,,,,,,
,,,,,,,,,,,,,,,,,,,,,,,,,,,,,,,,,,,,,,,,,,,space,948980,24,2020-08-14_00h09.27.514,CDT_GNG_IUS12,2020.1.2,Win32,60,,,,,,,,,,,,,,,,,0,1,,space,1,,,,,,0.22218,,,,,,0,29,29,44,1,,,,,,,,,,,,,,,,,,,,
,,,,,,,,,,,,,,,,,,,,,,,,,,,,,,,,,,,,,,,,,,,space,948980,24,2020-08-14_00h09.27.514,CDT_GNG_IUS12,2020.1.2,Win32,60,,,,,,,,,,,,,,,,,0,1,,,0,,,,,,,,,,,,0,30,30,46,1,,,,,,,,,,,,,,,,,,,,
,,,,,,,,,,,,,,,,,,,,,,,,,,,,,,,,,,,,,,,,,,,space,948980,24,2020-08-14_00h09.27.514,CDT_GNG_IUS12,2020.1.2,Win32,60,,,,,,,,,,,,,,,,,0,1,,space,1,,,,,,0.056955,,,,,,0,31,31,17,1,,,,,,,,,,,,,,,,,,,,
,,,,,,,,,,,,,,,,,,,,,,,,,,,,,,,,,,,,,,,,,,,space,948980,24,2020-08-14_00h09.27.514,CDT_GNG_IUS12,2020.1.2,Win32,60,,,,,,,,,,,,,,,,,0,1,,space,1,,,,,,0.24725,,,,,,0,32,32,45,1,,,,,,,,,,,,,,,,,,,,
,,,,,,,,,,,,,,,,,,,,,,,,,,,,,,,,,,,,,,,,,,,space,948980,24,2020-08-14_00h09.27.514,CDT_GNG_IUS12,2020.1.2,Win32,60,,,,,,,,,,,,,,,,,0,1,,space,1,,,,,,0.272835,,,,,,0,33,33,19,1,,,,,,,,,,,,,,,,,,,,
,,,,,,,,,,,,,,,,,,,,,,,,,,,,,,,,,,,,,,,,,,,space,948980,24,2020-08-14_00h09.27.514,CDT_GNG_IUS12,2020.1.2,Win32,60,,,,,,,,,,,,,,,,,0,1,,space,1,,,,,,0.55859,,,,,,0,34,34,33,1,,,,,,,,,,,,,,,,,,,,
,,,,,,,,,,,,,,,,,,,,,,,,,,,,,,,,,,,,,,,,,,,space,948980,24,2020-08-14_00h09.27.514,CDT_GNG_IUS12,2020.1.2,Win32,60,,,,,,,,,,,,,,,,,0,1,,,0,,,,,,,,,,,,0,35,35,18,1,,,,,,,,,,,,,,,,,,,,
,,,,,,,,,,,,,,,,,,,,,,,,,,,,,,,,,,,,,,,,,,,space,948980,24,2020-08-14_00h09.27.514,CDT_GNG_IUS12,2020.1.2,Win32,60,,,,,,,,,,,,,,,,,0,1,,space,1,,,,,,0.182175,,,,,,0,36,36,21,1,,,,,,,,,,,,,,,,,,,,
,,,,,,,,,,,,,,,,,,,,,,,,,,,,,,,,,,,,,,,,,,,space,948980,24,2020-08-14_00h09.27.514,CDT_GNG_IUS12,2020.1.2,Win32,60,,,,,,,,,,,,,,,,,0,1,,space,1,,,,,,0.398575,,,,,,0,37,37,34,1,,,,,,,,,,,,,,,,,,,,
,,,,,,,,,,,,,,,,,,,,,,,,,,,,,,,,,,,,,,,,,,,space,948980,24,2020-08-14_00h09.27.514,CDT_GNG_IUS12,2020.1.2,Win32,60,,,,,,,,,,,,,,,,,0,1,,,0,,,,,,,,,,,,0,38,38,16,1,,,,,,,,,,,,,,,,,,,,
,,,,,,,,,,,,,,,,,,,,,,,,,,,,,,,,,,,,,,,,,,,space,948980,24,2020-08-14_00h09.27.514,CDT_GNG_IUS12,2020.1.2,Win32,60,,,,,,,,,,,,,,,,,0,1,,space,1,,,,,,0.084175,,,,,,0,39,39,11,1,,,,,,,,,,,,,,,,,,,,
,,,,,,,,,,,,,,,,,,,,,,,,,,,,,,,,,,,,,,,,,,,space,948980,24,2020-08-14_00h09.27.514,CDT_GNG_IUS12,2020.1.2,Win32,60,,,,,,,,,,,,,,,,,0,1,,space,1,,,,,,0.23828,,,,,,0,40,40,26,1,,,,,,,,,,,,,,,,,,,,
,,,,,,,,,,,,,,,,,,,,,,,,,,,,,,,,,,,,,,,,,,,space,948980,24,2020-08-14_00h09.27.514,CDT_GNG_IUS12,2020.1.2,Win32,60,,,,,,,,,,,,,,,,,0,1,,space,1,,,,,,0.363835,,,,,,0,41,41,29,1,,,,,,,,,,,,,,,,,,,,
,,,,,,,,,,,,,,,,,,,,,,,,,,,,,,,,,,,,,,,,,,,space,948980,24,2020-08-14_00h09.27.514,CDT_GNG_IUS12,2020.1.2,Win32,60,,,,,,,,,,,,,,,,,0,1,,space,1,,,,,,0.45739,,,,,,0,42,42,28,1,,,,,,,,,,,,,,,,,,,,
,,,,,,,,,,,,,,,,,,,,,,,,,,,,,,,,,,,,,,,,,,,space,948980,24,2020-08-14_00h09.27.514,CDT_GNG_IUS12,2020.1.2,Win32,60,,,,,,,,,,,,,,,,,0,1,,,0,,,,,,,,,,,,0,43,43,49,1,,,,,,,,,,,,,,,,,,,,
,,,,,,,,,,,,,,,,,,,,,,,,,,,,,,,,,,,,,,,,,,,space,948980,24,2020-08-14_00h09.27.514,CDT_GNG_IUS12,2020.1.2,Win32,60,,,,,,,,,,,,,,,,,0,1,,space,1,,,,,,0.15941,,,,,,0,44,44,13,1,,,,,,,,,,,,,,,,,,,,
,,,,,,,,,,,,,,,,,,,,,,,,,,,,,,,,,,,,,,,,,,,space,948980,24,2020-08-14_00h09.27.514,CDT_GNG_IUS12,2020.1.2,Win32,60,,,,,,,,,,,,,,,,,0,1,,space,1,,,,,,0.259845,,,,,,0,45,45,37,1,,,,,,,,,,,,,,,,,,,,
,,,,,,,,,,,,,,,,,,,,,,,,,,,,,,,,,,,,,,,,,,,space,948980,24,2020-08-14_00h09.27.514,CDT_GNG_IUS12,2020.1.2,Win32,60,,,,,,,,,,,,,,,,,0,1,,space,1,,,,,,0.481175,,,,,,0,46,46,23,1,,,,,,,,,,,,,,,,,,,,
,,,,,,,,,,,,,,,,,,,,,,,,,,,,,,,,,,,,,,,,,,,,948980,24,2020-08-14_00h09.27.514,CDT_GNG_IUS12,2020.1.2,Win32,60,,,,,,,,,,,,,,,,,1,0,,,1,,,,,,,,,,,,0,47,47,6,1,,,,,,,,,,,,,,,,,,,,
,,,,,,,,,,,,,,,,,,,,,,,,,,,,,,,,,,,,,,,,,,,,948980,24,2020-08-14_00h09.27.514,CDT_GNG_IUS12,2020.1.2,Win32,60,,,,,,,,,,,,,,,,,1,0,,space,0,,,,,,0.22536,,,,,,0,48,48,3,1,,,,,,,,,,,,,,,,,,,,
,,,,,,,,,,,,,,,,,,,,,,,,,,,,,,,,,,,,,,,,,,,space,948980,24,2020-08-14_00h09.27.514,CDT_GNG_IUS12,2020.1.2,Win32,60,,,,,,,,,,,,,,,,,0,1,,space,1,,,,,,0.469275,,,,,,0,49,49,41,1,,,,,,,,,,,,,,,,,,,,
,,,,,,,,,,,,,,,,,,,,,,,,,,,,,,,,,,,,,,,,,,,,948980,24,2020-08-14_00h09.27.514,CDT_GNG_IUS12,2020.1.2,Win32,60,,,,,,,,,,,,,,,,,,,,,,,,,,,,,,,,,,,,,,6.111111111,23.65992,0,0,0,0,1,1,"On a scale from 0 to 10, indicate your personal perception of your proficiency level for English (10 being the highest score)",,,,,,,,,,,
,,,,,,,,,,,,,,,,,,,,,,,,,,,,,,,,,,,,,,,,,,,,948980,24,2020-08-14_00h09.27.514,CDT_GNG_IUS12,2020.1.2,Win32,60,,,,,,,,,,,,,,,,,,,,,,,,,,,,,,,,,,,,,,7.046296155,36.935395,0,1,1,1,1,2,"On a scale from 0 to 10, indicate how frequently you are exposed to English (10 being 'always', 0 being 'never')",,,,,,,,,,,
,,,,,,,,,,,,,,,,,,,,,,,,,,,,,,,,,,,,,,,,,,,,948980,24,2020-08-14_00h09.27.514,CDT_GNG_IUS12,2020.1.2,Win32,60,,,,,,,,,,,,,,,,,,,,,,,,,,,,,,,,,,,,,,,,,,,,,,"On a scale from 0 to 10, indicate your personal perception of your proficiency level for English (10 being the highest score)",2.025926095,10.17659,0,0,0,0,1,1,Unforeseen events upset me greatly.,,
,,,,,,,,,,,,,,,,,,,,,,,,,,,,,,,,,,,,,,,,,,,,948980,24,2020-08-14_00h09.27.514,CDT_GNG_IUS12,2020.1.2,Win32,60,,,,,,,,,,,,,,,,,,,,,,,,,,,,,,,,,,,,,,,,,,,,,,"On a scale from 0 to 10, indicate how frequently you are exposed to English (10 being 'always', 0 being 'never')",2.996296353,11.07944,0,1,1,1,1,2,It frustrates me not having all the information I need.,,
,,,,,,,,,,,,,,,,,,,,,,,,,,,,,,,,,,,,,,,,,,,,948980,24,2020-08-14_00h09.27.514,CDT_GNG_IUS12,2020.1.2,Win32,60,,,,,,,,,,,,,,,,,,,,,,,,,,,,,,,,,,,,,,,,,,,,,,,3.96666661,12.955185,0,2,2,2,1,3,One should always look ahead so as to avoid surprises.,,
,,,,,,,,,,,,,,,,,,,,,,,,,,,,,,,,,,,,,,,,,,,,948980,24,2020-08-14_00h09.27.514,CDT_GNG_IUS12,2020.1.2,Win32,60,,,,,,,,,,,,,,,,,,,,,,,,,,,,,,,,,,,,,,,,,,,,,,,1.022222307,10.836945,0,3,3,3,1,4,"A small, unforeseen event can spoil everything, even with the best of planning. ",,
,,,,,,,,,,,,,,,,,,,,,,,,,,,,,,,,,,,,,,,,,,,,948980,24,2020-08-14_00h09.27.514,CDT_GNG_IUS12,2020.1.2,Win32,60,,,,,,,,,,,,,,,,,,,,,,,,,,,,,,,,,,,,,,,,,,,,,,,3,8.32914,0,4,4,4,1,5,I always want to know what the future has in store for me.,,
,,,,,,,,,,,,,,,,,,,,,,,,,,,,,,,,,,,,,,,,,,,,948980,24,2020-08-14_00h09.27.514,CDT_GNG_IUS12,2020.1.2,Win32,60,,,,,,,,,,,,,,,,,,,,,,,,,,,,,,,,,,,,,,,,,,,,,,,1.959259316,7.7785,0,5,5,5,1,6,I can't stand being taken by surprise.,,
,,,,,,,,,,,,,,,,,,,,,,,,,,,,,,,,,,,,,,,,,,,,948980,24,2020-08-14_00h09.27.514,CDT_GNG_IUS12,2020.1.2,Win32,60,,,,,,,,,,,,,,,,,,,,,,,,,,,,,,,,,,,,,,,,,,,,,,,3.951852021,4.52397,0,6,6,6,1,7,I should be able to organize everything in advance,,
,,,,,,,,,,,,,,,,,,,,,,,,,,,,,,,,,,,,,,,,,,,,948980,24,2020-08-14_00h09.27.514,CDT_GNG_IUS12,2020.1.2,Win32,60,,,,,,,,,,,,,,,,,,,,,,,,,,,,,,,,,,,,,,,,,,,,,,,1.981481481,10.270005,0,7,7,7,1,8,Uncertainty keeps me from living a full life.,,
,,,,,,,,,,,,,,,,,,,,,,,,,,,,,,,,,,,,,,,,,,,,948980,24,2020-08-14_00h09.27.514,CDT_GNG_IUS12,2020.1.2,Win32,60,,,,,,,,,,,,,,,,,,,,,,,,,,,,,,,,,,,,,,,,,,,,,,,3.059259203,10.203685,0,8,8,8,1,9,"When it's time to act, uncertainty paralyses me. ",,
,,,,,,,,,,,,,,,,,,,,,,,,,,,,,,,,,,,,,,,,,,,,948980,24,2020-08-14_00h09.27.514,CDT_GNG_IUS12,2020.1.2,Win32,60,,,,,,,,,,,,,,,,,,,,,,,,,,,,,,,,,,,,,,,,,,,,,,,3.992592706,5.828585,0,9,9,9,1,10,"When I am uncertain, I can't function very well. ",,
,,,,,,,,,,,,,,,,,,,,,,,,,,,,,,,,,,,,,,,,,,,,948980,24,2020-08-14_00h09.27.514,CDT_GNG_IUS12,2020.1.2,Win32,60,,,,,,,,,,,,,,,,,,,,,,,,,,,,,,,,,,,,,,,,,,,,,,,1.992592706,4.794755,0,10,10,10,1,11,The smallest doubt can stop me from acting. ,,
,,,,,,,,,,,,,,,,,,,,,,,,,,,,,,,,,,,,,,,,,,,,948980,24,2020-08-14_00h09.27.514,CDT_GNG_IUS12,2020.1.2,Win32,60,,,,,,,,,,,,,,,,,,,,,,,,,,,,,,,,,,,,,,,,,,,,,,,1.951852021,4.290895,0,11,11,11,1,12,I must get away from all uncertain situations. ,,
,,,,,,,,,,,,,,,,,,,,,,,,,,,,,,,,,,,,,,,,,,,,948980,24,2020-08-14_00h09.27.514,CDT_GNG_IUS12,2020.1.2,Win32,60,,,,,,,,,,,,,,,,,,,,,,,,,,,,,,,,,,,,,,,,,,,,,,,,,,,,,,,,x,3.94793
