key_resp_6.keys,key_resp_6.rt,key_resp_2.keys,key_resp_2.corr,key_resp_2.rt,CDT_trials_train.thisRepN,CDT_trials_train.thisTrialN,CDT_trials_train.thisN,CDT_trials_train.thisIndex,CDT_trials_train.ran,trialnum,condit,stimamt,stim1posx,stim1posy,stim1col,stim1opa,stim2posx,stim2posy,stim2col,stim2opa,stim3posx,stim3posy,stim3col,stim3opa,stim4posx,stim4posy,stim4col,stim4opa,stim5posx,stim5posy,stim5col,stim5opa,stim6posx,stim6posy,stim6col,stim6opa,stimsizex,stimsizey,stimdur,targetposx,targetposy,targetcol,corrAns,participant,age,date,expName,psychopyVersion,OS,frameRate,key_resp_5.keys,key_resp.keys,key_resp.corr,key_resp.rt,CDT_trials.thisRepN,CDT_trials.thisTrialN,CDT_trials.thisN,CDT_trials.thisIndex,CDT_trials.ran,key_resp_5.rt,trialResp_Train.keys,trialResp_Train.corr,trialResp_Train.rt,GNGtrials_train.thisRepN,GNGtrials_train.thisTrialN,GNGtrials_train.thisN,GNGtrials_train.thisIndex,GNGtrials_train.ran,orangeOpacity,blueOpacity,trialResp.keys,trialResp.corr,trialResp.rt,GNG_trials_1.thisRepN,GNG_trials_1.thisTrialN,GNG_trials_1.thisN,GNG_trials_1.thisIndex,GNG_trials_1.ran,GNG_trials_2.thisRepN,GNG_trials_2.thisTrialN,GNG_trials_2.thisN,GNG_trials_2.thisIndex,GNG_trials_2.ran,GNG_trials_3.thisRepN,GNG_trials_3.thisTrialN,GNG_trials_3.thisN,GNG_trials_3.thisIndex,GNG_trials_3.ran,slider_2.response,slider_2.rt,engprof_trials.thisRepN,engprof_trials.thisTrialN,engprof_trials.thisN,engprof_trials.thisIndex,engprof_trials.ran,qpnumber,qproficiency,slider.response,slider.rt,IUS12_trials.thisRepN,IUS12_trials.thisTrialN,IUS12_trials.thisN,IUS12_trials.thisIndex,IUS12_trials.ran,qnumber,qenglish,key_resp_end.keys,key_resp_end.rt
y,6.77625,k,1,86.871985,0,0,0,0,1,1,same,4,0.273779233,-0.054755847,black,1,-0.16426754,-0.273779233,magenta,1,-0.16426754,0.16426754,orange,1,0.16426754,0.054755847,yellow,1,0.16426754,-0.054755847,cyan,0,-0.054755847,-0.16426754,blue,0,0.05,0.05,0.15,-0.16426754,0.16426754,orange,k,952875,48,2020-08-19_03h30.15.127,CDT_GNG_IUS12,2020.1.2,Win32,60,,,,,,,,,,,,,,,,,,,,,,,,,,,,,,,,,,,,,,,,,,,,,,,,,,,,,,,,,,
,,l,1,12.360705,0,1,1,1,1,2,different,4,0.054755847,-0.054755847,orange,1,-0.273779233,0.273779233,magenta,1,0.273779233,0.16426754,yellow,1,-0.273779233,-0.16426754,blue,1,0.273779233,-0.054755847,red,0,-0.273779233,0.054755847,cyan,0,0.05,0.05,0.15,-0.273779233,-0.16426754,black,l,952875,48,2020-08-19_03h30.15.127,CDT_GNG_IUS12,2020.1.2,Win32,60,,,,,,,,,,,,,,,,,,,,,,,,,,,,,,,,,,,,,,,,,,,,,,,,,,,,,,,,,,
,,l,0,0.22214,0,2,2,2,1,3,same,6,-0.054755847,0.273779233,green,1,0.273779233,-0.273779233,magenta,1,0.273779233,0.16426754,cyan,1,-0.054755847,-0.054755847,black,1,-0.273779233,0.16426754,orange,1,0.16426754,-0.054755847,blue,1,0.05,0.05,0.15,-0.054755847,0.273779233,green,k,952875,48,2020-08-19_03h30.15.127,CDT_GNG_IUS12,2020.1.2,Win32,60,,,,,,,,,,,,,,,,,,,,,,,,,,,,,,,,,,,,,,,,,,,,,,,,,,,,,,,,,,
,,l,1,0.138975,0,3,3,3,1,4,different,6,0.16426754,-0.054755847,orange,1,-0.054755847,0.273779233,red,1,0.273779233,0.273779233,green,1,-0.054755847,-0.273779233,yellow,1,0.273779233,-0.054755847,blue,1,-0.16426754,0.16426754,black,1,0.05,0.05,0.15,0.273779233,0.273779233,cyan,l,952875,48,2020-08-19_03h30.15.127,CDT_GNG_IUS12,2020.1.2,Win32,60,,,,,,,,,,,,,,,,,,,,,,,,,,,,,,,,,,,,,,,,,,,,,,,,,,,,,,,,,,
,,,,,,,,,,80,same,6,-0.273779233,0.16426754,orange,1,0.054755847,-0.273779233,yellow,1,0.054755847,0.273779233,green,1,-0.16426754,-0.273779233,red,1,-0.16426754,0.273779233,blue,1,0.273779233,-0.16426754,black,1,0.05,0.05,0.15,0.054755847,-0.273779233,yellow,k,952875,48,2020-08-19_03h30.15.127,CDT_GNG_IUS12,2020.1.2,Win32,60,,l,0,1.66055,0,0,0,79,1,,,,,,,,,,,,,,,,,,,,,,,,,,,,,,,,,,,,,,,,,,,,,,,,,
,,,,,,,,,,114,different,6,-0.16426754,0.16426754,black,1,-0.054755847,-0.273779233,orange,1,0.054755847,0.16426754,magenta,1,0.273779233,-0.16426754,green,1,-0.054755847,0.16426754,cyan,1,-0.273779233,-0.273779233,yellow,1,0.05,0.05,0.15,0.054755847,0.16426754,blue,l,952875,48,2020-08-19_03h30.15.127,CDT_GNG_IUS12,2020.1.2,Win32,60,,l,1,1.43231,0,1,1,113,1,,,,,,,,,,,,,,,,,,,,,,,,,,,,,,,,,,,,,,,,,,,,,,,,,
,,,,,,,,,,54,different,4,-0.054755847,-0.054755847,black,1,0.054755847,0.054755847,cyan,1,0.273779233,-0.16426754,green,1,-0.273779233,0.16426754,magenta,1,-0.054755847,-0.16426754,orange,0,0.054755847,0.16426754,blue,0,0.05,0.05,0.15,-0.273779233,0.16426754,orange,l,952875,48,2020-08-19_03h30.15.127,CDT_GNG_IUS12,2020.1.2,Win32,60,,l,1,1.02039,0,2,2,53,1,,,,,,,,,,,,,,,,,,,,,,,,,,,,,,,,,,,,,,,,,,,,,,,,,
,,,,,,,,,,62,same,6,0.054755847,-0.054755847,yellow,1,-0.273779233,-0.16426754,green,1,0.273779233,0.054755847,orange,1,-0.16426754,0.054755847,cyan,1,0.054755847,-0.273779233,red,1,-0.054755847,-0.054755847,blue,1,0.05,0.05,0.15,0.054755847,-0.054755847,yellow,k,952875,48,2020-08-19_03h30.15.127,CDT_GNG_IUS12,2020.1.2,Win32,60,,l,0,1.40801,0,3,3,61,1,,,,,,,,,,,,,,,,,,,,,,,,,,,,,,,,,,,,,,,,,,,,,,,,,
,,,,,,,,,,81,same,6,-0.273779233,-0.273779233,green,1,-0.273779233,0.16426754,blue,1,0.054755847,-0.16426754,black,1,0.273779233,0.054755847,cyan,1,-0.16426754,-0.273779233,orange,1,-0.054755847,0.054755847,red,1,0.05,0.05,0.15,0.054755847,-0.16426754,black,k,952875,48,2020-08-19_03h30.15.127,CDT_GNG_IUS12,2020.1.2,Win32,60,,k,1,1.41057,0,4,4,80,1,,,,,,,,,,,,,,,,,,,,,,,,,,,,,,,,,,,,,,,,,,,,,,,,,
,,,,,,,,,,47,different,4,-0.16426754,-0.054755847,orange,1,0.273779233,0.054755847,black,1,-0.16426754,0.16426754,red,1,0.273779233,-0.16426754,blue,1,-0.054755847,-0.273779233,green,0,0.16426754,0.16426754,yellow,0,0.05,0.05,0.15,0.273779233,0.054755847,red,l,952875,48,2020-08-19_03h30.15.127,CDT_GNG_IUS12,2020.1.2,Win32,60,,l,1,1.11581,0,5,5,46,1,,,,,,,,,,,,,,,,,,,,,,,,,,,,,,,,,,,,,,,,,,,,,,,,,
,,,,,,,,,,119,different,6,-0.273779233,0.054755847,cyan,1,-0.273779233,-0.273779233,blue,1,0.16426754,0.054755847,orange,1,0.054755847,-0.16426754,yellow,1,-0.273779233,0.273779233,black,1,-0.054755847,-0.054755847,green,1,0.05,0.05,0.15,-0.273779233,-0.273779233,cyan,l,952875,48,2020-08-19_03h30.15.127,CDT_GNG_IUS12,2020.1.2,Win32,60,,l,1,1.596405,0,6,6,118,1,,,,,,,,,,,,,,,,,,,,,,,,,,,,,,,,,,,,,,,,,,,,,,,,,
,,,,,,,,,,1,same,4,-0.16426754,-0.273779233,orange,1,0.054755847,0.16426754,yellow,1,-0.16426754,0.16426754,green,1,0.054755847,-0.054755847,red,1,-0.273779233,-0.16426754,cyan,0,0.16426754,0.16426754,blue,0,0.05,0.05,0.15,0.054755847,0.16426754,yellow,k,952875,48,2020-08-19_03h30.15.127,CDT_GNG_IUS12,2020.1.2,Win32,60,,k,1,1.250075,0,7,7,0,1,,,,,,,,,,,,,,,,,,,,,,,,,,,,,,,,,,,,,,,,,,,,,,,,,
,,,,,,,,,,65,same,6,-0.273779233,-0.16426754,cyan,1,-0.054755847,0.054755847,blue,1,0.054755847,-0.054755847,red,1,0.273779233,0.054755847,green,1,-0.16426754,-0.054755847,orange,1,-0.273779233,0.273779233,yellow,1,0.05,0.05,0.15,-0.273779233,-0.16426754,cyan,k,952875,48,2020-08-19_03h30.15.127,CDT_GNG_IUS12,2020.1.2,Win32,60,,k,1,1.67953,0,8,8,64,1,,,,,,,,,,,,,,,,,,,,,,,,,,,,,,,,,,,,,,,,,,,,,,,,,
,,,,,,,,,,24,same,4,0.054755847,-0.16426754,red,1,0.054755847,0.054755847,yellow,1,-0.273779233,0.16426754,orange,1,-0.273779233,-0.16426754,magenta,1,0.273779233,-0.16426754,black,0,0.273779233,0.273779233,green,0,0.05,0.05,0.15,0.054755847,-0.16426754,red,k,952875,48,2020-08-19_03h30.15.127,CDT_GNG_IUS12,2020.1.2,Win32,60,,k,1,1.33472,0,9,9,23,1,,,,,,,,,,,,,,,,,,,,,,,,,,,,,,,,,,,,,,,,,,,,,,,,,
,,,,,,,,,,94,different,6,0.273779233,-0.273779233,green,1,-0.16426754,-0.054755847,black,1,-0.273779233,0.16426754,blue,1,0.273779233,0.054755847,cyan,1,0.16426754,-0.16426754,magenta,1,-0.054755847,-0.054755847,orange,1,0.05,0.05,0.15,0.273779233,-0.273779233,magenta,l,952875,48,2020-08-19_03h30.15.127,CDT_GNG_IUS12,2020.1.2,Win32,60,,k,0,2.047375,0,10,10,93,1,,,,,,,,,,,,,,,,,,,,,,,,,,,,,,,,,,,,,,,,,,,,,,,,,
,,,,,,,,,,56,different,4,0.16426754,0.054755847,red,1,-0.054755847,0.16426754,orange,1,0.16426754,-0.16426754,black,1,-0.273779233,-0.054755847,yellow,1,0.16426754,0.273779233,blue,0,-0.054755847,0.273779233,magenta,0,0.05,0.05,0.15,-0.273779233,-0.054755847,green,l,952875,48,2020-08-19_03h30.15.127,CDT_GNG_IUS12,2020.1.2,Win32,60,,l,1,1.00944,0,11,11,55,1,,,,,,,,,,,,,,,,,,,,,,,,,,,,,,,,,,,,,,,,,,,,,,,,,
,,,,,,,,,,40,different,4,-0.273779233,-0.273779233,magenta,1,0.054755847,-0.16426754,yellow,1,-0.16426754,0.054755847,red,1,0.273779233,0.273779233,orange,1,-0.054755847,-0.054755847,cyan,0,0.16426754,-0.16426754,green,0,0.05,0.05,0.15,0.273779233,0.273779233,black,l,952875,48,2020-08-19_03h30.15.127,CDT_GNG_IUS12,2020.1.2,Win32,60,,l,1,0.910645,0,12,12,39,1,,,,,,,,,,,,,,,,,,,,,,,,,,,,,,,,,,,,,,,,,,,,,,,,,
,,,,,,,,,,98,different,6,-0.054755847,-0.16426754,magenta,1,0.273779233,0.273779233,green,1,0.273779233,-0.273779233,red,1,-0.16426754,0.273779233,blue,1,-0.273779233,-0.16426754,cyan,1,0.273779233,0.054755847,black,1,0.05,0.05,0.15,-0.16426754,0.273779233,cyan,l,952875,48,2020-08-19_03h30.15.127,CDT_GNG_IUS12,2020.1.2,Win32,60,,l,1,1.708185,0,13,13,97,1,,,,,,,,,,,,,,,,,,,,,,,,,,,,,,,,,,,,,,,,,,,,,,,,,
,,,,,,,,,,44,different,4,0.16426754,0.16426754,green,1,0.16426754,-0.16426754,black,1,-0.16426754,-0.054755847,cyan,1,-0.16426754,0.054755847,magenta,1,0.16426754,0.054755847,blue,0,0.054755847,-0.273779233,yellow,0,0.05,0.05,0.15,0.16426754,0.16426754,red,l,952875,48,2020-08-19_03h30.15.127,CDT_GNG_IUS12,2020.1.2,Win32,60,,l,1,1.05731,0,14,14,43,1,,,,,,,,,,,,,,,,,,,,,,,,,,,,,,,,,,,,,,,,,,,,,,,,,
,,,,,,,,,,52,different,4,-0.273779233,-0.16426754,magenta,1,-0.273779233,0.054755847,green,1,0.273779233,-0.054755847,cyan,1,0.273779233,0.054755847,black,1,-0.16426754,-0.16426754,orange,0,-0.054755847,0.054755847,red,0,0.05,0.05,0.15,-0.273779233,-0.16426754,black,l,952875,48,2020-08-19_03h30.15.127,CDT_GNG_IUS12,2020.1.2,Win32,60,,l,1,1.055405,0,15,15,51,1,,,,,,,,,,,,,,,,,,,,,,,,,,,,,,,,,,,,,,,,,,,,,,,,,
,,,,,,,,,,48,different,4,0.16426754,0.273779233,cyan,1,-0.054755847,-0.273779233,magenta,1,0.16426754,-0.054755847,orange,1,-0.273779233,0.273779233,blue,1,0.273779233,0.16426754,red,0,-0.054755847,-0.16426754,green,0,0.05,0.05,0.15,0.16426754,-0.054755847,red,l,952875,48,2020-08-19_03h30.15.127,CDT_GNG_IUS12,2020.1.2,Win32,60,,l,1,1.073895,0,16,16,47,1,,,,,,,,,,,,,,,,,,,,,,,,,,,,,,,,,,,,,,,,,,,,,,,,,
,,,,,,,,,,37,different,4,0.273779233,-0.273779233,cyan,1,-0.054755847,0.054755847,orange,1,-0.054755847,-0.16426754,yellow,1,0.16426754,0.054755847,blue,1,0.054755847,-0.273779233,red,0,-0.273779233,0.16426754,green,0,0.05,0.05,0.15,-0.054755847,0.054755847,green,l,952875,48,2020-08-19_03h30.15.127,CDT_GNG_IUS12,2020.1.2,Win32,60,,l,1,0.857675,0,17,17,36,1,,,,,,,,,,,,,,,,,,,,,,,,,,,,,,,,,,,,,,,,,,,,,,,,,
,,,,,,,,,,66,same,6,0.273779233,-0.273779233,cyan,1,-0.273779233,-0.054755847,black,1,-0.273779233,0.054755847,yellow,1,0.273779233,0.16426754,green,1,0.054755847,-0.16426754,orange,1,-0.273779233,-0.16426754,magenta,1,0.05,0.05,0.15,0.273779233,0.16426754,green,k,952875,48,2020-08-19_03h30.15.127,CDT_GNG_IUS12,2020.1.2,Win32,60,,k,1,1.04416,0,18,18,65,1,,,,,,,,,,,,,,,,,,,,,,,,,,,,,,,,,,,,,,,,,,,,,,,,,
,,,,,,,,,,45,different,4,0.054755847,0.16426754,blue,1,-0.054755847,-0.273779233,magenta,1,-0.16426754,0.16426754,black,1,0.054755847,-0.16426754,orange,1,0.273779233,0.273779233,green,0,-0.273779233,-0.16426754,cyan,0,0.05,0.05,0.15,-0.16426754,0.16426754,magenta,l,952875,48,2020-08-19_03h30.15.127,CDT_GNG_IUS12,2020.1.2,Win32,60,,l,1,0.84489,0,19,19,44,1,,,,,,,,,,,,,,,,,,,,,,,,,,,,,,,,,,,,,,,,,,,,,,,,,
,,,,,,,,,,69,same,6,-0.054755847,-0.054755847,black,1,0.273779233,-0.054755847,orange,1,-0.273779233,0.16426754,blue,1,0.054755847,0.054755847,yellow,1,-0.16426754,-0.16426754,green,1,0.054755847,-0.16426754,magenta,1,0.05,0.05,0.15,-0.16426754,-0.16426754,green,k,952875,48,2020-08-19_03h30.15.127,CDT_GNG_IUS12,2020.1.2,Win32,60,,l,0,1.658485,0,20,20,68,1,,,,,,,,,,,,,,,,,,,,,,,,,,,,,,,,,,,,,,,,,,,,,,,,,
,,,,,,,,,,19,same,4,-0.054755847,-0.16426754,orange,1,-0.273779233,0.273779233,red,1,0.273779233,0.054755847,yellow,1,0.273779233,-0.16426754,magenta,1,-0.273779233,-0.054755847,black,0,-0.054755847,0.273779233,blue,0,0.05,0.05,0.15,0.273779233,-0.16426754,magenta,k,952875,48,2020-08-19_03h30.15.127,CDT_GNG_IUS12,2020.1.2,Win32,60,,l,0,1.810395,0,21,21,18,1,,,,,,,,,,,,,,,,,,,,,,,,,,,,,,,,,,,,,,,,,,,,,,,,,
,,,,,,,,,,113,different,6,-0.273779233,0.054755847,black,1,-0.16426754,-0.16426754,blue,1,0.054755847,-0.16426754,orange,1,0.16426754,0.16426754,red,1,-0.273779233,0.273779233,green,1,-0.273779233,-0.16426754,magenta,1,0.05,0.05,0.15,-0.273779233,-0.16426754,black,l,952875,48,2020-08-19_03h30.15.127,CDT_GNG_IUS12,2020.1.2,Win32,60,,k,0,6.867845,0,22,22,112,1,,,,,,,,,,,,,,,,,,,,,,,,,,,,,,,,,,,,,,,,,,,,,,,,,
,,,,,,,,,,74,same,6,-0.273779233,-0.273779233,magenta,1,0.16426754,0.054755847,cyan,1,-0.16426754,0.273779233,black,1,0.273779233,-0.054755847,yellow,1,-0.16426754,-0.16426754,red,1,0.054755847,0.273779233,green,1,0.05,0.05,0.15,-0.16426754,-0.16426754,red,k,952875,48,2020-08-19_03h30.15.127,CDT_GNG_IUS12,2020.1.2,Win32,60,,l,0,7.419345,0,23,23,73,1,,,,,,,,,,,,,,,,,,,,,,,,,,,,,,,,,,,,,,,,,,,,,,,,,
,,,,,,,,,,49,different,4,-0.16426754,-0.273779233,black,1,0.16426754,0.16426754,red,1,-0.273779233,0.16426754,yellow,1,0.054755847,-0.273779233,green,1,-0.273779233,-0.273779233,magenta,0,0.054755847,0.273779233,blue,0,0.05,0.05,0.15,0.054755847,-0.273779233,orange,l,952875,48,2020-08-19_03h30.15.127,CDT_GNG_IUS12,2020.1.2,Win32,60,,l,1,2.011555,0,24,24,48,1,,,,,,,,,,,,,,,,,,,,,,,,,,,,,,,,,,,,,,,,,,,,,,,,,
,,,,,,,,,,70,same,6,0.16426754,0.16426754,cyan,1,0.273779233,-0.273779233,red,1,-0.16426754,0.16426754,yellow,1,-0.273779233,-0.273779233,green,1,0.16426754,0.054755847,magenta,1,0.16426754,-0.054755847,blue,1,0.05,0.05,0.15,0.273779233,-0.273779233,red,k,952875,48,2020-08-19_03h30.15.127,CDT_GNG_IUS12,2020.1.2,Win32,60,,l,0,1.82358,0,25,25,69,1,,,,,,,,,,,,,,,,,,,,,,,,,,,,,,,,,,,,,,,,,,,,,,,,,
,,,,,,,,,,76,same,6,0.16426754,0.054755847,cyan,1,0.273779233,-0.273779233,red,1,-0.054755847,-0.273779233,magenta,1,-0.054755847,0.16426754,yellow,1,0.054755847,0.273779233,blue,1,0.054755847,-0.273779233,green,1,0.05,0.05,0.15,0.16426754,0.054755847,cyan,k,952875,48,2020-08-19_03h30.15.127,CDT_GNG_IUS12,2020.1.2,Win32,60,,k,1,1.4447,0,26,26,75,1,,,,,,,,,,,,,,,,,,,,,,,,,,,,,,,,,,,,,,,,,,,,,,,,,
,,,,,,,,,,88,same,6,0.054755847,0.054755847,orange,1,0.054755847,-0.273779233,red,1,-0.16426754,-0.16426754,magenta,1,-0.16426754,0.273779233,yellow,1,0.16426754,0.16426754,blue,1,0.273779233,-0.16426754,cyan,1,0.05,0.05,0.15,-0.16426754,0.273779233,yellow,k,952875,48,2020-08-19_03h30.15.127,CDT_GNG_IUS12,2020.1.2,Win32,60,,k,1,1.862875,0,27,27,87,1,,,,,,,,,,,,,,,,,,,,,,,,,,,,,,,,,,,,,,,,,,,,,,,,,
,,,,,,,,,,10,same,4,0.273779233,0.273779233,green,1,-0.16426754,-0.054755847,yellow,1,-0.16426754,0.16426754,cyan,1,0.273779233,-0.16426754,blue,1,0.273779233,0.054755847,orange,0,-0.273779233,-0.16426754,red,0,0.05,0.05,0.15,0.273779233,0.273779233,green,k,952875,48,2020-08-19_03h30.15.127,CDT_GNG_IUS12,2020.1.2,Win32,60,,k,1,0.96192,0,28,28,9,1,,,,,,,,,,,,,,,,,,,,,,,,,,,,,,,,,,,,,,,,,,,,,,,,,
,,,,,,,,,,34,different,4,0.16426754,0.16426754,yellow,1,0.273779233,-0.16426754,cyan,1,-0.273779233,-0.273779233,magenta,1,-0.273779233,0.16426754,green,1,0.054755847,0.054755847,black,0,0.273779233,-0.273779233,orange,0,0.05,0.05,0.15,0.16426754,0.16426754,cyan,l,952875,48,2020-08-19_03h30.15.127,CDT_GNG_IUS12,2020.1.2,Win32,60,,l,1,0.944085,0,29,29,33,1,,,,,,,,,,,,,,,,,,,,,,,,,,,,,,,,,,,,,,,,,,,,,,,,,
,,,,,,,,,,89,same,6,-0.054755847,-0.273779233,cyan,1,-0.16426754,0.16426754,green,1,0.273779233,0.273779233,black,1,0.273779233,-0.273779233,orange,1,-0.273779233,-0.16426754,magenta,1,-0.16426754,0.273779233,yellow,1,0.05,0.05,0.15,-0.16426754,0.273779233,yellow,k,952875,48,2020-08-19_03h30.15.127,CDT_GNG_IUS12,2020.1.2,Win32,60,,k,1,1.080095,0,30,30,88,1,,,,,,,,,,,,,,,,,,,,,,,,,,,,,,,,,,,,,,,,,,,,,,,,,
,,,,,,,,,,6,same,4,0.273779233,0.273779233,blue,1,-0.273779233,-0.16426754,magenta,1,-0.054755847,0.054755847,green,1,0.054755847,-0.054755847,black,1,0.054755847,0.054755847,orange,0,-0.054755847,-0.054755847,red,0,0.05,0.05,0.15,-0.054755847,0.054755847,green,k,952875,48,2020-08-19_03h30.15.127,CDT_GNG_IUS12,2020.1.2,Win32,60,,k,1,1.759555,0,31,31,5,1,,,,,,,,,,,,,,,,,,,,,,,,,,,,,,,,,,,,,,,,,,,,,,,,,
,,,,,,,,,,11,same,4,0.273779233,0.16426754,black,1,-0.054755847,0.273779233,cyan,1,0.16426754,-0.054755847,blue,1,-0.273779233,-0.16426754,orange,1,0.054755847,0.273779233,magenta,0,-0.273779233,0.054755847,green,0,0.05,0.05,0.15,0.273779233,0.16426754,black,k,952875,48,2020-08-19_03h30.15.127,CDT_GNG_IUS12,2020.1.2,Win32,60,,k,1,1.07366,0,32,32,10,1,,,,,,,,,,,,,,,,,,,,,,,,,,,,,,,,,,,,,,,,,,,,,,,,,
,,,,,,,,,,108,different,6,-0.273779233,-0.054755847,magenta,1,0.054755847,0.16426754,red,1,-0.16426754,0.054755847,cyan,1,0.054755847,-0.273779233,green,1,-0.273779233,-0.16426754,orange,1,0.273779233,0.273779233,black,1,0.05,0.05,0.15,-0.273779233,-0.054755847,blue,l,952875,48,2020-08-19_03h30.15.127,CDT_GNG_IUS12,2020.1.2,Win32,60,,l,1,2.139945,0,33,33,107,1,,,,,,,,,,,,,,,,,,,,,,,,,,,,,,,,,,,,,,,,,,,,,,,,,
,,,,,,,,,,30,same,4,0.16426754,0.16426754,blue,1,0.054755847,-0.054755847,green,1,-0.273779233,-0.16426754,black,1,-0.054755847,0.273779233,yellow,1,0.16426754,0.273779233,red,0,0.16426754,-0.16426754,magenta,0,0.05,0.05,0.15,0.054755847,-0.054755847,green,k,952875,48,2020-08-19_03h30.15.127,CDT_GNG_IUS12,2020.1.2,Win32,60,,k,1,0.914805,0,34,34,29,1,,,,,,,,,,,,,,,,,,,,,,,,,,,,,,,,,,,,,,,,,,,,,,,,,
,,,,,,,,,,59,different,4,0.16426754,-0.16426754,red,1,-0.054755847,-0.16426754,cyan,1,0.054755847,0.16426754,yellow,1,-0.16426754,0.273779233,green,1,0.16426754,-0.054755847,orange,0,-0.16426754,-0.054755847,black,0,0.05,0.05,0.15,-0.16426754,0.273779233,black,l,952875,48,2020-08-19_03h30.15.127,CDT_GNG_IUS12,2020.1.2,Win32,60,,l,1,0.97773,0,35,35,58,1,,,,,,,,,,,,,,,,,,,,,,,,,,,,,,,,,,,,,,,,,,,,,,,,,
,,,,,,,,,,31,different,4,-0.16426754,0.16426754,blue,1,0.16426754,-0.054755847,magenta,1,-0.16426754,-0.054755847,yellow,1,0.054755847,0.273779233,black,1,-0.273779233,0.054755847,red,0,0.273779233,-0.273779233,cyan,0,0.05,0.05,0.15,-0.16426754,-0.054755847,black,l,952875,48,2020-08-19_03h30.15.127,CDT_GNG_IUS12,2020.1.2,Win32,60,,l,1,0.927875,0,36,36,30,1,,,,,,,,,,,,,,,,,,,,,,,,,,,,,,,,,,,,,,,,,,,,,,,,,
,,,,,,,,,,8,same,4,0.16426754,-0.16426754,blue,1,-0.16426754,-0.054755847,red,1,-0.273779233,0.16426754,green,1,0.054755847,0.054755847,cyan,1,0.16426754,-0.273779233,magenta,0,-0.054755847,-0.054755847,orange,0,0.05,0.05,0.15,-0.273779233,0.16426754,green,k,952875,48,2020-08-19_03h30.15.127,CDT_GNG_IUS12,2020.1.2,Win32,60,,k,1,1.1379,0,37,37,7,1,,,,,,,,,,,,,,,,,,,,,,,,,,,,,,,,,,,,,,,,,,,,,,,,,
,,,,,,,,,,39,different,4,0.054755847,0.054755847,green,1,0.273779233,-0.16426754,yellow,1,-0.16426754,0.054755847,orange,1,-0.273779233,-0.054755847,red,1,0.273779233,0.054755847,blue,0,0.054755847,-0.16426754,cyan,0,0.05,0.05,0.15,-0.273779233,-0.054755847,cyan,l,952875,48,2020-08-19_03h30.15.127,CDT_GNG_IUS12,2020.1.2,Win32,60,,l,1,0.945915,0,38,38,38,1,,,,,,,,,,,,,,,,,,,,,,,,,,,,,,,,,,,,,,,,,,,,,,,,,
,,,,,,,,,,43,different,4,-0.16426754,-0.054755847,red,1,0.273779233,0.054755847,cyan,1,-0.16426754,0.054755847,orange,1,0.054755847,-0.054755847,blue,1,-0.054755847,-0.273779233,magenta,0,0.273779233,0.273779233,yellow,0,0.05,0.05,0.15,-0.16426754,-0.054755847,yellow,l,952875,48,2020-08-19_03h30.15.127,CDT_GNG_IUS12,2020.1.2,Win32,60,,l,1,0.96037,0,39,39,42,1,,,,,,,,,,,,,,,,,,,,,,,,,,,,,,,,,,,,,,,,,,,,,,,,,
,,,,,,,,,,67,same,6,0.273779233,-0.054755847,magenta,1,0.16426754,0.273779233,orange,1,-0.273779233,0.273779233,cyan,1,-0.16426754,-0.054755847,yellow,1,0.16426754,-0.16426754,blue,1,0.16426754,0.16426754,red,1,0.05,0.05,0.15,-0.273779233,0.273779233,cyan,k,952875,48,2020-08-19_03h30.15.127,CDT_GNG_IUS12,2020.1.2,Win32,60,,k,1,0.848415,0,40,40,66,1,,,,,,,,,,,,,,,,,,,,,,,,,,,,,,,,,,,,,,,,,,,,,,,,,
,,,,,,,,,,93,different,6,-0.16426754,0.16426754,red,1,0.054755847,-0.054755847,black,1,-0.054755847,-0.16426754,blue,1,0.054755847,0.273779233,magenta,1,-0.054755847,0.054755847,orange,1,0.16426754,-0.054755847,cyan,1,0.05,0.05,0.15,-0.054755847,-0.16426754,black,l,952875,48,2020-08-19_03h30.15.127,CDT_GNG_IUS12,2020.1.2,Win32,60,,k,0,1.60966,0,41,41,92,1,,,,,,,,,,,,,,,,,,,,,,,,,,,,,,,,,,,,,,,,,,,,,,,,,
,,,,,,,,,,20,same,4,0.273779233,0.054755847,magenta,1,0.054755847,-0.273779233,black,1,-0.054755847,0.16426754,blue,1,-0.273779233,-0.054755847,orange,1,0.054755847,0.054755847,red,0,0.054755847,-0.054755847,cyan,0,0.05,0.05,0.15,-0.054755847,0.16426754,blue,k,952875,48,2020-08-19_03h30.15.127,CDT_GNG_IUS12,2020.1.2,Win32,60,,k,1,0.90808,0,42,42,19,1,,,,,,,,,,,,,,,,,,,,,,,,,,,,,,,,,,,,,,,,,,,,,,,,,
,,,,,,,,,,100,different,6,0.273779233,0.16426754,blue,1,-0.054755847,0.054755847,magenta,1,-0.273779233,-0.054755847,orange,1,0.273779233,-0.273779233,red,1,0.16426754,0.054755847,green,1,-0.273779233,0.054755847,yellow,1,0.05,0.05,0.15,0.273779233,0.16426754,orange,l,952875,48,2020-08-19_03h30.15.127,CDT_GNG_IUS12,2020.1.2,Win32,60,,l,1,1.20795,0,43,43,99,1,,,,,,,,,,,,,,,,,,,,,,,,,,,,,,,,,,,,,,,,,,,,,,,,,
,,,,,,,,,,14,same,4,0.16426754,0.16426754,magenta,1,-0.16426754,0.16426754,blue,1,0.16426754,-0.16426754,green,1,-0.16426754,-0.16426754,red,1,0.16426754,0.273779233,cyan,0,-0.16426754,0.273779233,orange,0,0.05,0.05,0.15,-0.16426754,0.16426754,blue,k,952875,48,2020-08-19_03h30.15.127,CDT_GNG_IUS12,2020.1.2,Win32,60,,k,1,0.626265,0,44,44,13,1,,,,,,,,,,,,,,,,,,,,,,,,,,,,,,,,,,,,,,,,,,,,,,,,,
,,,,,,,,,,51,different,4,-0.16426754,-0.273779233,yellow,1,0.16426754,-0.273779233,cyan,1,0.273779233,0.054755847,blue,1,-0.054755847,0.273779233,green,1,-0.16426754,-0.054755847,black,0,0.273779233,-0.273779233,red,0,0.05,0.05,0.15,0.16426754,-0.273779233,red,l,952875,48,2020-08-19_03h30.15.127,CDT_GNG_IUS12,2020.1.2,Win32,60,,l,1,1.559565,0,45,45,50,1,,,,,,,,,,,,,,,,,,,,,,,,,,,,,,,,,,,,,,,,,,,,,,,,,
,,,,,,,,,,9,same,4,-0.16426754,0.054755847,cyan,1,0.16426754,-0.16426754,magenta,1,-0.273779233,-0.054755847,black,1,0.054755847,0.054755847,green,1,-0.273779233,0.16426754,orange,0,0.273779233,-0.273779233,red,0,0.05,0.05,0.15,-0.273779233,-0.054755847,black,k,952875,48,2020-08-19_03h30.15.127,CDT_GNG_IUS12,2020.1.2,Win32,60,,k,1,0.91492,0,46,46,8,1,,,,,,,,,,,,,,,,,,,,,,,,,,,,,,,,,,,,,,,,,,,,,,,,,
,,,,,,,,,,21,same,4,0.273779233,0.273779233,black,1,-0.273779233,-0.273779233,blue,1,0.054755847,-0.16426754,yellow,1,-0.273779233,0.054755847,cyan,1,0.16426754,0.273779233,magenta,0,-0.054755847,-0.054755847,green,0,0.05,0.05,0.15,0.273779233,0.273779233,black,k,952875,48,2020-08-19_03h30.15.127,CDT_GNG_IUS12,2020.1.2,Win32,60,,k,1,0.728765,0,47,47,20,1,,,,,,,,,,,,,,,,,,,,,,,,,,,,,,,,,,,,,,,,,,,,,,,,,
,,,,,,,,,,35,different,4,-0.054755847,-0.054755847,black,1,0.054755847,0.273779233,magenta,1,-0.273779233,0.054755847,blue,1,0.273779233,-0.054755847,red,1,-0.054755847,-0.16426754,cyan,0,0.054755847,0.054755847,yellow,0,0.05,0.05,0.15,0.054755847,0.273779233,cyan,l,952875,48,2020-08-19_03h30.15.127,CDT_GNG_IUS12,2020.1.2,Win32,60,,l,1,0.82663,0,48,48,34,1,,,,,,,,,,,,,,,,,,,,,,,,,,,,,,,,,,,,,,,,,,,,,,,,,
,,,,,,,,,,17,same,4,0.16426754,0.273779233,yellow,1,-0.054755847,0.16426754,orange,1,0.273779233,-0.054755847,cyan,1,-0.273779233,-0.054755847,green,1,0.16426754,0.16426754,blue,0,-0.054755847,0.273779233,magenta,0,0.05,0.05,0.15,0.16426754,0.273779233,yellow,k,952875,48,2020-08-19_03h30.15.127,CDT_GNG_IUS12,2020.1.2,Win32,60,,k,1,0.665205,0,49,49,16,1,,,,,,,,,,,,,,,,,,,,,,,,,,,,,,,,,,,,,,,,,,,,,,,,,
,,,,,,,,,,18,same,4,-0.054755847,0.273779233,black,1,-0.16426754,-0.16426754,cyan,1,0.054755847,0.16426754,red,1,0.273779233,-0.273779233,magenta,1,-0.16426754,0.273779233,orange,0,-0.054755847,-0.273779233,green,0,0.05,0.05,0.15,0.273779233,-0.273779233,magenta,k,952875,48,2020-08-19_03h30.15.127,CDT_GNG_IUS12,2020.1.2,Win32,60,,k,1,1.09762,0,50,50,17,1,,,,,,,,,,,,,,,,,,,,,,,,,,,,,,,,,,,,,,,,,,,,,,,,,
,,,,,,,,,,107,different,6,0.273779233,0.16426754,cyan,1,-0.16426754,-0.273779233,magenta,1,-0.054755847,0.054755847,black,1,0.16426754,-0.054755847,blue,1,0.16426754,0.054755847,green,1,-0.273779233,-0.16426754,yellow,1,0.05,0.05,0.15,0.16426754,0.054755847,blue,l,952875,48,2020-08-19_03h30.15.127,CDT_GNG_IUS12,2020.1.2,Win32,60,,k,0,1.59228,0,51,51,106,1,,,,,,,,,,,,,,,,,,,,,,,,,,,,,,,,,,,,,,,,,,,,,,,,,
,,,,,,,,,,79,same,6,0.054755847,-0.16426754,black,1,-0.054755847,-0.273779233,yellow,1,-0.273779233,0.273779233,red,1,0.054755847,0.054755847,magenta,1,0.16426754,-0.054755847,cyan,1,-0.16426754,-0.054755847,orange,1,0.05,0.05,0.15,0.054755847,0.054755847,magenta,k,952875,48,2020-08-19_03h30.15.127,CDT_GNG_IUS12,2020.1.2,Win32,60,,l,0,1.22444,0,52,52,78,1,,,,,,,,,,,,,,,,,,,,,,,,,,,,,,,,,,,,,,,,,,,,,,,,,
,,,,,,,,,,95,different,6,-0.273779233,-0.16426754,magenta,1,0.16426754,0.273779233,green,1,-0.273779233,0.273779233,black,1,0.16426754,-0.273779233,orange,1,-0.054755847,-0.16426754,blue,1,0.16426754,0.054755847,cyan,1,0.05,0.05,0.15,0.16426754,0.273779233,black,l,952875,48,2020-08-19_03h30.15.127,CDT_GNG_IUS12,2020.1.2,Win32,60,,l,1,1.477275,0,53,53,94,1,,,,,,,,,,,,,,,,,,,,,,,,,,,,,,,,,,,,,,,,,,,,,,,,,
,,,,,,,,,,68,same,6,0.16426754,-0.054755847,blue,1,-0.054755847,-0.16426754,orange,1,-0.16426754,0.054755847,red,1,0.16426754,0.273779233,magenta,1,0.054755847,-0.054755847,black,1,-0.273779233,-0.273779233,yellow,1,0.05,0.05,0.15,-0.054755847,-0.16426754,orange,k,952875,48,2020-08-19_03h30.15.127,CDT_GNG_IUS12,2020.1.2,Win32,60,,l,0,1.29289,0,54,54,67,1,,,,,,,,,,,,,,,,,,,,,,,,,,,,,,,,,,,,,,,,,,,,,,,,,
,,,,,,,,,,64,same,6,0.16426754,0.273779233,black,1,-0.16426754,-0.16426754,orange,1,0.16426754,-0.16426754,red,1,-0.273779233,0.054755847,magenta,1,0.054755847,0.16426754,cyan,1,-0.054755847,-0.16426754,yellow,1,0.05,0.05,0.15,0.16426754,0.273779233,black,k,952875,48,2020-08-19_03h30.15.127,CDT_GNG_IUS12,2020.1.2,Win32,60,,k,1,0.92574,0,55,55,63,1,,,,,,,,,,,,,,,,,,,,,,,,,,,,,,,,,,,,,,,,,,,,,,,,,
,,,,,,,,,,96,different,6,-0.16426754,-0.16426754,green,1,-0.16426754,0.054755847,black,1,0.054755847,0.16426754,cyan,1,0.16426754,-0.273779233,yellow,1,-0.273779233,-0.273779233,blue,1,-0.054755847,0.054755847,red,1,0.05,0.05,0.15,-0.16426754,0.054755847,magenta,l,952875,48,2020-08-19_03h30.15.127,CDT_GNG_IUS12,2020.1.2,Win32,60,,l,1,0.8798,0,56,56,95,1,,,,,,,,,,,,,,,,,,,,,,,,,,,,,,,,,,,,,,,,,,,,,,,,,
,,,,,,,,,,120,different,6,0.16426754,-0.054755847,blue,1,-0.16426754,-0.273779233,cyan,1,0.16426754,0.16426754,magenta,1,-0.273779233,0.273779233,black,1,0.273779233,-0.16426754,green,1,-0.273779233,-0.16426754,orange,1,0.05,0.05,0.15,0.16426754,0.16426754,yellow,l,952875,48,2020-08-19_03h30.15.127,CDT_GNG_IUS12,2020.1.2,Win32,60,,l,1,0.99556,0,57,57,119,1,,,,,,,,,,,,,,,,,,,,,,,,,,,,,,,,,,,,,,,,,,,,,,,,,
,,,,,,,,,,71,same,6,-0.054755847,-0.16426754,orange,1,0.273779233,0.054755847,green,1,0.16426754,-0.16426754,yellow,1,-0.054755847,0.054755847,blue,1,-0.054755847,-0.273779233,black,1,0.054755847,0.16426754,cyan,1,0.05,0.05,0.15,-0.054755847,0.054755847,blue,k,952875,48,2020-08-19_03h30.15.127,CDT_GNG_IUS12,2020.1.2,Win32,60,,k,1,1.07199,0,58,58,70,1,,,,,,,,,,,,,,,,,,,,,,,,,,,,,,,,,,,,,,,,,,,,,,,,,
,,,,,,,,,,60,different,4,0.273779233,0.273779233,red,1,-0.273779233,-0.054755847,blue,1,-0.273779233,0.054755847,magenta,1,0.054755847,-0.273779233,black,1,0.273779233,0.054755847,orange,0,-0.054755847,-0.16426754,yellow,0,0.05,0.05,0.15,-0.273779233,0.054755847,yellow,l,952875,48,2020-08-19_03h30.15.127,CDT_GNG_IUS12,2020.1.2,Win32,60,s,k,0,114.4741,0,59,59,59,1,23.608395,,,,,,,,,,,,,,,,,,,,,,,,,,,,,,,,,,,,,,,,,,,,,,,,
,,,,,,,,,,61,same,6,0.273779233,0.16426754,cyan,1,0.273779233,-0.273779233,blue,1,-0.16426754,-0.16426754,green,1,-0.16426754,0.273779233,black,1,0.16426754,0.054755847,red,1,0.273779233,-0.16426754,yellow,1,0.05,0.05,0.15,0.273779233,-0.16426754,yellow,k,952875,48,2020-08-19_03h30.15.127,CDT_GNG_IUS12,2020.1.2,Win32,60,,l,0,7.660065,0,60,60,60,1,,,,,,,,,,,,,,,,,,,,,,,,,,,,,,,,,,,,,,,,,,,,,,,,,
,,,,,,,,,,13,same,4,0.16426754,0.273779233,orange,1,0.054755847,-0.273779233,blue,1,-0.054755847,0.054755847,magenta,1,-0.054755847,-0.16426754,black,1,0.054755847,0.16426754,yellow,0,0.16426754,-0.054755847,cyan,0,0.05,0.05,0.15,0.054755847,-0.273779233,blue,k,952875,48,2020-08-19_03h30.15.127,CDT_GNG_IUS12,2020.1.2,Win32,60,,k,1,0.930415,0,61,61,12,1,,,,,,,,,,,,,,,,,,,,,,,,,,,,,,,,,,,,,,,,,,,,,,,,,
,,,,,,,,,,50,different,4,-0.16426754,0.054755847,black,1,-0.273779233,-0.16426754,magenta,1,0.054755847,0.054755847,cyan,1,0.273779233,-0.16426754,green,1,-0.273779233,0.273779233,yellow,0,-0.16426754,-0.054755847,orange,0,0.05,0.05,0.15,-0.273779233,-0.16426754,yellow,l,952875,48,2020-08-19_03h30.15.127,CDT_GNG_IUS12,2020.1.2,Win32,60,,l,1,0.82447,0,62,62,49,1,,,,,,,,,,,,,,,,,,,,,,,,,,,,,,,,,,,,,,,,,,,,,,,,,
,,,,,,,,,,33,different,4,-0.273779233,0.273779233,yellow,1,0.16426754,-0.16426754,cyan,1,-0.273779233,-0.273779233,black,1,0.054755847,0.273779233,blue,1,-0.16426754,0.273779233,green,0,0.054755847,-0.273779233,orange,0,0.05,0.05,0.15,-0.273779233,-0.273779233,cyan,l,952875,48,2020-08-19_03h30.15.127,CDT_GNG_IUS12,2020.1.2,Win32,60,,l,1,1.641575,0,63,63,32,1,,,,,,,,,,,,,,,,,,,,,,,,,,,,,,,,,,,,,,,,,,,,,,,,,
,,,,,,,,,,5,same,4,0.273779233,-0.054755847,green,1,0.273779233,0.054755847,orange,1,-0.054755847,0.054755847,black,1,-0.054755847,-0.16426754,blue,1,0.054755847,-0.054755847,cyan,0,0.054755847,0.273779233,red,0,0.05,0.05,0.15,-0.054755847,-0.16426754,blue,k,952875,48,2020-08-19_03h30.15.127,CDT_GNG_IUS12,2020.1.2,Win32,60,,k,1,1.294955,0,64,64,4,1,,,,,,,,,,,,,,,,,,,,,,,,,,,,,,,,,,,,,,,,,,,,,,,,,
,,,,,,,,,,116,different,6,-0.273779233,0.16426754,green,1,-0.054755847,-0.054755847,orange,1,0.273779233,-0.273779233,cyan,1,0.054755847,0.273779233,red,1,-0.054755847,0.16426754,blue,1,-0.16426754,-0.054755847,yellow,1,0.05,0.05,0.15,-0.054755847,-0.054755847,magenta,l,952875,48,2020-08-19_03h30.15.127,CDT_GNG_IUS12,2020.1.2,Win32,60,,l,1,0.878725,0,65,65,115,1,,,,,,,,,,,,,,,,,,,,,,,,,,,,,,,,,,,,,,,,,,,,,,,,,
,,,,,,,,,,28,same,4,0.16426754,-0.273779233,yellow,1,-0.054755847,0.16426754,black,1,0.16426754,0.054755847,cyan,1,-0.273779233,-0.16426754,blue,1,0.273779233,-0.273779233,orange,0,-0.054755847,0.054755847,magenta,0,0.05,0.05,0.15,-0.054755847,0.16426754,black,k,952875,48,2020-08-19_03h30.15.127,CDT_GNG_IUS12,2020.1.2,Win32,60,,k,1,0.79634,0,66,66,27,1,,,,,,,,,,,,,,,,,,,,,,,,,,,,,,,,,,,,,,,,,,,,,,,,,
,,,,,,,,,,77,same,6,0.273779233,0.273779233,black,1,-0.273779233,-0.16426754,red,1,0.16426754,-0.054755847,magenta,1,-0.054755847,0.16426754,cyan,1,0.16426754,0.273779233,orange,1,-0.16426754,-0.273779233,blue,1,0.05,0.05,0.15,-0.273779233,-0.16426754,red,k,952875,48,2020-08-19_03h30.15.127,CDT_GNG_IUS12,2020.1.2,Win32,60,,l,0,1.39409,0,67,67,76,1,,,,,,,,,,,,,,,,,,,,,,,,,,,,,,,,,,,,,,,,,,,,,,,,,
,,,,,,,,,,72,same,6,0.273779233,-0.16426754,blue,1,0.16426754,0.273779233,yellow,1,-0.16426754,0.273779233,magenta,1,-0.273779233,-0.054755847,orange,1,0.054755847,-0.16426754,cyan,1,0.273779233,0.054755847,black,1,0.05,0.05,0.15,-0.16426754,0.273779233,magenta,k,952875,48,2020-08-19_03h30.15.127,CDT_GNG_IUS12,2020.1.2,Win32,60,,k,1,0.87696,0,68,68,71,1,,,,,,,,,,,,,,,,,,,,,,,,,,,,,,,,,,,,,,,,,,,,,,,,,
,,,,,,,,,,90,same,6,0.16426754,-0.054755847,black,1,-0.273779233,-0.054755847,orange,1,-0.16426754,0.16426754,cyan,1,0.273779233,0.273779233,blue,1,0.054755847,-0.054755847,magenta,1,-0.273779233,-0.273779233,yellow,1,0.05,0.05,0.15,-0.273779233,-0.054755847,orange,k,952875,48,2020-08-19_03h30.15.127,CDT_GNG_IUS12,2020.1.2,Win32,60,,k,1,1.626375,0,69,69,89,1,,,,,,,,,,,,,,,,,,,,,,,,,,,,,,,,,,,,,,,,,,,,,,,,,
,,,,,,,,,,106,different,6,0.054755847,-0.16426754,blue,1,-0.273779233,-0.273779233,magenta,1,0.273779233,0.273779233,yellow,1,-0.273779233,0.054755847,orange,1,0.054755847,-0.054755847,green,1,-0.054755847,-0.16426754,black,1,0.05,0.05,0.15,0.054755847,-0.054755847,cyan,l,952875,48,2020-08-19_03h30.15.127,CDT_GNG_IUS12,2020.1.2,Win32,60,,l,1,1.33329,0,70,70,105,1,,,,,,,,,,,,,,,,,,,,,,,,,,,,,,,,,,,,,,,,,,,,,,,,,
,,,,,,,,,,16,same,4,0.16426754,0.16426754,cyan,1,-0.16426754,-0.273779233,red,1,-0.16426754,0.16426754,black,1,0.273779233,-0.054755847,yellow,1,0.273779233,0.273779233,orange,0,-0.054755847,-0.273779233,blue,0,0.05,0.05,0.15,-0.16426754,-0.273779233,red,k,952875,48,2020-08-19_03h30.15.127,CDT_GNG_IUS12,2020.1.2,Win32,60,,l,0,1.179645,0,71,71,15,1,,,,,,,,,,,,,,,,,,,,,,,,,,,,,,,,,,,,,,,,,,,,,,,,,
,,,,,,,,,,2,same,4,0.273779233,0.054755847,magenta,1,-0.273779233,0.273779233,red,1,-0.054755847,-0.054755847,yellow,1,0.273779233,-0.273779233,blue,1,0.054755847,0.16426754,green,0,-0.16426754,0.054755847,cyan,0,0.05,0.05,0.15,0.273779233,-0.273779233,blue,k,952875,48,2020-08-19_03h30.15.127,CDT_GNG_IUS12,2020.1.2,Win32,60,,k,1,1.86103,0,72,72,1,1,,,,,,,,,,,,,,,,,,,,,,,,,,,,,,,,,,,,,,,,,,,,,,,,,
,,,,,,,,,,103,different,6,-0.273779233,-0.16426754,black,1,0.273779233,-0.054755847,cyan,1,0.054755847,0.273779233,magenta,1,-0.054755847,0.16426754,orange,1,-0.16426754,-0.16426754,green,1,0.273779233,-0.16426754,red,1,0.05,0.05,0.15,-0.273779233,-0.16426754,blue,l,952875,48,2020-08-19_03h30.15.127,CDT_GNG_IUS12,2020.1.2,Win32,60,,l,1,2.14192,0,73,73,102,1,,,,,,,,,,,,,,,,,,,,,,,,,,,,,,,,,,,,,,,,,,,,,,,,,
,,,,,,,,,,85,same,6,-0.16426754,-0.273779233,black,1,-0.16426754,0.16426754,green,1,0.16426754,-0.054755847,blue,1,0.054755847,0.054755847,magenta,1,-0.16426754,-0.054755847,red,1,-0.054755847,0.054755847,yellow,1,0.05,0.05,0.15,-0.16426754,-0.273779233,black,k,952875,48,2020-08-19_03h30.15.127,CDT_GNG_IUS12,2020.1.2,Win32,60,,k,1,0.74088,0,74,74,84,1,,,,,,,,,,,,,,,,,,,,,,,,,,,,,,,,,,,,,,,,,,,,,,,,,
,,,,,,,,,,102,different,6,-0.273779233,-0.273779233,magenta,1,0.054755847,0.16426754,green,1,0.16426754,-0.273779233,yellow,1,-0.16426754,0.054755847,orange,1,-0.16426754,-0.273779233,red,1,0.273779233,0.054755847,cyan,1,0.05,0.05,0.15,-0.273779233,-0.273779233,yellow,l,952875,48,2020-08-19_03h30.15.127,CDT_GNG_IUS12,2020.1.2,Win32,60,,l,1,2.557885,0,75,75,101,1,,,,,,,,,,,,,,,,,,,,,,,,,,,,,,,,,,,,,,,,,,,,,,,,,
,,,,,,,,,,42,different,4,0.273779233,0.16426754,cyan,1,-0.054755847,0.16426754,magenta,1,0.16426754,-0.054755847,green,1,-0.16426754,-0.16426754,red,1,0.16426754,0.273779233,black,0,-0.054755847,0.273779233,yellow,0,0.05,0.05,0.15,0.273779233,0.16426754,blue,l,952875,48,2020-08-19_03h30.15.127,CDT_GNG_IUS12,2020.1.2,Win32,60,,l,1,1.343795,0,76,76,41,1,,,,,,,,,,,,,,,,,,,,,,,,,,,,,,,,,,,,,,,,,,,,,,,,,
,,,,,,,,,,118,different,6,-0.16426754,-0.16426754,red,1,0.273779233,0.16426754,orange,1,-0.16426754,0.273779233,cyan,1,0.16426754,-0.273779233,black,1,-0.054755847,-0.054755847,yellow,1,0.054755847,0.054755847,green,1,0.05,0.05,0.15,-0.054755847,-0.054755847,magenta,l,952875,48,2020-08-19_03h30.15.127,CDT_GNG_IUS12,2020.1.2,Win32,60,,l,1,1.11583,0,77,77,117,1,,,,,,,,,,,,,,,,,,,,,,,,,,,,,,,,,,,,,,,,,,,,,,,,,
,,,,,,,,,,53,different,4,-0.16426754,0.054755847,green,1,0.273779233,0.054755847,cyan,1,-0.273779233,-0.273779233,magenta,1,0.054755847,-0.16426754,black,1,-0.054755847,0.16426754,red,0,0.273779233,0.273779233,blue,0,0.05,0.05,0.15,-0.273779233,-0.273779233,black,l,952875,48,2020-08-19_03h30.15.127,CDT_GNG_IUS12,2020.1.2,Win32,60,,l,1,0.995055,0,78,78,52,1,,,,,,,,,,,,,,,,,,,,,,,,,,,,,,,,,,,,,,,,,,,,,,,,,
,,,,,,,,,,36,different,4,-0.16426754,-0.054755847,cyan,1,0.16426754,0.054755847,red,1,0.16426754,-0.054755847,black,1,-0.273779233,0.273779233,orange,1,-0.054755847,-0.054755847,yellow,0,0.273779233,0.273779233,green,0,0.05,0.05,0.15,0.16426754,-0.054755847,orange,l,952875,48,2020-08-19_03h30.15.127,CDT_GNG_IUS12,2020.1.2,Win32,60,,l,1,0.827475,0,79,79,35,1,,,,,,,,,,,,,,,,,,,,,,,,,,,,,,,,,,,,,,,,,,,,,,,,,
,,,,,,,,,,87,same,6,0.273779233,0.16426754,green,1,-0.16426754,-0.054755847,black,1,-0.054755847,0.054755847,cyan,1,0.273779233,-0.054755847,blue,1,0.054755847,0.054755847,yellow,1,-0.273779233,-0.273779233,red,1,0.05,0.05,0.15,-0.273779233,-0.273779233,red,k,952875,48,2020-08-19_03h30.15.127,CDT_GNG_IUS12,2020.1.2,Win32,60,,l,0,1.14935,0,80,80,86,1,,,,,,,,,,,,,,,,,,,,,,,,,,,,,,,,,,,,,,,,,,,,,,,,,
,,,,,,,,,,109,different,6,-0.273779233,-0.16426754,blue,1,0.054755847,-0.16426754,black,1,-0.054755847,0.054755847,cyan,1,0.054755847,0.16426754,green,1,-0.054755847,-0.054755847,yellow,1,0.16426754,-0.273779233,orange,1,0.05,0.05,0.15,-0.273779233,-0.16426754,green,l,952875,48,2020-08-19_03h30.15.127,CDT_GNG_IUS12,2020.1.2,Win32,60,,l,1,0.82886,0,81,81,108,1,,,,,,,,,,,,,,,,,,,,,,,,,,,,,,,,,,,,,,,,,,,,,,,,,
,,,,,,,,,,101,different,6,0.273779233,0.273779233,yellow,1,0.054755847,-0.16426754,black,1,-0.054755847,0.054755847,cyan,1,-0.054755847,-0.16426754,magenta,1,0.273779233,0.054755847,green,1,0.16426754,-0.16426754,blue,1,0.05,0.05,0.15,0.273779233,0.273779233,green,l,952875,48,2020-08-19_03h30.15.127,CDT_GNG_IUS12,2020.1.2,Win32,60,,l,1,1.24843,0,82,82,100,1,,,,,,,,,,,,,,,,,,,,,,,,,,,,,,,,,,,,,,,,,,,,,,,,,
,,,,,,,,,,105,different,6,0.054755847,0.273779233,cyan,1,0.273779233,-0.16426754,magenta,1,-0.16426754,-0.054755847,yellow,1,-0.16426754,0.16426754,blue,1,0.273779233,0.16426754,orange,1,0.16426754,-0.273779233,green,1,0.05,0.05,0.15,0.16426754,-0.273779233,blue,l,952875,48,2020-08-19_03h30.15.127,CDT_GNG_IUS12,2020.1.2,Win32,60,,l,1,1.61017,0,83,83,104,1,,,,,,,,,,,,,,,,,,,,,,,,,,,,,,,,,,,,,,,,,,,,,,,,,
,,,,,,,,,,29,same,4,0.273779233,0.054755847,magenta,1,-0.054755847,0.273779233,cyan,1,0.16426754,-0.054755847,green,1,-0.16426754,-0.054755847,black,1,0.273779233,0.16426754,orange,0,-0.16426754,0.054755847,blue,0,0.05,0.05,0.15,0.16426754,-0.054755847,green,k,952875,48,2020-08-19_03h30.15.127,CDT_GNG_IUS12,2020.1.2,Win32,60,,l,0,1.13622,0,84,84,28,1,,,,,,,,,,,,,,,,,,,,,,,,,,,,,,,,,,,,,,,,,,,,,,,,,
,,,,,,,,,,117,different,6,-0.054755847,0.054755847,black,1,0.054755847,0.273779233,magenta,1,-0.273779233,-0.273779233,yellow,1,0.054755847,-0.16426754,blue,1,-0.16426754,0.054755847,cyan,1,0.054755847,0.054755847,red,1,0.05,0.05,0.15,-0.16426754,0.054755847,black,l,952875,48,2020-08-19_03h30.15.127,CDT_GNG_IUS12,2020.1.2,Win32,60,,l,1,1.32811,0,85,85,116,1,,,,,,,,,,,,,,,,,,,,,,,,,,,,,,,,,,,,,,,,,,,,,,,,,
,,,,,,,,,,92,different,6,0.16426754,0.16426754,green,1,-0.054755847,-0.054755847,cyan,1,-0.054755847,0.054755847,red,1,0.16426754,-0.054755847,magenta,1,0.054755847,0.16426754,orange,1,-0.273779233,-0.16426754,yellow,1,0.05,0.05,0.15,0.16426754,0.16426754,cyan,l,952875,48,2020-08-19_03h30.15.127,CDT_GNG_IUS12,2020.1.2,Win32,60,,l,1,1.23359,0,86,86,91,1,,,,,,,,,,,,,,,,,,,,,,,,,,,,,,,,,,,,,,,,,,,,,,,,,
,,,,,,,,,,32,different,4,-0.054755847,-0.273779233,green,1,-0.273779233,0.16426754,black,1,0.16426754,0.16426754,cyan,1,0.273779233,-0.16426754,yellow,1,-0.054755847,-0.054755847,blue,0,-0.054755847,0.273779233,orange,0,0.05,0.05,0.15,-0.054755847,-0.273779233,red,l,952875,48,2020-08-19_03h30.15.127,CDT_GNG_IUS12,2020.1.2,Win32,60,,l,1,1.167385,0,87,87,31,1,,,,,,,,,,,,,,,,,,,,,,,,,,,,,,,,,,,,,,,,,,,,,,,,,
,,,,,,,,,,57,different,4,-0.273779233,-0.054755847,yellow,1,0.16426754,-0.054755847,green,1,-0.273779233,0.16426754,red,1,0.273779233,0.054755847,black,1,-0.16426754,-0.054755847,orange,0,0.054755847,-0.16426754,magenta,0,0.05,0.05,0.15,0.16426754,-0.054755847,orange,l,952875,48,2020-08-19_03h30.15.127,CDT_GNG_IUS12,2020.1.2,Win32,60,,l,1,1.51129,0,88,88,56,1,,,,,,,,,,,,,,,,,,,,,,,,,,,,,,,,,,,,,,,,,,,,,,,,,
,,,,,,,,,,25,same,4,0.16426754,-0.273779233,green,1,-0.16426754,-0.273779233,black,1,0.16426754,0.054755847,cyan,1,-0.273779233,0.273779233,blue,1,0.054755847,-0.273779233,yellow,0,-0.273779233,-0.273779233,red,0,0.05,0.05,0.15,-0.273779233,0.273779233,blue,k,952875,48,2020-08-19_03h30.15.127,CDT_GNG_IUS12,2020.1.2,Win32,60,,k,1,0.597385,0,89,89,24,1,,,,,,,,,,,,,,,,,,,,,,,,,,,,,,,,,,,,,,,,,,,,,,,,,
,,,,,,,,,,23,same,4,0.273779233,-0.16426754,yellow,1,0.054755847,0.273779233,red,1,-0.054755847,0.054755847,black,1,-0.273779233,-0.054755847,orange,1,0.273779233,-0.054755847,green,0,0.273779233,0.054755847,magenta,0,0.05,0.05,0.15,-0.054755847,0.054755847,black,k,952875,48,2020-08-19_03h30.15.127,CDT_GNG_IUS12,2020.1.2,Win32,60,,l,0,3.56078,0,90,90,22,1,,,,,,,,,,,,,,,,,,,,,,,,,,,,,,,,,,,,,,,,,,,,,,,,,
,,,,,,,,,,78,same,6,0.054755847,0.054755847,black,1,-0.054755847,0.16426754,red,1,0.273779233,-0.273779233,blue,1,-0.054755847,-0.054755847,magenta,1,0.16426754,0.054755847,yellow,1,-0.273779233,0.16426754,cyan,1,0.05,0.05,0.15,-0.054755847,0.16426754,red,k,952875,48,2020-08-19_03h30.15.127,CDT_GNG_IUS12,2020.1.2,Win32,60,,k,1,1.20914,0,91,91,77,1,,,,,,,,,,,,,,,,,,,,,,,,,,,,,,,,,,,,,,,,,,,,,,,,,
,,,,,,,,,,110,different,6,-0.273779233,0.273779233,black,1,0.273779233,-0.16426754,red,1,0.054755847,0.273779233,cyan,1,-0.273779233,-0.16426754,orange,1,-0.054755847,0.054755847,magenta,1,0.16426754,-0.054755847,yellow,1,0.05,0.05,0.15,0.273779233,-0.16426754,yellow,l,952875,48,2020-08-19_03h30.15.127,CDT_GNG_IUS12,2020.1.2,Win32,60,,l,1,1.51006,0,92,92,109,1,,,,,,,,,,,,,,,,,,,,,,,,,,,,,,,,,,,,,,,,,,,,,,,,,
,,,,,,,,,,22,same,4,-0.054755847,-0.16426754,green,1,-0.16426754,0.054755847,blue,1,0.16426754,0.16426754,yellow,1,0.273779233,-0.054755847,black,1,-0.273779233,-0.054755847,red,0,-0.054755847,0.16426754,cyan,0,0.05,0.05,0.15,0.273779233,-0.054755847,black,k,952875,48,2020-08-19_03h30.15.127,CDT_GNG_IUS12,2020.1.2,Win32,60,,k,1,1.949465,0,93,93,21,1,,,,,,,,,,,,,,,,,,,,,,,,,,,,,,,,,,,,,,,,,,,,,,,,,
,,,,,,,,,,46,different,4,-0.16426754,0.273779233,yellow,1,-0.16426754,-0.16426754,green,1,0.16426754,0.054755847,black,1,0.273779233,-0.054755847,red,1,-0.16426754,0.16426754,blue,0,-0.273779233,-0.054755847,cyan,0,0.05,0.05,0.15,0.16426754,0.054755847,cyan,l,952875,48,2020-08-19_03h30.15.127,CDT_GNG_IUS12,2020.1.2,Win32,60,,l,1,0.89354,0,94,94,45,1,,,,,,,,,,,,,,,,,,,,,,,,,,,,,,,,,,,,,,,,,,,,,,,,,
,,,,,,,,,,15,same,4,0.054755847,-0.273779233,yellow,1,-0.273779233,-0.054755847,cyan,1,0.273779233,0.16426754,green,1,-0.16426754,0.16426754,blue,1,0.273779233,-0.054755847,magenta,0,-0.16426754,-0.054755847,orange,0,0.05,0.05,0.15,-0.273779233,-0.054755847,cyan,k,952875,48,2020-08-19_03h30.15.127,CDT_GNG_IUS12,2020.1.2,Win32,60,,k,1,2.677575,0,95,95,14,1,,,,,,,,,,,,,,,,,,,,,,,,,,,,,,,,,,,,,,,,,,,,,,,,,
,,,,,,,,,,38,different,4,0.273779233,-0.16426754,red,1,-0.054755847,0.16426754,blue,1,-0.273779233,-0.054755847,green,1,0.273779233,0.054755847,cyan,1,0.16426754,-0.054755847,orange,0,-0.054755847,0.054755847,yellow,0,0.05,0.05,0.15,0.273779233,0.054755847,black,l,952875,48,2020-08-19_03h30.15.127,CDT_GNG_IUS12,2020.1.2,Win32,60,,l,1,1.555975,0,96,96,37,1,,,,,,,,,,,,,,,,,,,,,,,,,,,,,,,,,,,,,,,,,,,,,,,,,
,,,,,,,,,,27,same,4,-0.273779233,0.054755847,blue,1,-0.16426754,-0.16426754,black,1,0.16426754,-0.273779233,cyan,1,0.273779233,0.054755847,red,1,-0.054755847,0.273779233,magenta,0,-0.054755847,-0.273779233,yellow,0,0.05,0.05,0.15,0.273779233,0.054755847,red,k,952875,48,2020-08-19_03h30.15.127,CDT_GNG_IUS12,2020.1.2,Win32,60,,l,0,2.21719,0,97,97,26,1,,,,,,,,,,,,,,,,,,,,,,,,,,,,,,,,,,,,,,,,,,,,,,,,,
,,,,,,,,,,111,different,6,0.273779233,0.273779233,green,1,0.054755847,-0.16426754,red,1,-0.16426754,-0.16426754,black,1,-0.16426754,0.16426754,magenta,1,0.054755847,0.054755847,blue,1,0.273779233,-0.16426754,yellow,1,0.05,0.05,0.15,0.273779233,-0.16426754,green,l,952875,48,2020-08-19_03h30.15.127,CDT_GNG_IUS12,2020.1.2,Win32,60,,l,1,1.062535,0,98,98,110,1,,,,,,,,,,,,,,,,,,,,,,,,,,,,,,,,,,,,,,,,,,,,,,,,,
,,,,,,,,,,26,same,4,0.16426754,-0.16426754,green,1,-0.054755847,0.16426754,yellow,1,-0.273779233,-0.16426754,black,1,0.054755847,0.054755847,red,1,0.16426754,-0.054755847,cyan,0,-0.273779233,0.273779233,magenta,0,0.05,0.05,0.15,-0.054755847,0.16426754,yellow,k,952875,48,2020-08-19_03h30.15.127,CDT_GNG_IUS12,2020.1.2,Win32,60,,k,1,1.82717,0,99,99,25,1,,,,,,,,,,,,,,,,,,,,,,,,,,,,,,,,,,,,,,,,,,,,,,,,,
,,,,,,,,,,83,same,6,0.054755847,-0.16426754,cyan,1,-0.16426754,-0.16426754,blue,1,0.273779233,0.054755847,magenta,1,-0.273779233,0.273779233,green,1,0.273779233,-0.16426754,orange,1,-0.054755847,-0.054755847,yellow,1,0.05,0.05,0.15,-0.054755847,-0.054755847,yellow,k,952875,48,2020-08-19_03h30.15.127,CDT_GNG_IUS12,2020.1.2,Win32,60,,k,1,0.911245,0,100,100,82,1,,,,,,,,,,,,,,,,,,,,,,,,,,,,,,,,,,,,,,,,,,,,,,,,,
,,,,,,,,,,55,different,4,0.273779233,0.054755847,yellow,1,0.054755847,-0.16426754,green,1,-0.273779233,-0.16426754,orange,1,-0.273779233,0.273779233,blue,1,0.273779233,0.273779233,red,0,0.273779233,-0.16426754,cyan,0,0.05,0.05,0.15,0.054755847,-0.16426754,red,l,952875,48,2020-08-19_03h30.15.127,CDT_GNG_IUS12,2020.1.2,Win32,60,,l,1,0.84425,0,101,101,54,1,,,,,,,,,,,,,,,,,,,,,,,,,,,,,,,,,,,,,,,,,,,,,,,,,
,,,,,,,,,,73,same,6,0.054755847,0.16426754,blue,1,-0.273779233,0.273779233,red,1,-0.273779233,-0.16426754,green,1,0.054755847,-0.054755847,orange,1,0.16426754,0.16426754,black,1,-0.054755847,0.16426754,magenta,1,0.05,0.05,0.15,-0.273779233,0.273779233,red,k,952875,48,2020-08-19_03h30.15.127,CDT_GNG_IUS12,2020.1.2,Win32,60,,l,0,1.241395,0,102,102,72,1,,,,,,,,,,,,,,,,,,,,,,,,,,,,,,,,,,,,,,,,,,,,,,,,,
,,,,,,,,,,104,different,6,0.054755847,-0.16426754,magenta,1,0.273779233,0.273779233,yellow,1,-0.273779233,0.273779233,blue,1,-0.16426754,-0.054755847,cyan,1,0.16426754,-0.054755847,orange,1,0.273779233,0.16426754,green,1,0.05,0.05,0.15,0.054755847,-0.16426754,cyan,l,952875,48,2020-08-19_03h30.15.127,CDT_GNG_IUS12,2020.1.2,Win32,60,,l,1,1.31288,0,103,103,103,1,,,,,,,,,,,,,,,,,,,,,,,,,,,,,,,,,,,,,,,,,,,,,,,,,
,,,,,,,,,,97,different,6,-0.273779233,-0.273779233,orange,1,0.054755847,-0.273779233,blue,1,0.16426754,0.16426754,green,1,-0.16426754,0.054755847,cyan,1,-0.16426754,-0.16426754,black,1,0.273779233,-0.16426754,yellow,1,0.05,0.05,0.15,-0.16426754,0.054755847,yellow,l,952875,48,2020-08-19_03h30.15.127,CDT_GNG_IUS12,2020.1.2,Win32,60,,l,1,1.04557,0,104,104,96,1,,,,,,,,,,,,,,,,,,,,,,,,,,,,,,,,,,,,,,,,,,,,,,,,,
,,,,,,,,,,84,same,6,-0.273779233,-0.16426754,black,1,0.273779233,0.273779233,blue,1,-0.054755847,0.054755847,red,1,0.16426754,-0.054755847,orange,1,-0.16426754,-0.16426754,cyan,1,0.16426754,0.16426754,magenta,1,0.05,0.05,0.15,-0.16426754,-0.16426754,cyan,k,952875,48,2020-08-19_03h30.15.127,CDT_GNG_IUS12,2020.1.2,Win32,60,,k,1,2.009635,0,105,105,83,1,,,,,,,,,,,,,,,,,,,,,,,,,,,,,,,,,,,,,,,,,,,,,,,,,
,,,,,,,,,,58,different,4,-0.16426754,0.273779233,blue,1,0.16426754,0.273779233,yellow,1,0.273779233,-0.16426754,black,1,-0.16426754,-0.054755847,cyan,1,-0.16426754,0.16426754,green,0,0.16426754,0.054755847,orange,0,0.05,0.05,0.15,0.273779233,-0.16426754,magenta,l,952875,48,2020-08-19_03h30.15.127,CDT_GNG_IUS12,2020.1.2,Win32,60,,l,1,0.84228,0,106,106,57,1,,,,,,,,,,,,,,,,,,,,,,,,,,,,,,,,,,,,,,,,,,,,,,,,,
,,,,,,,,,,41,different,4,0.054755847,-0.273779233,orange,1,-0.273779233,0.054755847,blue,1,-0.054755847,-0.16426754,yellow,1,0.273779233,0.16426754,red,1,0.273779233,-0.273779233,black,0,-0.273779233,0.273779233,magenta,0,0.05,0.05,0.15,-0.054755847,-0.16426754,black,l,952875,48,2020-08-19_03h30.15.127,CDT_GNG_IUS12,2020.1.2,Win32,60,,l,1,0.99092,0,107,107,40,1,,,,,,,,,,,,,,,,,,,,,,,,,,,,,,,,,,,,,,,,,,,,,,,,,
,,,,,,,,,,112,different,6,-0.273779233,-0.16426754,magenta,1,-0.054755847,0.054755847,orange,1,0.054755847,0.273779233,cyan,1,0.16426754,-0.273779233,yellow,1,-0.273779233,-0.273779233,black,1,-0.16426754,0.054755847,red,1,0.05,0.05,0.15,-0.16426754,0.054755847,orange,l,952875,48,2020-08-19_03h30.15.127,CDT_GNG_IUS12,2020.1.2,Win32,60,,l,1,0.949605,0,108,108,111,1,,,,,,,,,,,,,,,,,,,,,,,,,,,,,,,,,,,,,,,,,,,,,,,,,
,,,,,,,,,,99,different,6,0.054755847,0.16426754,orange,1,0.16426754,-0.16426754,yellow,1,-0.16426754,0.273779233,red,1,-0.273779233,-0.054755847,magenta,1,0.16426754,0.054755847,black,1,0.054755847,-0.054755847,green,1,0.05,0.05,0.15,-0.16426754,0.273779233,blue,l,952875,48,2020-08-19_03h30.15.127,CDT_GNG_IUS12,2020.1.2,Win32,60,,l,1,0.896155,0,109,109,98,1,,,,,,,,,,,,,,,,,,,,,,,,,,,,,,,,,,,,,,,,,,,,,,,,,
,,,,,,,,,,115,different,6,-0.16426754,0.273779233,magenta,1,-0.273779233,-0.054755847,blue,1,0.273779233,0.273779233,red,1,0.054755847,-0.273779233,cyan,1,-0.054755847,0.16426754,green,1,-0.273779233,-0.273779233,yellow,1,0.05,0.05,0.15,-0.273779233,-0.054755847,yellow,l,952875,48,2020-08-19_03h30.15.127,CDT_GNG_IUS12,2020.1.2,Win32,60,,l,1,1.12519,0,110,110,114,1,,,,,,,,,,,,,,,,,,,,,,,,,,,,,,,,,,,,,,,,,,,,,,,,,
,,,,,,,,,,86,same,6,0.054755847,0.273779233,green,1,-0.054755847,0.273779233,red,1,0.16426754,-0.16426754,yellow,1,-0.054755847,-0.273779233,black,1,0.273779233,0.273779233,cyan,1,-0.273779233,0.054755847,orange,1,0.05,0.05,0.15,-0.273779233,0.054755847,orange,k,952875,48,2020-08-19_03h30.15.127,CDT_GNG_IUS12,2020.1.2,Win32,60,,k,1,1.176495,0,111,111,85,1,,,,,,,,,,,,,,,,,,,,,,,,,,,,,,,,,,,,,,,,,,,,,,,,,
,,,,,,,,,,7,same,4,-0.16426754,-0.054755847,yellow,1,0.273779233,0.16426754,magenta,1,-0.16426754,0.054755847,cyan,1,0.054755847,-0.054755847,black,1,-0.054755847,-0.054755847,orange,0,0.273779233,0.273779233,blue,0,0.05,0.05,0.15,0.054755847,-0.054755847,black,k,952875,48,2020-08-19_03h30.15.127,CDT_GNG_IUS12,2020.1.2,Win32,60,,l,0,0.710315,0,112,112,6,1,,,,,,,,,,,,,,,,,,,,,,,,,,,,,,,,,,,,,,,,,,,,,,,,,
,,,,,,,,,,3,same,4,-0.054755847,-0.054755847,yellow,1,-0.054755847,0.054755847,cyan,1,0.16426754,-0.273779233,black,1,0.273779233,0.273779233,magenta,1,-0.054755847,-0.273779233,orange,0,-0.273779233,0.054755847,green,0,0.05,0.05,0.15,0.273779233,0.273779233,magenta,k,952875,48,2020-08-19_03h30.15.127,CDT_GNG_IUS12,2020.1.2,Win32,60,,l,0,1.065315,0,113,113,2,1,,,,,,,,,,,,,,,,,,,,,,,,,,,,,,,,,,,,,,,,,,,,,,,,,
,,,,,,,,,,91,different,6,-0.054755847,0.054755847,green,1,0.054755847,-0.16426754,cyan,1,-0.054755847,-0.054755847,black,1,0.16426754,0.273779233,yellow,1,-0.273779233,0.273779233,magenta,1,0.16426754,-0.054755847,red,1,0.05,0.05,0.15,0.16426754,-0.054755847,green,l,952875,48,2020-08-19_03h30.15.127,CDT_GNG_IUS12,2020.1.2,Win32,60,,l,1,1.90336,0,114,114,90,1,,,,,,,,,,,,,,,,,,,,,,,,,,,,,,,,,,,,,,,,,,,,,,,,,
,,,,,,,,,,63,same,6,-0.273779233,0.273779233,red,1,-0.273779233,-0.16426754,orange,1,0.054755847,-0.273779233,black,1,0.16426754,0.16426754,cyan,1,-0.054755847,0.054755847,blue,1,-0.273779233,-0.054755847,magenta,1,0.05,0.05,0.15,-0.273779233,-0.054755847,magenta,k,952875,48,2020-08-19_03h30.15.127,CDT_GNG_IUS12,2020.1.2,Win32,60,,k,1,1.03528,0,115,115,62,1,,,,,,,,,,,,,,,,,,,,,,,,,,,,,,,,,,,,,,,,,,,,,,,,,
,,,,,,,,,,4,same,4,0.16426754,-0.16426754,black,1,-0.054755847,0.16426754,yellow,1,0.16426754,0.16426754,blue,1,-0.16426754,-0.16426754,green,1,0.054755847,-0.16426754,magenta,0,-0.054755847,0.273779233,orange,0,0.05,0.05,0.15,0.16426754,-0.16426754,black,k,952875,48,2020-08-19_03h30.15.127,CDT_GNG_IUS12,2020.1.2,Win32,60,,k,1,1.20331,0,116,116,3,1,,,,,,,,,,,,,,,,,,,,,,,,,,,,,,,,,,,,,,,,,,,,,,,,,
,,,,,,,,,,82,same,6,-0.054755847,-0.16426754,red,1,0.273779233,-0.054755847,cyan,1,0.16426754,0.273779233,blue,1,-0.054755847,0.054755847,black,1,-0.16426754,-0.16426754,yellow,1,0.273779233,-0.16426754,green,1,0.05,0.05,0.15,-0.16426754,-0.16426754,yellow,k,952875,48,2020-08-19_03h30.15.127,CDT_GNG_IUS12,2020.1.2,Win32,60,,k,1,1.044455,0,117,117,81,1,,,,,,,,,,,,,,,,,,,,,,,,,,,,,,,,,,,,,,,,,,,,,,,,,
,,,,,,,,,,12,same,4,0.054755847,0.054755847,blue,1,-0.273779233,-0.054755847,magenta,1,-0.054755847,0.273779233,black,1,0.16426754,-0.16426754,green,1,0.16426754,0.16426754,yellow,0,-0.16426754,-0.054755847,orange,0,0.05,0.05,0.15,0.054755847,0.054755847,blue,k,952875,48,2020-08-19_03h30.15.127,CDT_GNG_IUS12,2020.1.2,Win32,60,,k,1,2.685015,0,118,118,11,1,,,,,,,,,,,,,,,,,,,,,,,,,,,,,,,,,,,,,,,,,,,,,,,,,
,,,,,,,,,,75,same,6,0.16426754,0.273779233,magenta,1,-0.273779233,-0.16426754,green,1,-0.273779233,0.16426754,yellow,1,0.054755847,-0.054755847,red,1,0.273779233,0.054755847,blue,1,-0.16426754,-0.054755847,cyan,1,0.05,0.05,0.15,0.054755847,-0.054755847,red,k,952875,48,2020-08-19_03h30.15.127,CDT_GNG_IUS12,2020.1.2,Win32,60,,l,0,0.99522,0,119,119,74,1,,,,,,,,,,,,,,,,,,,,,,,,,,,,,,,,,,,,,,,,,,,,,,,,,
,,,,,,,,,,,,,,,,,,,,,,,,,,,,,,,,,,,,,,,,,,,space,952875,48,2020-08-19_03h30.15.127,CDT_GNG_IUS12,2020.1.2,Win32,60,,,,,,,,,,,space,1,0.933235,0,0,0,4,1,0,1,,,,,,,,,,,,,,,,,,,,,,,,,,,,,,,,,,,,,,
,,,,,,,,,,,,,,,,,,,,,,,,,,,,,,,,,,,,,,,,,,,space,952875,48,2020-08-19_03h30.15.127,CDT_GNG_IUS12,2020.1.2,Win32,60,,,,,,,,,,,space,1,0.498675,0,1,1,7,1,0,1,,,,,,,,,,,,,,,,,,,,,,,,,,,,,,,,,,,,,,
,,,,,,,,,,,,,,,,,,,,,,,,,,,,,,,,,,,,,,,,,,,,952875,48,2020-08-19_03h30.15.127,CDT_GNG_IUS12,2020.1.2,Win32,60,,,,,,,,,,,,1,,0,2,2,3,1,1,0,,,,,,,,,,,,,,,,,,,,,,,,,,,,,,,,,,,,,,
,,,,,,,,,,,,,,,,,,,,,,,,,,,,,,,,,,,,,,,,,,,space,952875,48,2020-08-19_03h30.15.127,CDT_GNG_IUS12,2020.1.2,Win32,60,,,,,,,,,,,space,1,0.47667,0,3,3,6,1,0,1,,,,,,,,,,,,,,,,,,,,,,,,,,,,,,,,,,,,,,
,,,,,,,,,,,,,,,,,,,,,,,,,,,,,,,,,,,,,,,,,,,,952875,48,2020-08-19_03h30.15.127,CDT_GNG_IUS12,2020.1.2,Win32,60,,,,,,,,,,,,1,,0,4,4,2,1,1,0,,,,,,,,,,,,,,,,,,,,,,,,,,,,,,,,,,,,,,
,,,,,,,,,,,,,,,,,,,,,,,,,,,,,,,,,,,,,,,,,,,,952875,48,2020-08-19_03h30.15.127,CDT_GNG_IUS12,2020.1.2,Win32,60,,,,,,,,,,,,1,,0,5,5,0,1,1,0,,,,,,,,,,,,,,,,,,,,,,,,,,,,,,,,,,,,,,
,,,,,,,,,,,,,,,,,,,,,,,,,,,,,,,,,,,,,,,,,,,space,952875,48,2020-08-19_03h30.15.127,CDT_GNG_IUS12,2020.1.2,Win32,60,,,,,,,,,,,space,1,0.393015,0,6,6,5,1,0,1,,,,,,,,,,,,,,,,,,,,,,,,,,,,,,,,,,,,,,
,,,,,,,,,,,,,,,,,,,,,,,,,,,,,,,,,,,,,,,,,,,,952875,48,2020-08-19_03h30.15.127,CDT_GNG_IUS12,2020.1.2,Win32,60,,,,,,,,,,,,1,,0,7,7,1,1,1,0,,,,,,,,,,,,,,,,,,,,,,,,,,,,,,,,,,,,,,
,,,,,,,,,,,,,,,,,,,,,,,,,,,,,,,,,,,,,,,,,,,space,952875,48,2020-08-19_03h30.15.127,CDT_GNG_IUS12,2020.1.2,Win32,60,,,,,,,,,,,,,,,,,,,0,1,space,1,0.427845,0,0,0,23,1,,,,,,,,,,,,,,,,,,,,,,,,,,,,,,
,,,,,,,,,,,,,,,,,,,,,,,,,,,,,,,,,,,,,,,,,,,space,952875,48,2020-08-19_03h30.15.127,CDT_GNG_IUS12,2020.1.2,Win32,60,,,,,,,,,,,,,,,,,,,0,1,,0,,0,1,1,20,1,,,,,,,,,,,,,,,,,,,,,,,,,,,,,,
,,,,,,,,,,,,,,,,,,,,,,,,,,,,,,,,,,,,,,,,,,,space,952875,48,2020-08-19_03h30.15.127,CDT_GNG_IUS12,2020.1.2,Win32,60,,,,,,,,,,,,,,,,,,,0,1,space,1,0.026085,0,2,2,45,1,,,,,,,,,,,,,,,,,,,,,,,,,,,,,,
,,,,,,,,,,,,,,,,,,,,,,,,,,,,,,,,,,,,,,,,,,,,952875,48,2020-08-19_03h30.15.127,CDT_GNG_IUS12,2020.1.2,Win32,60,,,,,,,,,,,,,,,,,,,1,0,space,0,0.289395,0,3,3,2,1,,,,,,,,,,,,,,,,,,,,,,,,,,,,,,
,,,,,,,,,,,,,,,,,,,,,,,,,,,,,,,,,,,,,,,,,,,space,952875,48,2020-08-19_03h30.15.127,CDT_GNG_IUS12,2020.1.2,Win32,60,,,,,,,,,,,,,,,,,,,0,1,,0,,0,4,4,27,1,,,,,,,,,,,,,,,,,,,,,,,,,,,,,,
,,,,,,,,,,,,,,,,,,,,,,,,,,,,,,,,,,,,,,,,,,,space,952875,48,2020-08-19_03h30.15.127,CDT_GNG_IUS12,2020.1.2,Win32,60,,,,,,,,,,,,,,,,,,,0,1,space,1,0.40003,0,5,5,10,1,,,,,,,,,,,,,,,,,,,,,,,,,,,,,,
,,,,,,,,,,,,,,,,,,,,,,,,,,,,,,,,,,,,,,,,,,,space,952875,48,2020-08-19_03h30.15.127,CDT_GNG_IUS12,2020.1.2,Win32,60,,,,,,,,,,,,,,,,,,,0,1,space,1,0.45919,0,6,6,28,1,,,,,,,,,,,,,,,,,,,,,,,,,,,,,,
,,,,,,,,,,,,,,,,,,,,,,,,,,,,,,,,,,,,,,,,,,,space,952875,48,2020-08-19_03h30.15.127,CDT_GNG_IUS12,2020.1.2,Win32,60,,,,,,,,,,,,,,,,,,,0,1,space,1,0.464935,0,7,7,39,1,,,,,,,,,,,,,,,,,,,,,,,,,,,,,,
,,,,,,,,,,,,,,,,,,,,,,,,,,,,,,,,,,,,,,,,,,,space,952875,48,2020-08-19_03h30.15.127,CDT_GNG_IUS12,2020.1.2,Win32,60,,,,,,,,,,,,,,,,,,,0,1,,0,,0,8,8,32,1,,,,,,,,,,,,,,,,,,,,,,,,,,,,,,
,,,,,,,,,,,,,,,,,,,,,,,,,,,,,,,,,,,,,,,,,,,space,952875,48,2020-08-19_03h30.15.127,CDT_GNG_IUS12,2020.1.2,Win32,60,,,,,,,,,,,,,,,,,,,0,1,space,1,0.32853,0,9,9,12,1,,,,,,,,,,,,,,,,,,,,,,,,,,,,,,
,,,,,,,,,,,,,,,,,,,,,,,,,,,,,,,,,,,,,,,,,,,space,952875,48,2020-08-19_03h30.15.127,CDT_GNG_IUS12,2020.1.2,Win32,60,,,,,,,,,,,,,,,,,,,0,1,space,1,0.46246,0,10,10,16,1,,,,,,,,,,,,,,,,,,,,,,,,,,,,,,
,,,,,,,,,,,,,,,,,,,,,,,,,,,,,,,,,,,,,,,,,,,space,952875,48,2020-08-19_03h30.15.127,CDT_GNG_IUS12,2020.1.2,Win32,60,,,,,,,,,,,,,,,,,,,0,1,,0,,0,11,11,43,1,,,,,,,,,,,,,,,,,,,,,,,,,,,,,,
,,,,,,,,,,,,,,,,,,,,,,,,,,,,,,,,,,,,,,,,,,,space,952875,48,2020-08-19_03h30.15.127,CDT_GNG_IUS12,2020.1.2,Win32,60,,,,,,,,,,,,,,,,,,,0,1,,0,,0,12,12,31,1,,,,,,,,,,,,,,,,,,,,,,,,,,,,,,
,,,,,,,,,,,,,,,,,,,,,,,,,,,,,,,,,,,,,,,,,,,space,952875,48,2020-08-19_03h30.15.127,CDT_GNG_IUS12,2020.1.2,Win32,60,,,,,,,,,,,,,,,,,,,0,1,space,1,0.321335,0,13,13,19,1,,,,,,,,,,,,,,,,,,,,,,,,,,,,,,
,,,,,,,,,,,,,,,,,,,,,,,,,,,,,,,,,,,,,,,,,,,space,952875,48,2020-08-19_03h30.15.127,CDT_GNG_IUS12,2020.1.2,Win32,60,,,,,,,,,,,,,,,,,,,0,1,space,1,0.509985,0,14,14,15,1,,,,,,,,,,,,,,,,,,,,,,,,,,,,,,
,,,,,,,,,,,,,,,,,,,,,,,,,,,,,,,,,,,,,,,,,,,space,952875,48,2020-08-19_03h30.15.127,CDT_GNG_IUS12,2020.1.2,Win32,60,,,,,,,,,,,,,,,,,,,0,1,,0,,0,15,15,42,1,,,,,,,,,,,,,,,,,,,,,,,,,,,,,,
,,,,,,,,,,,,,,,,,,,,,,,,,,,,,,,,,,,,,,,,,,,space,952875,48,2020-08-19_03h30.15.127,CDT_GNG_IUS12,2020.1.2,Win32,60,,,,,,,,,,,,,,,,,,,0,1,,0,,0,16,16,17,1,,,,,,,,,,,,,,,,,,,,,,,,,,,,,,
,,,,,,,,,,,,,,,,,,,,,,,,,,,,,,,,,,,,,,,,,,,space,952875,48,2020-08-19_03h30.15.127,CDT_GNG_IUS12,2020.1.2,Win32,60,,,,,,,,,,,,,,,,,,,0,1,space,1,0.292875,0,17,17,48,1,,,,,,,,,,,,,,,,,,,,,,,,,,,,,,
,,,,,,,,,,,,,,,,,,,,,,,,,,,,,,,,,,,,,,,,,,,space,952875,48,2020-08-19_03h30.15.127,CDT_GNG_IUS12,2020.1.2,Win32,60,,,,,,,,,,,,,,,,,,,0,1,space,1,0.343145,0,18,18,13,1,,,,,,,,,,,,,,,,,,,,,,,,,,,,,,
,,,,,,,,,,,,,,,,,,,,,,,,,,,,,,,,,,,,,,,,,,,space,952875,48,2020-08-19_03h30.15.127,CDT_GNG_IUS12,2020.1.2,Win32,60,,,,,,,,,,,,,,,,,,,0,1,space,1,0.525985,0,19,19,25,1,,,,,,,,,,,,,,,,,,,,,,,,,,,,,,
,,,,,,,,,,,,,,,,,,,,,,,,,,,,,,,,,,,,,,,,,,,,952875,48,2020-08-19_03h30.15.127,CDT_GNG_IUS12,2020.1.2,Win32,60,,,,,,,,,,,,,,,,,,,1,0,,1,,0,20,20,6,1,,,,,,,,,,,,,,,,,,,,,,,,,,,,,,
,,,,,,,,,,,,,,,,,,,,,,,,,,,,,,,,,,,,,,,,,,,space,952875,48,2020-08-19_03h30.15.127,CDT_GNG_IUS12,2020.1.2,Win32,60,,,,,,,,,,,,,,,,,,,0,1,,0,,0,21,21,47,1,,,,,,,,,,,,,,,,,,,,,,,,,,,,,,
,,,,,,,,,,,,,,,,,,,,,,,,,,,,,,,,,,,,,,,,,,,,952875,48,2020-08-19_03h30.15.127,CDT_GNG_IUS12,2020.1.2,Win32,60,,,,,,,,,,,,,,,,,,,1,0,,1,,0,22,22,7,1,,,,,,,,,,,,,,,,,,,,,,,,,,,,,,
,,,,,,,,,,,,,,,,,,,,,,,,,,,,,,,,,,,,,,,,,,,space,952875,48,2020-08-19_03h30.15.127,CDT_GNG_IUS12,2020.1.2,Win32,60,,,,,,,,,,,,,,,,,,,0,1,,0,,0,23,23,22,1,,,,,,,,,,,,,,,,,,,,,,,,,,,,,,
,,,,,,,,,,,,,,,,,,,,,,,,,,,,,,,,,,,,,,,,,,,space,952875,48,2020-08-19_03h30.15.127,CDT_GNG_IUS12,2020.1.2,Win32,60,,,,,,,,,,,,,,,,,,,0,1,space,1,0.5766,0,24,24,26,1,,,,,,,,,,,,,,,,,,,,,,,,,,,,,,
,,,,,,,,,,,,,,,,,,,,,,,,,,,,,,,,,,,,,,,,,,,space,952875,48,2020-08-19_03h30.15.127,CDT_GNG_IUS12,2020.1.2,Win32,60,,,,,,,,,,,,,,,,,,,0,1,space,1,0.30069,0,25,25,36,1,,,,,,,,,,,,,,,,,,,,,,,,,,,,,,
,,,,,,,,,,,,,,,,,,,,,,,,,,,,,,,,,,,,,,,,,,,,952875,48,2020-08-19_03h30.15.127,CDT_GNG_IUS12,2020.1.2,Win32,60,,,,,,,,,,,,,,,,,,,1,0,,1,,0,26,26,8,1,,,,,,,,,,,,,,,,,,,,,,,,,,,,,,
,,,,,,,,,,,,,,,,,,,,,,,,,,,,,,,,,,,,,,,,,,,,952875,48,2020-08-19_03h30.15.127,CDT_GNG_IUS12,2020.1.2,Win32,60,,,,,,,,,,,,,,,,,,,1,0,space,0,0.26393,0,27,27,9,1,,,,,,,,,,,,,,,,,,,,,,,,,,,,,,
,,,,,,,,,,,,,,,,,,,,,,,,,,,,,,,,,,,,,,,,,,,,952875,48,2020-08-19_03h30.15.127,CDT_GNG_IUS12,2020.1.2,Win32,60,,,,,,,,,,,,,,,,,,,1,0,,1,,0,28,28,1,1,,,,,,,,,,,,,,,,,,,,,,,,,,,,,,
,,,,,,,,,,,,,,,,,,,,,,,,,,,,,,,,,,,,,,,,,,,space,952875,48,2020-08-19_03h30.15.127,CDT_GNG_IUS12,2020.1.2,Win32,60,,,,,,,,,,,,,,,,,,,0,1,space,1,0.55554,0,29,29,46,1,,,,,,,,,,,,,,,,,,,,,,,,,,,,,,
,,,,,,,,,,,,,,,,,,,,,,,,,,,,,,,,,,,,,,,,,,,,952875,48,2020-08-19_03h30.15.127,CDT_GNG_IUS12,2020.1.2,Win32,60,,,,,,,,,,,,,,,,,,,1,0,,1,,0,30,30,5,1,,,,,,,,,,,,,,,,,,,,,,,,,,,,,,
,,,,,,,,,,,,,,,,,,,,,,,,,,,,,,,,,,,,,,,,,,,space,952875,48,2020-08-19_03h30.15.127,CDT_GNG_IUS12,2020.1.2,Win32,60,,,,,,,,,,,,,,,,,,,0,1,,0,,0,31,31,38,1,,,,,,,,,,,,,,,,,,,,,,,,,,,,,,
,,,,,,,,,,,,,,,,,,,,,,,,,,,,,,,,,,,,,,,,,,,space,952875,48,2020-08-19_03h30.15.127,CDT_GNG_IUS12,2020.1.2,Win32,60,,,,,,,,,,,,,,,,,,,0,1,space,1,0.434305,0,32,32,21,1,,,,,,,,,,,,,,,,,,,,,,,,,,,,,,
,,,,,,,,,,,,,,,,,,,,,,,,,,,,,,,,,,,,,,,,,,,space,952875,48,2020-08-19_03h30.15.127,CDT_GNG_IUS12,2020.1.2,Win32,60,,,,,,,,,,,,,,,,,,,0,1,,0,,0,33,33,14,1,,,,,,,,,,,,,,,,,,,,,,,,,,,,,,
,,,,,,,,,,,,,,,,,,,,,,,,,,,,,,,,,,,,,,,,,,,space,952875,48,2020-08-19_03h30.15.127,CDT_GNG_IUS12,2020.1.2,Win32,60,,,,,,,,,,,,,,,,,,,0,1,space,1,0.3427,0,34,34,40,1,,,,,,,,,,,,,,,,,,,,,,,,,,,,,,
,,,,,,,,,,,,,,,,,,,,,,,,,,,,,,,,,,,,,,,,,,,,952875,48,2020-08-19_03h30.15.127,CDT_GNG_IUS12,2020.1.2,Win32,60,,,,,,,,,,,,,,,,,,,1,0,,1,,0,35,35,0,1,,,,,,,,,,,,,,,,,,,,,,,,,,,,,,
,,,,,,,,,,,,,,,,,,,,,,,,,,,,,,,,,,,,,,,,,,,space,952875,48,2020-08-19_03h30.15.127,CDT_GNG_IUS12,2020.1.2,Win32,60,,,,,,,,,,,,,,,,,,,0,1,space,1,0.37261,0,36,36,30,1,,,,,,,,,,,,,,,,,,,,,,,,,,,,,,
,,,,,,,,,,,,,,,,,,,,,,,,,,,,,,,,,,,,,,,,,,,space,952875,48,2020-08-19_03h30.15.127,CDT_GNG_IUS12,2020.1.2,Win32,60,,,,,,,,,,,,,,,,,,,0,1,space,1,0.57672,0,37,37,34,1,,,,,,,,,,,,,,,,,,,,,,,,,,,,,,
,,,,,,,,,,,,,,,,,,,,,,,,,,,,,,,,,,,,,,,,,,,space,952875,48,2020-08-19_03h30.15.127,CDT_GNG_IUS12,2020.1.2,Win32,60,,,,,,,,,,,,,,,,,,,0,1,,0,,0,38,38,33,1,,,,,,,,,,,,,,,,,,,,,,,,,,,,,,
,,,,,,,,,,,,,,,,,,,,,,,,,,,,,,,,,,,,,,,,,,,,952875,48,2020-08-19_03h30.15.127,CDT_GNG_IUS12,2020.1.2,Win32,60,,,,,,,,,,,,,,,,,,,1,0,,1,,0,39,39,4,1,,,,,,,,,,,,,,,,,,,,,,,,,,,,,,
,,,,,,,,,,,,,,,,,,,,,,,,,,,,,,,,,,,,,,,,,,,space,952875,48,2020-08-19_03h30.15.127,CDT_GNG_IUS12,2020.1.2,Win32,60,,,,,,,,,,,,,,,,,,,0,1,space,1,0.29949,0,40,40,49,1,,,,,,,,,,,,,,,,,,,,,,,,,,,,,,
,,,,,,,,,,,,,,,,,,,,,,,,,,,,,,,,,,,,,,,,,,,space,952875,48,2020-08-19_03h30.15.127,CDT_GNG_IUS12,2020.1.2,Win32,60,,,,,,,,,,,,,,,,,,,0,1,space,1,0.560235,0,41,41,18,1,,,,,,,,,,,,,,,,,,,,,,,,,,,,,,
,,,,,,,,,,,,,,,,,,,,,,,,,,,,,,,,,,,,,,,,,,,space,952875,48,2020-08-19_03h30.15.127,CDT_GNG_IUS12,2020.1.2,Win32,60,,,,,,,,,,,,,,,,,,,0,1,,0,,0,42,42,29,1,,,,,,,,,,,,,,,,,,,,,,,,,,,,,,
,,,,,,,,,,,,,,,,,,,,,,,,,,,,,,,,,,,,,,,,,,,space,952875,48,2020-08-19_03h30.15.127,CDT_GNG_IUS12,2020.1.2,Win32,60,,,,,,,,,,,,,,,,,,,0,1,space,1,0.31141,0,43,43,11,1,,,,,,,,,,,,,,,,,,,,,,,,,,,,,,
,,,,,,,,,,,,,,,,,,,,,,,,,,,,,,,,,,,,,,,,,,,space,952875,48,2020-08-19_03h30.15.127,CDT_GNG_IUS12,2020.1.2,Win32,60,,,,,,,,,,,,,,,,,,,0,1,,0,,0,44,44,41,1,,,,,,,,,,,,,,,,,,,,,,,,,,,,,,
,,,,,,,,,,,,,,,,,,,,,,,,,,,,,,,,,,,,,,,,,,,space,952875,48,2020-08-19_03h30.15.127,CDT_GNG_IUS12,2020.1.2,Win32,60,,,,,,,,,,,,,,,,,,,0,1,space,1,0.009905,0,45,45,37,1,,,,,,,,,,,,,,,,,,,,,,,,,,,,,,
,,,,,,,,,,,,,,,,,,,,,,,,,,,,,,,,,,,,,,,,,,,,952875,48,2020-08-19_03h30.15.127,CDT_GNG_IUS12,2020.1.2,Win32,60,,,,,,,,,,,,,,,,,,,1,0,,1,,0,46,46,3,1,,,,,,,,,,,,,,,,,,,,,,,,,,,,,,
,,,,,,,,,,,,,,,,,,,,,,,,,,,,,,,,,,,,,,,,,,,space,952875,48,2020-08-19_03h30.15.127,CDT_GNG_IUS12,2020.1.2,Win32,60,,,,,,,,,,,,,,,,,,,0,1,space,1,0.34462,0,47,47,35,1,,,,,,,,,,,,,,,,,,,,,,,,,,,,,,
,,,,,,,,,,,,,,,,,,,,,,,,,,,,,,,,,,,,,,,,,,,space,952875,48,2020-08-19_03h30.15.127,CDT_GNG_IUS12,2020.1.2,Win32,60,,,,,,,,,,,,,,,,,,,0,1,space,1,0.47663,0,48,48,24,1,,,,,,,,,,,,,,,,,,,,,,,,,,,,,,
,,,,,,,,,,,,,,,,,,,,,,,,,,,,,,,,,,,,,,,,,,,space,952875,48,2020-08-19_03h30.15.127,CDT_GNG_IUS12,2020.1.2,Win32,60,,,,,,,,,,,,,,,,,,,0,1,,0,,0,49,49,44,1,,,,,,,,,,,,,,,,,,,,,,,,,,,,,,
,,,,,,,,,,,,,,,,,,,,,,,,,,,,,,,,,,,,,,,,,,,,952875,48,2020-08-19_03h30.15.127,CDT_GNG_IUS12,2020.1.2,Win32,60,,,,,,,,,,,,,,,,,,,1,0,,1,,,,,,,0,0,0,9,1,,,,,,,,,,,,,,,,,,,,,,,,,
,,,,,,,,,,,,,,,,,,,,,,,,,,,,,,,,,,,,,,,,,,,space,952875,48,2020-08-19_03h30.15.127,CDT_GNG_IUS12,2020.1.2,Win32,60,,,,,,,,,,,,,,,,,,,0,1,space,1,0.348845,,,,,,0,1,1,40,1,,,,,,,,,,,,,,,,,,,,,,,,,
,,,,,,,,,,,,,,,,,,,,,,,,,,,,,,,,,,,,,,,,,,,space,952875,48,2020-08-19_03h30.15.127,CDT_GNG_IUS12,2020.1.2,Win32,60,,,,,,,,,,,,,,,,,,,0,1,space,1,0.38066,,,,,,0,2,2,43,1,,,,,,,,,,,,,,,,,,,,,,,,,
,,,,,,,,,,,,,,,,,,,,,,,,,,,,,,,,,,,,,,,,,,,space,952875,48,2020-08-19_03h30.15.127,CDT_GNG_IUS12,2020.1.2,Win32,60,,,,,,,,,,,,,,,,,,,0,1,space,1,0.412105,,,,,,0,3,3,28,1,,,,,,,,,,,,,,,,,,,,,,,,,
,,,,,,,,,,,,,,,,,,,,,,,,,,,,,,,,,,,,,,,,,,,space,952875,48,2020-08-19_03h30.15.127,CDT_GNG_IUS12,2020.1.2,Win32,60,,,,,,,,,,,,,,,,,,,0,1,space,1,0.38092,,,,,,0,4,4,49,1,,,,,,,,,,,,,,,,,,,,,,,,,
,,,,,,,,,,,,,,,,,,,,,,,,,,,,,,,,,,,,,,,,,,,space,952875,48,2020-08-19_03h30.15.127,CDT_GNG_IUS12,2020.1.2,Win32,60,,,,,,,,,,,,,,,,,,,0,1,space,1,0.55725,,,,,,0,5,5,38,1,,,,,,,,,,,,,,,,,,,,,,,,,
,,,,,,,,,,,,,,,,,,,,,,,,,,,,,,,,,,,,,,,,,,,space,952875,48,2020-08-19_03h30.15.127,CDT_GNG_IUS12,2020.1.2,Win32,60,,,,,,,,,,,,,,,,,,,0,1,,0,,,,,,,0,6,6,34,1,,,,,,,,,,,,,,,,,,,,,,,,,
,,,,,,,,,,,,,,,,,,,,,,,,,,,,,,,,,,,,,,,,,,,,952875,48,2020-08-19_03h30.15.127,CDT_GNG_IUS12,2020.1.2,Win32,60,,,,,,,,,,,,,,,,,,,1,0,space,0,0.269815,,,,,,0,7,7,2,1,,,,,,,,,,,,,,,,,,,,,,,,,
,,,,,,,,,,,,,,,,,,,,,,,,,,,,,,,,,,,,,,,,,,,space,952875,48,2020-08-19_03h30.15.127,CDT_GNG_IUS12,2020.1.2,Win32,60,,,,,,,,,,,,,,,,,,,0,1,space,1,0.5642,,,,,,0,8,8,48,1,,,,,,,,,,,,,,,,,,,,,,,,,
,,,,,,,,,,,,,,,,,,,,,,,,,,,,,,,,,,,,,,,,,,,space,952875,48,2020-08-19_03h30.15.127,CDT_GNG_IUS12,2020.1.2,Win32,60,,,,,,,,,,,,,,,,,,,0,1,space,1,0.558425,,,,,,0,9,9,35,1,,,,,,,,,,,,,,,,,,,,,,,,,
,,,,,,,,,,,,,,,,,,,,,,,,,,,,,,,,,,,,,,,,,,,space,952875,48,2020-08-19_03h30.15.127,CDT_GNG_IUS12,2020.1.2,Win32,60,,,,,,,,,,,,,,,,,,,0,1,,0,,,,,,,0,10,10,26,1,,,,,,,,,,,,,,,,,,,,,,,,,
,,,,,,,,,,,,,,,,,,,,,,,,,,,,,,,,,,,,,,,,,,,space,952875,48,2020-08-19_03h30.15.127,CDT_GNG_IUS12,2020.1.2,Win32,60,,,,,,,,,,,,,,,,,,,0,1,space,1,0.30109,,,,,,0,11,11,36,1,,,,,,,,,,,,,,,,,,,,,,,,,
,,,,,,,,,,,,,,,,,,,,,,,,,,,,,,,,,,,,,,,,,,,space,952875,48,2020-08-19_03h30.15.127,CDT_GNG_IUS12,2020.1.2,Win32,60,,,,,,,,,,,,,,,,,,,0,1,space,1,0.330165,,,,,,0,12,12,29,1,,,,,,,,,,,,,,,,,,,,,,,,,
,,,,,,,,,,,,,,,,,,,,,,,,,,,,,,,,,,,,,,,,,,,space,952875,48,2020-08-19_03h30.15.127,CDT_GNG_IUS12,2020.1.2,Win32,60,,,,,,,,,,,,,,,,,,,0,1,space,1,0.44797,,,,,,0,13,13,10,1,,,,,,,,,,,,,,,,,,,,,,,,,
,,,,,,,,,,,,,,,,,,,,,,,,,,,,,,,,,,,,,,,,,,,space,952875,48,2020-08-19_03h30.15.127,CDT_GNG_IUS12,2020.1.2,Win32,60,,,,,,,,,,,,,,,,,,,0,1,,0,,,,,,,0,14,14,25,1,,,,,,,,,,,,,,,,,,,,,,,,,
,,,,,,,,,,,,,,,,,,,,,,,,,,,,,,,,,,,,,,,,,,,space,952875,48,2020-08-19_03h30.15.127,CDT_GNG_IUS12,2020.1.2,Win32,60,,,,,,,,,,,,,,,,,,,0,1,space,1,0.042415,,,,,,0,15,15,41,1,,,,,,,,,,,,,,,,,,,,,,,,,
,,,,,,,,,,,,,,,,,,,,,,,,,,,,,,,,,,,,,,,,,,,space,952875,48,2020-08-19_03h30.15.127,CDT_GNG_IUS12,2020.1.2,Win32,60,,,,,,,,,,,,,,,,,,,0,1,space,1,0.34109,,,,,,0,16,16,15,1,,,,,,,,,,,,,,,,,,,,,,,,,
,,,,,,,,,,,,,,,,,,,,,,,,,,,,,,,,,,,,,,,,,,,space,952875,48,2020-08-19_03h30.15.127,CDT_GNG_IUS12,2020.1.2,Win32,60,,,,,,,,,,,,,,,,,,,0,1,space,1,0.407045,,,,,,0,17,17,22,1,,,,,,,,,,,,,,,,,,,,,,,,,
,,,,,,,,,,,,,,,,,,,,,,,,,,,,,,,,,,,,,,,,,,,space,952875,48,2020-08-19_03h30.15.127,CDT_GNG_IUS12,2020.1.2,Win32,60,,,,,,,,,,,,,,,,,,,0,1,,0,,,,,,,0,18,18,18,1,,,,,,,,,,,,,,,,,,,,,,,,,
,,,,,,,,,,,,,,,,,,,,,,,,,,,,,,,,,,,,,,,,,,,space,952875,48,2020-08-19_03h30.15.127,CDT_GNG_IUS12,2020.1.2,Win32,60,,,,,,,,,,,,,,,,,,,0,1,space,1,0.01122,,,,,,0,19,19,44,1,,,,,,,,,,,,,,,,,,,,,,,,,
,,,,,,,,,,,,,,,,,,,,,,,,,,,,,,,,,,,,,,,,,,,space,952875,48,2020-08-19_03h30.15.127,CDT_GNG_IUS12,2020.1.2,Win32,60,,,,,,,,,,,,,,,,,,,0,1,space,1,0.292625,,,,,,0,20,20,30,1,,,,,,,,,,,,,,,,,,,,,,,,,
,,,,,,,,,,,,,,,,,,,,,,,,,,,,,,,,,,,,,,,,,,,,952875,48,2020-08-19_03h30.15.127,CDT_GNG_IUS12,2020.1.2,Win32,60,,,,,,,,,,,,,,,,,,,1,0,,1,,,,,,,0,21,21,8,1,,,,,,,,,,,,,,,,,,,,,,,,,
,,,,,,,,,,,,,,,,,,,,,,,,,,,,,,,,,,,,,,,,,,,space,952875,48,2020-08-19_03h30.15.127,CDT_GNG_IUS12,2020.1.2,Win32,60,,,,,,,,,,,,,,,,,,,0,1,space,1,0.29379,,,,,,0,22,22,33,1,,,,,,,,,,,,,,,,,,,,,,,,,
,,,,,,,,,,,,,,,,,,,,,,,,,,,,,,,,,,,,,,,,,,,,952875,48,2020-08-19_03h30.15.127,CDT_GNG_IUS12,2020.1.2,Win32,60,,,,,,,,,,,,,,,,,,,1,0,,1,,,,,,,0,23,23,1,1,,,,,,,,,,,,,,,,,,,,,,,,,
,,,,,,,,,,,,,,,,,,,,,,,,,,,,,,,,,,,,,,,,,,,,952875,48,2020-08-19_03h30.15.127,CDT_GNG_IUS12,2020.1.2,Win32,60,,,,,,,,,,,,,,,,,,,1,0,space,0,0.33492,,,,,,0,24,24,3,1,,,,,,,,,,,,,,,,,,,,,,,,,
,,,,,,,,,,,,,,,,,,,,,,,,,,,,,,,,,,,,,,,,,,,space,952875,48,2020-08-19_03h30.15.127,CDT_GNG_IUS12,2020.1.2,Win32,60,,,,,,,,,,,,,,,,,,,0,1,,0,,,,,,,0,25,25,45,1,,,,,,,,,,,,,,,,,,,,,,,,,
,,,,,,,,,,,,,,,,,,,,,,,,,,,,,,,,,,,,,,,,,,,space,952875,48,2020-08-19_03h30.15.127,CDT_GNG_IUS12,2020.1.2,Win32,60,,,,,,,,,,,,,,,,,,,0,1,space,1,0.1415,,,,,,0,26,26,31,1,,,,,,,,,,,,,,,,,,,,,,,,,
,,,,,,,,,,,,,,,,,,,,,,,,,,,,,,,,,,,,,,,,,,,space,952875,48,2020-08-19_03h30.15.127,CDT_GNG_IUS12,2020.1.2,Win32,60,,,,,,,,,,,,,,,,,,,0,1,,0,,,,,,,0,27,27,27,1,,,,,,,,,,,,,,,,,,,,,,,,,
,,,,,,,,,,,,,,,,,,,,,,,,,,,,,,,,,,,,,,,,,,,space,952875,48,2020-08-19_03h30.15.127,CDT_GNG_IUS12,2020.1.2,Win32,60,,,,,,,,,,,,,,,,,,,0,1,,0,,,,,,,0,28,28,14,1,,,,,,,,,,,,,,,,,,,,,,,,,
,,,,,,,,,,,,,,,,,,,,,,,,,,,,,,,,,,,,,,,,,,,space,952875,48,2020-08-19_03h30.15.127,CDT_GNG_IUS12,2020.1.2,Win32,60,,,,,,,,,,,,,,,,,,,0,1,space,1,0.096445,,,,,,0,29,29,47,1,,,,,,,,,,,,,,,,,,,,,,,,,
,,,,,,,,,,,,,,,,,,,,,,,,,,,,,,,,,,,,,,,,,,,,952875,48,2020-08-19_03h30.15.127,CDT_GNG_IUS12,2020.1.2,Win32,60,,,,,,,,,,,,,,,,,,,1,0,,1,,,,,,,0,30,30,5,1,,,,,,,,,,,,,,,,,,,,,,,,,
,,,,,,,,,,,,,,,,,,,,,,,,,,,,,,,,,,,,,,,,,,,space,952875,48,2020-08-19_03h30.15.127,CDT_GNG_IUS12,2020.1.2,Win32,60,,,,,,,,,,,,,,,,,,,0,1,space,1,0.42891,,,,,,0,31,31,32,1,,,,,,,,,,,,,,,,,,,,,,,,,
,,,,,,,,,,,,,,,,,,,,,,,,,,,,,,,,,,,,,,,,,,,space,952875,48,2020-08-19_03h30.15.127,CDT_GNG_IUS12,2020.1.2,Win32,60,,,,,,,,,,,,,,,,,,,0,1,,0,,,,,,,0,32,32,13,1,,,,,,,,,,,,,,,,,,,,,,,,,
,,,,,,,,,,,,,,,,,,,,,,,,,,,,,,,,,,,,,,,,,,,space,952875,48,2020-08-19_03h30.15.127,CDT_GNG_IUS12,2020.1.2,Win32,60,,,,,,,,,,,,,,,,,,,0,1,space,1,0.240485,,,,,,0,33,33,24,1,,,,,,,,,,,,,,,,,,,,,,,,,
,,,,,,,,,,,,,,,,,,,,,,,,,,,,,,,,,,,,,,,,,,,,952875,48,2020-08-19_03h30.15.127,CDT_GNG_IUS12,2020.1.2,Win32,60,,,,,,,,,,,,,,,,,,,1,0,,1,,,,,,,0,34,34,7,1,,,,,,,,,,,,,,,,,,,,,,,,,
,,,,,,,,,,,,,,,,,,,,,,,,,,,,,,,,,,,,,,,,,,,space,952875,48,2020-08-19_03h30.15.127,CDT_GNG_IUS12,2020.1.2,Win32,60,,,,,,,,,,,,,,,,,,,0,1,space,1,0.28905,,,,,,0,35,35,20,1,,,,,,,,,,,,,,,,,,,,,,,,,
,,,,,,,,,,,,,,,,,,,,,,,,,,,,,,,,,,,,,,,,,,,space,952875,48,2020-08-19_03h30.15.127,CDT_GNG_IUS12,2020.1.2,Win32,60,,,,,,,,,,,,,,,,,,,0,1,space,1,0.5281,,,,,,0,36,36,39,1,,,,,,,,,,,,,,,,,,,,,,,,,
,,,,,,,,,,,,,,,,,,,,,,,,,,,,,,,,,,,,,,,,,,,space,952875,48,2020-08-19_03h30.15.127,CDT_GNG_IUS12,2020.1.2,Win32,60,,,,,,,,,,,,,,,,,,,0,1,,0,,,,,,,0,37,37,12,1,,,,,,,,,,,,,,,,,,,,,,,,,
,,,,,,,,,,,,,,,,,,,,,,,,,,,,,,,,,,,,,,,,,,,,952875,48,2020-08-19_03h30.15.127,CDT_GNG_IUS12,2020.1.2,Win32,60,,,,,,,,,,,,,,,,,,,1,0,,1,,,,,,,0,38,38,6,1,,,,,,,,,,,,,,,,,,,,,,,,,
,,,,,,,,,,,,,,,,,,,,,,,,,,,,,,,,,,,,,,,,,,,,952875,48,2020-08-19_03h30.15.127,CDT_GNG_IUS12,2020.1.2,Win32,60,,,,,,,,,,,,,,,,,,,1,0,space,0,0.110745,,,,,,0,39,39,0,1,,,,,,,,,,,,,,,,,,,,,,,,,
,,,,,,,,,,,,,,,,,,,,,,,,,,,,,,,,,,,,,,,,,,,,952875,48,2020-08-19_03h30.15.127,CDT_GNG_IUS12,2020.1.2,Win32,60,,,,,,,,,,,,,,,,,,,1,0,,1,,,,,,,0,40,40,4,1,,,,,,,,,,,,,,,,,,,,,,,,,
,,,,,,,,,,,,,,,,,,,,,,,,,,,,,,,,,,,,,,,,,,,space,952875,48,2020-08-19_03h30.15.127,CDT_GNG_IUS12,2020.1.2,Win32,60,,,,,,,,,,,,,,,,,,,0,1,space,1,0.364785,,,,,,0,41,41,21,1,,,,,,,,,,,,,,,,,,,,,,,,,
,,,,,,,,,,,,,,,,,,,,,,,,,,,,,,,,,,,,,,,,,,,space,952875,48,2020-08-19_03h30.15.127,CDT_GNG_IUS12,2020.1.2,Win32,60,,,,,,,,,,,,,,,,,,,0,1,,0,,,,,,,0,42,42,17,1,,,,,,,,,,,,,,,,,,,,,,,,,
,,,,,,,,,,,,,,,,,,,,,,,,,,,,,,,,,,,,,,,,,,,space,952875,48,2020-08-19_03h30.15.127,CDT_GNG_IUS12,2020.1.2,Win32,60,,,,,,,,,,,,,,,,,,,0,1,space,1,0.066395,,,,,,0,43,43,16,1,,,,,,,,,,,,,,,,,,,,,,,,,
,,,,,,,,,,,,,,,,,,,,,,,,,,,,,,,,,,,,,,,,,,,space,952875,48,2020-08-19_03h30.15.127,CDT_GNG_IUS12,2020.1.2,Win32,60,,,,,,,,,,,,,,,,,,,0,1,space,1,0.362965,,,,,,0,44,44,11,1,,,,,,,,,,,,,,,,,,,,,,,,,
,,,,,,,,,,,,,,,,,,,,,,,,,,,,,,,,,,,,,,,,,,,space,952875,48,2020-08-19_03h30.15.127,CDT_GNG_IUS12,2020.1.2,Win32,60,,,,,,,,,,,,,,,,,,,0,1,,0,,,,,,,0,45,45,23,1,,,,,,,,,,,,,,,,,,,,,,,,,
,,,,,,,,,,,,,,,,,,,,,,,,,,,,,,,,,,,,,,,,,,,space,952875,48,2020-08-19_03h30.15.127,CDT_GNG_IUS12,2020.1.2,Win32,60,,,,,,,,,,,,,,,,,,,0,1,space,1,0.07599,,,,,,0,46,46,46,1,,,,,,,,,,,,,,,,,,,,,,,,,
,,,,,,,,,,,,,,,,,,,,,,,,,,,,,,,,,,,,,,,,,,,space,952875,48,2020-08-19_03h30.15.127,CDT_GNG_IUS12,2020.1.2,Win32,60,,,,,,,,,,,,,,,,,,,0,1,space,1,0.36351,,,,,,0,47,47,37,1,,,,,,,,,,,,,,,,,,,,,,,,,
,,,,,,,,,,,,,,,,,,,,,,,,,,,,,,,,,,,,,,,,,,,space,952875,48,2020-08-19_03h30.15.127,CDT_GNG_IUS12,2020.1.2,Win32,60,,,,,,,,,,,,,,,,,,,0,1,,0,,,,,,,0,48,48,42,1,,,,,,,,,,,,,,,,,,,,,,,,,
,,,,,,,,,,,,,,,,,,,,,,,,,,,,,,,,,,,,,,,,,,,space,952875,48,2020-08-19_03h30.15.127,CDT_GNG_IUS12,2020.1.2,Win32,60,,,,,,,,,,,,,,,,,,,0,1,space,1,0.31446,,,,,,0,49,49,19,1,,,,,,,,,,,,,,,,,,,,,,,,,
,,,,,,,,,,,,,,,,,,,,,,,,,,,,,,,,,,,,,,,,,,,space,952875,48,2020-08-19_03h30.15.127,CDT_GNG_IUS12,2020.1.2,Win32,60,,,,,,,,,,,,,,,,,,,0,1,space,1,0.38661,,,,,,,,,,,0,0,0,37,1,,,,,,,,,,,,,,,,,,,,
,,,,,,,,,,,,,,,,,,,,,,,,,,,,,,,,,,,,,,,,,,,space,952875,48,2020-08-19_03h30.15.127,CDT_GNG_IUS12,2020.1.2,Win32,60,,,,,,,,,,,,,,,,,,,0,1,space,1,0.342805,,,,,,,,,,,0,1,1,38,1,,,,,,,,,,,,,,,,,,,,
,,,,,,,,,,,,,,,,,,,,,,,,,,,,,,,,,,,,,,,,,,,space,952875,48,2020-08-19_03h30.15.127,CDT_GNG_IUS12,2020.1.2,Win32,60,,,,,,,,,,,,,,,,,,,0,1,space,1,0.34365,,,,,,,,,,,0,2,2,22,1,,,,,,,,,,,,,,,,,,,,
,,,,,,,,,,,,,,,,,,,,,,,,,,,,,,,,,,,,,,,,,,,,952875,48,2020-08-19_03h30.15.127,CDT_GNG_IUS12,2020.1.2,Win32,60,,,,,,,,,,,,,,,,,,,1,0,,1,,,,,,,,,,,,0,3,3,5,1,,,,,,,,,,,,,,,,,,,,
,,,,,,,,,,,,,,,,,,,,,,,,,,,,,,,,,,,,,,,,,,,space,952875,48,2020-08-19_03h30.15.127,CDT_GNG_IUS12,2020.1.2,Win32,60,,,,,,,,,,,,,,,,,,,0,1,space,1,0.37328,,,,,,,,,,,0,4,4,41,1,,,,,,,,,,,,,,,,,,,,
,,,,,,,,,,,,,,,,,,,,,,,,,,,,,,,,,,,,,,,,,,,space,952875,48,2020-08-19_03h30.15.127,CDT_GNG_IUS12,2020.1.2,Win32,60,,,,,,,,,,,,,,,,,,,0,1,space,1,0.4431,,,,,,,,,,,0,5,5,20,1,,,,,,,,,,,,,,,,,,,,
,,,,,,,,,,,,,,,,,,,,,,,,,,,,,,,,,,,,,,,,,,,space,952875,48,2020-08-19_03h30.15.127,CDT_GNG_IUS12,2020.1.2,Win32,60,,,,,,,,,,,,,,,,,,,0,1,space,1,0.346575,,,,,,,,,,,0,6,6,23,1,,,,,,,,,,,,,,,,,,,,
,,,,,,,,,,,,,,,,,,,,,,,,,,,,,,,,,,,,,,,,,,,,952875,48,2020-08-19_03h30.15.127,CDT_GNG_IUS12,2020.1.2,Win32,60,,,,,,,,,,,,,,,,,,,1,0,,1,,,,,,,,,,,,0,7,7,6,1,,,,,,,,,,,,,,,,,,,,
,,,,,,,,,,,,,,,,,,,,,,,,,,,,,,,,,,,,,,,,,,,,952875,48,2020-08-19_03h30.15.127,CDT_GNG_IUS12,2020.1.2,Win32,60,,,,,,,,,,,,,,,,,,,1,0,,1,,,,,,,,,,,,0,8,8,9,1,,,,,,,,,,,,,,,,,,,,
,,,,,,,,,,,,,,,,,,,,,,,,,,,,,,,,,,,,,,,,,,,space,952875,48,2020-08-19_03h30.15.127,CDT_GNG_IUS12,2020.1.2,Win32,60,,,,,,,,,,,,,,,,,,,0,1,space,1,0.37908,,,,,,,,,,,0,9,9,26,1,,,,,,,,,,,,,,,,,,,,
,,,,,,,,,,,,,,,,,,,,,,,,,,,,,,,,,,,,,,,,,,,space,952875,48,2020-08-19_03h30.15.127,CDT_GNG_IUS12,2020.1.2,Win32,60,,,,,,,,,,,,,,,,,,,0,1,space,1,0.4989,,,,,,,,,,,0,10,10,29,1,,,,,,,,,,,,,,,,,,,,
,,,,,,,,,,,,,,,,,,,,,,,,,,,,,,,,,,,,,,,,,,,space,952875,48,2020-08-19_03h30.15.127,CDT_GNG_IUS12,2020.1.2,Win32,60,,,,,,,,,,,,,,,,,,,0,1,,0,,,,,,,,,,,,0,11,11,15,1,,,,,,,,,,,,,,,,,,,,
,,,,,,,,,,,,,,,,,,,,,,,,,,,,,,,,,,,,,,,,,,,,952875,48,2020-08-19_03h30.15.127,CDT_GNG_IUS12,2020.1.2,Win32,60,,,,,,,,,,,,,,,,,,,1,0,space,0,0.27695,,,,,,,,,,,0,12,12,4,1,,,,,,,,,,,,,,,,,,,,
,,,,,,,,,,,,,,,,,,,,,,,,,,,,,,,,,,,,,,,,,,,space,952875,48,2020-08-19_03h30.15.127,CDT_GNG_IUS12,2020.1.2,Win32,60,,,,,,,,,,,,,,,,,,,0,1,,0,,,,,,,,,,,,0,13,13,33,1,,,,,,,,,,,,,,,,,,,,
,,,,,,,,,,,,,,,,,,,,,,,,,,,,,,,,,,,,,,,,,,,space,952875,48,2020-08-19_03h30.15.127,CDT_GNG_IUS12,2020.1.2,Win32,60,,,,,,,,,,,,,,,,,,,0,1,space,1,0.09548,,,,,,,,,,,0,14,14,35,1,,,,,,,,,,,,,,,,,,,,
,,,,,,,,,,,,,,,,,,,,,,,,,,,,,,,,,,,,,,,,,,,,952875,48,2020-08-19_03h30.15.127,CDT_GNG_IUS12,2020.1.2,Win32,60,,,,,,,,,,,,,,,,,,,1,0,space,0,0.061215,,,,,,,,,,,0,15,15,3,1,,,,,,,,,,,,,,,,,,,,
,,,,,,,,,,,,,,,,,,,,,,,,,,,,,,,,,,,,,,,,,,,space,952875,48,2020-08-19_03h30.15.127,CDT_GNG_IUS12,2020.1.2,Win32,60,,,,,,,,,,,,,,,,,,,0,1,,0,,,,,,,,,,,,0,16,16,43,1,,,,,,,,,,,,,,,,,,,,
,,,,,,,,,,,,,,,,,,,,,,,,,,,,,,,,,,,,,,,,,,,space,952875,48,2020-08-19_03h30.15.127,CDT_GNG_IUS12,2020.1.2,Win32,60,,,,,,,,,,,,,,,,,,,0,1,space,1,0.36246,,,,,,,,,,,0,17,17,39,1,,,,,,,,,,,,,,,,,,,,
,,,,,,,,,,,,,,,,,,,,,,,,,,,,,,,,,,,,,,,,,,,space,952875,48,2020-08-19_03h30.15.127,CDT_GNG_IUS12,2020.1.2,Win32,60,,,,,,,,,,,,,,,,,,,0,1,space,1,0.394575,,,,,,,,,,,0,18,18,32,1,,,,,,,,,,,,,,,,,,,,
,,,,,,,,,,,,,,,,,,,,,,,,,,,,,,,,,,,,,,,,,,,,952875,48,2020-08-19_03h30.15.127,CDT_GNG_IUS12,2020.1.2,Win32,60,,,,,,,,,,,,,,,,,,,1,0,,1,,,,,,,,,,,,0,19,19,0,1,,,,,,,,,,,,,,,,,,,,
,,,,,,,,,,,,,,,,,,,,,,,,,,,,,,,,,,,,,,,,,,,space,952875,48,2020-08-19_03h30.15.127,CDT_GNG_IUS12,2020.1.2,Win32,60,,,,,,,,,,,,,,,,,,,0,1,space,1,0.44135,,,,,,,,,,,0,20,20,17,1,,,,,,,,,,,,,,,,,,,,
,,,,,,,,,,,,,,,,,,,,,,,,,,,,,,,,,,,,,,,,,,,space,952875,48,2020-08-19_03h30.15.127,CDT_GNG_IUS12,2020.1.2,Win32,60,,,,,,,,,,,,,,,,,,,0,1,space,1,0.442315,,,,,,,,,,,0,21,21,30,1,,,,,,,,,,,,,,,,,,,,
,,,,,,,,,,,,,,,,,,,,,,,,,,,,,,,,,,,,,,,,,,,space,952875,48,2020-08-19_03h30.15.127,CDT_GNG_IUS12,2020.1.2,Win32,60,,,,,,,,,,,,,,,,,,,0,1,,0,,,,,,,,,,,,0,22,22,14,1,,,,,,,,,,,,,,,,,,,,
,,,,,,,,,,,,,,,,,,,,,,,,,,,,,,,,,,,,,,,,,,,space,952875,48,2020-08-19_03h30.15.127,CDT_GNG_IUS12,2020.1.2,Win32,60,,,,,,,,,,,,,,,,,,,0,1,space,1,0.30556,,,,,,,,,,,0,23,23,31,1,,,,,,,,,,,,,,,,,,,,
,,,,,,,,,,,,,,,,,,,,,,,,,,,,,,,,,,,,,,,,,,,space,952875,48,2020-08-19_03h30.15.127,CDT_GNG_IUS12,2020.1.2,Win32,60,,,,,,,,,,,,,,,,,,,0,1,,0,,,,,,,,,,,,0,24,24,44,1,,,,,,,,,,,,,,,,,,,,
,,,,,,,,,,,,,,,,,,,,,,,,,,,,,,,,,,,,,,,,,,,space,952875,48,2020-08-19_03h30.15.127,CDT_GNG_IUS12,2020.1.2,Win32,60,,,,,,,,,,,,,,,,,,,0,1,space,1,0.3264,,,,,,,,,,,0,25,25,36,1,,,,,,,,,,,,,,,,,,,,
,,,,,,,,,,,,,,,,,,,,,,,,,,,,,,,,,,,,,,,,,,,space,952875,48,2020-08-19_03h30.15.127,CDT_GNG_IUS12,2020.1.2,Win32,60,,,,,,,,,,,,,,,,,,,0,1,space,1,0.42389,,,,,,,,,,,0,26,26,12,1,,,,,,,,,,,,,,,,,,,,
,,,,,,,,,,,,,,,,,,,,,,,,,,,,,,,,,,,,,,,,,,,,952875,48,2020-08-19_03h30.15.127,CDT_GNG_IUS12,2020.1.2,Win32,60,,,,,,,,,,,,,,,,,,,1,0,,1,,,,,,,,,,,,0,27,27,7,1,,,,,,,,,,,,,,,,,,,,
,,,,,,,,,,,,,,,,,,,,,,,,,,,,,,,,,,,,,,,,,,,space,952875,48,2020-08-19_03h30.15.127,CDT_GNG_IUS12,2020.1.2,Win32,60,,,,,,,,,,,,,,,,,,,0,1,space,1,0.57542,,,,,,,,,,,0,28,28,24,1,,,,,,,,,,,,,,,,,,,,
,,,,,,,,,,,,,,,,,,,,,,,,,,,,,,,,,,,,,,,,,,,,952875,48,2020-08-19_03h30.15.127,CDT_GNG_IUS12,2020.1.2,Win32,60,,,,,,,,,,,,,,,,,,,1,0,,1,,,,,,,,,,,,0,29,29,8,1,,,,,,,,,,,,,,,,,,,,
,,,,,,,,,,,,,,,,,,,,,,,,,,,,,,,,,,,,,,,,,,,space,952875,48,2020-08-19_03h30.15.127,CDT_GNG_IUS12,2020.1.2,Win32,60,,,,,,,,,,,,,,,,,,,0,1,,0,,,,,,,,,,,,0,30,30,19,1,,,,,,,,,,,,,,,,,,,,
,,,,,,,,,,,,,,,,,,,,,,,,,,,,,,,,,,,,,,,,,,,space,952875,48,2020-08-19_03h30.15.127,CDT_GNG_IUS12,2020.1.2,Win32,60,,,,,,,,,,,,,,,,,,,0,1,space,1,0.09115,,,,,,,,,,,0,31,31,34,1,,,,,,,,,,,,,,,,,,,,
,,,,,,,,,,,,,,,,,,,,,,,,,,,,,,,,,,,,,,,,,,,space,952875,48,2020-08-19_03h30.15.127,CDT_GNG_IUS12,2020.1.2,Win32,60,,,,,,,,,,,,,,,,,,,0,1,space,1,0.37946,,,,,,,,,,,0,32,32,28,1,,,,,,,,,,,,,,,,,,,,
,,,,,,,,,,,,,,,,,,,,,,,,,,,,,,,,,,,,,,,,,,,space,952875,48,2020-08-19_03h30.15.127,CDT_GNG_IUS12,2020.1.2,Win32,60,,,,,,,,,,,,,,,,,,,0,1,space,1,0.49813,,,,,,,,,,,0,33,33,25,1,,,,,,,,,,,,,,,,,,,,
,,,,,,,,,,,,,,,,,,,,,,,,,,,,,,,,,,,,,,,,,,,space,952875,48,2020-08-19_03h30.15.127,CDT_GNG_IUS12,2020.1.2,Win32,60,,,,,,,,,,,,,,,,,,,0,1,,0,,,,,,,,,,,,0,34,34,21,1,,,,,,,,,,,,,,,,,,,,
,,,,,,,,,,,,,,,,,,,,,,,,,,,,,,,,,,,,,,,,,,,space,952875,48,2020-08-19_03h30.15.127,CDT_GNG_IUS12,2020.1.2,Win32,60,,,,,,,,,,,,,,,,,,,0,1,space,1,0.3955,,,,,,,,,,,0,35,35,40,1,,,,,,,,,,,,,,,,,,,,
,,,,,,,,,,,,,,,,,,,,,,,,,,,,,,,,,,,,,,,,,,,space,952875,48,2020-08-19_03h30.15.127,CDT_GNG_IUS12,2020.1.2,Win32,60,,,,,,,,,,,,,,,,,,,0,1,,0,,,,,,,,,,,,0,36,36,47,1,,,,,,,,,,,,,,,,,,,,
,,,,,,,,,,,,,,,,,,,,,,,,,,,,,,,,,,,,,,,,,,,space,952875,48,2020-08-19_03h30.15.127,CDT_GNG_IUS12,2020.1.2,Win32,60,,,,,,,,,,,,,,,,,,,0,1,space,1,0.01186,,,,,,,,,,,0,37,37,13,1,,,,,,,,,,,,,,,,,,,,
,,,,,,,,,,,,,,,,,,,,,,,,,,,,,,,,,,,,,,,,,,,space,952875,48,2020-08-19_03h30.15.127,CDT_GNG_IUS12,2020.1.2,Win32,60,,,,,,,,,,,,,,,,,,,0,1,space,1,0.33184,,,,,,,,,,,0,38,38,49,1,,,,,,,,,,,,,,,,,,,,
,,,,,,,,,,,,,,,,,,,,,,,,,,,,,,,,,,,,,,,,,,,space,952875,48,2020-08-19_03h30.15.127,CDT_GNG_IUS12,2020.1.2,Win32,60,,,,,,,,,,,,,,,,,,,0,1,space,1,0.557455,,,,,,,,,,,0,39,39,16,1,,,,,,,,,,,,,,,,,,,,
,,,,,,,,,,,,,,,,,,,,,,,,,,,,,,,,,,,,,,,,,,,space,952875,48,2020-08-19_03h30.15.127,CDT_GNG_IUS12,2020.1.2,Win32,60,,,,,,,,,,,,,,,,,,,0,1,,0,,,,,,,,,,,,0,40,40,45,1,,,,,,,,,,,,,,,,,,,,
,,,,,,,,,,,,,,,,,,,,,,,,,,,,,,,,,,,,,,,,,,,space,952875,48,2020-08-19_03h30.15.127,CDT_GNG_IUS12,2020.1.2,Win32,60,,,,,,,,,,,,,,,,,,,0,1,space,1,0.33146,,,,,,,,,,,0,41,41,42,1,,,,,,,,,,,,,,,,,,,,
,,,,,,,,,,,,,,,,,,,,,,,,,,,,,,,,,,,,,,,,,,,space,952875,48,2020-08-19_03h30.15.127,CDT_GNG_IUS12,2020.1.2,Win32,60,,,,,,,,,,,,,,,,,,,0,1,space,1,0.42736,,,,,,,,,,,0,42,42,18,1,,,,,,,,,,,,,,,,,,,,
,,,,,,,,,,,,,,,,,,,,,,,,,,,,,,,,,,,,,,,,,,,space,952875,48,2020-08-19_03h30.15.127,CDT_GNG_IUS12,2020.1.2,Win32,60,,,,,,,,,,,,,,,,,,,0,1,,0,,,,,,,,,,,,0,43,43,10,1,,,,,,,,,,,,,,,,,,,,
,,,,,,,,,,,,,,,,,,,,,,,,,,,,,,,,,,,,,,,,,,,space,952875,48,2020-08-19_03h30.15.127,CDT_GNG_IUS12,2020.1.2,Win32,60,,,,,,,,,,,,,,,,,,,0,1,space,1,0.14763,,,,,,,,,,,0,44,44,27,1,,,,,,,,,,,,,,,,,,,,
,,,,,,,,,,,,,,,,,,,,,,,,,,,,,,,,,,,,,,,,,,,,952875,48,2020-08-19_03h30.15.127,CDT_GNG_IUS12,2020.1.2,Win32,60,,,,,,,,,,,,,,,,,,,1,0,,1,,,,,,,,,,,,0,45,45,1,1,,,,,,,,,,,,,,,,,,,,
,,,,,,,,,,,,,,,,,,,,,,,,,,,,,,,,,,,,,,,,,,,space,952875,48,2020-08-19_03h30.15.127,CDT_GNG_IUS12,2020.1.2,Win32,60,,,,,,,,,,,,,,,,,,,0,1,space,1,0.42625,,,,,,,,,,,0,46,46,48,1,,,,,,,,,,,,,,,,,,,,
,,,,,,,,,,,,,,,,,,,,,,,,,,,,,,,,,,,,,,,,,,,,952875,48,2020-08-19_03h30.15.127,CDT_GNG_IUS12,2020.1.2,Win32,60,,,,,,,,,,,,,,,,,,,1,0,,1,,,,,,,,,,,,0,47,47,2,1,,,,,,,,,,,,,,,,,,,,
,,,,,,,,,,,,,,,,,,,,,,,,,,,,,,,,,,,,,,,,,,,space,952875,48,2020-08-19_03h30.15.127,CDT_GNG_IUS12,2020.1.2,Win32,60,,,,,,,,,,,,,,,,,,,0,1,space,1,0.49406,,,,,,,,,,,0,48,48,46,1,,,,,,,,,,,,,,,,,,,,
,,,,,,,,,,,,,,,,,,,,,,,,,,,,,,,,,,,,,,,,,,,space,952875,48,2020-08-19_03h30.15.127,CDT_GNG_IUS12,2020.1.2,Win32,60,,,,,,,,,,,,,,,,,,,0,1,,0,,,,,,,,,,,,0,49,49,11,1,,,,,,,,,,,,,,,,,,,,
,,,,,,,,,,,,,,,,,,,,,,,,,,,,,,,,,,,,,,,,,,,,952875,48,2020-08-19_03h30.15.127,CDT_GNG_IUS12,2020.1.2,Win32,60,,,,,,,,,,,,,,,,,,,,,,,,,,,,,,,,,,,,,,,8.880208333,23.52813,0,0,0,0,1,1,"On a scale from 0 to 10, indicate your personal perception of your proficiency level for English (10 being the highest score)",,,,,,,,,,,
,,,,,,,,,,,,,,,,,,,,,,,,,,,,,,,,,,,,,,,,,,,,952875,48,2020-08-19_03h30.15.127,CDT_GNG_IUS12,2020.1.2,Win32,60,,,,,,,,,,,,,,,,,,,,,,,,,,,,,,,,,,,,,,,7.005208333,36.228075,0,1,1,1,1,2,"On a scale from 0 to 10, indicate how frequently you are exposed to English (10 being 'always', 0 being 'never')",,,,,,,,,,,
,,,,,,,,,,,,,,,,,,,,,,,,,,,,,,,,,,,,,,,,,,,,952875,48,2020-08-19_03h30.15.127,CDT_GNG_IUS12,2020.1.2,Win32,60,,,,,,,,,,,,,,,,,,,,,,,,,,,,,,,,,,,,,,,,,,,,,,,"On a scale from 0 to 10, indicate your personal perception of your proficiency level for English (10 being the highest score)",5,33.629085,0,0,0,0,1,1,Unforeseen events upset me greatly.,,
,,,,,,,,,,,,,,,,,,,,,,,,,,,,,,,,,,,,,,,,,,,,952875,48,2020-08-19_03h30.15.127,CDT_GNG_IUS12,2020.1.2,Win32,60,,,,,,,,,,,,,,,,,,,,,,,,,,,,,,,,,,,,,,,,,,,,,,,"On a scale from 0 to 10, indicate how frequently you are exposed to English (10 being 'always', 0 being 'never')",3.984375,6.06447,0,1,1,1,1,2,It frustrates me not having all the information I need.,,
,,,,,,,,,,,,,,,,,,,,,,,,,,,,,,,,,,,,,,,,,,,,952875,48,2020-08-19_03h30.15.127,CDT_GNG_IUS12,2020.1.2,Win32,60,,,,,,,,,,,,,,,,,,,,,,,,,,,,,,,,,,,,,,,,,,,,,,,,5,23.294085,0,2,2,2,1,3,One should always look ahead so as to avoid surprises.,,
,,,,,,,,,,,,,,,,,,,,,,,,,,,,,,,,,,,,,,,,,,,,952875,48,2020-08-19_03h30.15.127,CDT_GNG_IUS12,2020.1.2,Win32,60,,,,,,,,,,,,,,,,,,,,,,,,,,,,,,,,,,,,,,,,,,,,,,,,1,7.260645,0,3,3,3,1,4,"A small, unforeseen event can spoil everything, even with the best of planning. ",,
,,,,,,,,,,,,,,,,,,,,,,,,,,,,,,,,,,,,,,,,,,,,952875,48,2020-08-19_03h30.15.127,CDT_GNG_IUS12,2020.1.2,Win32,60,,,,,,,,,,,,,,,,,,,,,,,,,,,,,,,,,,,,,,,,,,,,,,,,1.989583333,15.29376,0,4,4,4,1,5,I always want to know what the future has in store for me.,,
,,,,,,,,,,,,,,,,,,,,,,,,,,,,,,,,,,,,,,,,,,,,952875,48,2020-08-19_03h30.15.127,CDT_GNG_IUS12,2020.1.2,Win32,60,,,,,,,,,,,,,,,,,,,,,,,,,,,,,,,,,,,,,,,,,,,,,,,,2.041666667,13.8748,0,5,5,5,1,6,I can't stand being taken by surprise.,,
,,,,,,,,,,,,,,,,,,,,,,,,,,,,,,,,,,,,,,,,,,,,952875,48,2020-08-19_03h30.15.127,CDT_GNG_IUS12,2020.1.2,Win32,60,,,,,,,,,,,,,,,,,,,,,,,,,,,,,,,,,,,,,,,,,,,,,,,,4.953125,5.718575,0,6,6,6,1,7,I should be able to organize everything in advance,,
,,,,,,,,,,,,,,,,,,,,,,,,,,,,,,,,,,,,,,,,,,,,952875,48,2020-08-19_03h30.15.127,CDT_GNG_IUS12,2020.1.2,Win32,60,,,,,,,,,,,,,,,,,,,,,,,,,,,,,,,,,,,,,,,,,,,,,,,,1.958333333,9.594505,0,7,7,7,1,8,Uncertainty keeps me from living a full life.,,
,,,,,,,,,,,,,,,,,,,,,,,,,,,,,,,,,,,,,,,,,,,,952875,48,2020-08-19_03h30.15.127,CDT_GNG_IUS12,2020.1.2,Win32,60,,,,,,,,,,,,,,,,,,,,,,,,,,,,,,,,,,,,,,,,,,,,,,,,1.036458333,12.576855,0,8,8,8,1,9,"When it's time to act, uncertainty paralyses me. ",,
,,,,,,,,,,,,,,,,,,,,,,,,,,,,,,,,,,,,,,,,,,,,952875,48,2020-08-19_03h30.15.127,CDT_GNG_IUS12,2020.1.2,Win32,60,,,,,,,,,,,,,,,,,,,,,,,,,,,,,,,,,,,,,,,,,,,,,,,,1.947916667,6.162495,0,9,9,9,1,10,"When I am uncertain, I can't function very well. ",,
,,,,,,,,,,,,,,,,,,,,,,,,,,,,,,,,,,,,,,,,,,,,952875,48,2020-08-19_03h30.15.127,CDT_GNG_IUS12,2020.1.2,Win32,60,,,,,,,,,,,,,,,,,,,,,,,,,,,,,,,,,,,,,,,,,,,,,,,,1.072916667,19.96256,0,10,10,10,1,11,The smallest doubt can stop me from acting. ,,
,,,,,,,,,,,,,,,,,,,,,,,,,,,,,,,,,,,,,,,,,,,,952875,48,2020-08-19_03h30.15.127,CDT_GNG_IUS12,2020.1.2,Win32,60,,,,,,,,,,,,,,,,,,,,,,,,,,,,,,,,,,,,,,,,,,,,,,,,4.979166667,14.74543,0,11,11,11,1,12,I must get away from all uncertain situations. ,,
,,,,,,,,,,,,,,,,,,,,,,,,,,,,,,,,,,,,,,,,,,,,952875,48,2020-08-19_03h30.15.127,CDT_GNG_IUS12,2020.1.2,Win32,60,,,,,,,,,,,,,,,,,,,,,,,,,,,,,,,,,,,,,,,,,,,,,,,,,,,,,,,,,x,73.90345
