key_resp_6.keys,key_resp_6.rt,key_resp_2.keys,key_resp_2.corr,key_resp_2.rt,CDT_trials_train.thisRepN,CDT_trials_train.thisTrialN,CDT_trials_train.thisN,CDT_trials_train.thisIndex,CDT_trials_train.ran,trialnum,condit,stimamt,stim1posx,stim1posy,stim1col,stim1opa,stim2posx,stim2posy,stim2col,stim2opa,stim3posx,stim3posy,stim3col,stim3opa,stim4posx,stim4posy,stim4col,stim4opa,stim5posx,stim5posy,stim5col,stim5opa,stim6posx,stim6posy,stim6col,stim6opa,stimsizex,stimsizey,stimdur,targetposx,targetposy,targetcol,corrAns,participant,age,date,expName,psychopyVersion,OS,frameRate,key_resp_5.keys,key_resp.keys,key_resp.corr,key_resp.rt,CDT_trials.thisRepN,CDT_trials.thisTrialN,CDT_trials.thisN,CDT_trials.thisIndex,CDT_trials.ran,key_resp_5.rt,trialResp_Train.keys,trialResp_Train.corr,trialResp_Train.rt,GNGtrials_train.thisRepN,GNGtrials_train.thisTrialN,GNGtrials_train.thisN,GNGtrials_train.thisIndex,GNGtrials_train.ran,orangeOpacity,blueOpacity,trialResp.keys,trialResp.corr,trialResp.rt,GNG_trials_1.thisRepN,GNG_trials_1.thisTrialN,GNG_trials_1.thisN,GNG_trials_1.thisIndex,GNG_trials_1.ran,GNG_trials_2.thisRepN,GNG_trials_2.thisTrialN,GNG_trials_2.thisN,GNG_trials_2.thisIndex,GNG_trials_2.ran,GNG_trials_3.thisRepN,GNG_trials_3.thisTrialN,GNG_trials_3.thisN,GNG_trials_3.thisIndex,GNG_trials_3.ran,slider_2.response,slider_2.rt,engprof_trials.thisRepN,engprof_trials.thisTrialN,engprof_trials.thisN,engprof_trials.thisIndex,engprof_trials.ran,qpnumber,qproficiency,slider.response,slider.rt,IUS12_trials.thisRepN,IUS12_trials.thisTrialN,IUS12_trials.thisN,IUS12_trials.thisIndex,IUS12_trials.ran,qnumber,qenglish,key_resp_end.keys,key_resp_end.rt
y,2.66765,k,1,1.575425,0,0,0,0,1,1,same,4,0.273779233,-0.054755847,black,1,-0.16426754,-0.273779233,magenta,1,-0.16426754,0.16426754,orange,1,0.16426754,0.054755847,yellow,1,0.16426754,-0.054755847,cyan,0,-0.054755847,-0.16426754,blue,0,0.05,0.05,0.15,-0.16426754,0.16426754,orange,k,9870655,30,2020-09-04_10h17.03.623,CDT_GNG_IUS12,2020.1.2,Win32,60,,,,,,,,,,,,,,,,,,,,,,,,,,,,,,,,,,,,,,,,,,,,,,,,,,,,,,,,,,
,,l,1,0.925885,0,1,1,1,1,2,different,4,0.054755847,-0.054755847,orange,1,-0.273779233,0.273779233,magenta,1,0.273779233,0.16426754,yellow,1,-0.273779233,-0.16426754,blue,1,0.273779233,-0.054755847,red,0,-0.273779233,0.054755847,cyan,0,0.05,0.05,0.15,-0.273779233,-0.16426754,black,l,9870655,30,2020-09-04_10h17.03.623,CDT_GNG_IUS12,2020.1.2,Win32,60,,,,,,,,,,,,,,,,,,,,,,,,,,,,,,,,,,,,,,,,,,,,,,,,,,,,,,,,,,
,,l,0,1.518505,0,2,2,2,1,3,same,6,-0.054755847,0.273779233,green,1,0.273779233,-0.273779233,magenta,1,0.273779233,0.16426754,cyan,1,-0.054755847,-0.054755847,black,1,-0.273779233,0.16426754,orange,1,0.16426754,-0.054755847,blue,1,0.05,0.05,0.15,-0.054755847,0.273779233,green,k,9870655,30,2020-09-04_10h17.03.623,CDT_GNG_IUS12,2020.1.2,Win32,60,,,,,,,,,,,,,,,,,,,,,,,,,,,,,,,,,,,,,,,,,,,,,,,,,,,,,,,,,,
,,l,1,1.00553,0,3,3,3,1,4,different,6,0.16426754,-0.054755847,orange,1,-0.054755847,0.273779233,red,1,0.273779233,0.273779233,green,1,-0.054755847,-0.273779233,yellow,1,0.273779233,-0.054755847,blue,1,-0.16426754,0.16426754,black,1,0.05,0.05,0.15,0.273779233,0.273779233,cyan,l,9870655,30,2020-09-04_10h17.03.623,CDT_GNG_IUS12,2020.1.2,Win32,60,,,,,,,,,,,,,,,,,,,,,,,,,,,,,,,,,,,,,,,,,,,,,,,,,,,,,,,,,,
,,,,,,,,,,10,same,4,0.273779233,0.273779233,green,1,-0.16426754,-0.054755847,yellow,1,-0.16426754,0.16426754,cyan,1,0.273779233,-0.16426754,blue,1,0.273779233,0.054755847,orange,0,-0.273779233,-0.16426754,red,0,0.05,0.05,0.15,0.273779233,0.273779233,green,k,9870655,30,2020-09-04_10h17.03.623,CDT_GNG_IUS12,2020.1.2,Win32,60,,l,0,0.93327,0,0,0,9,1,,,,,,,,,,,,,,,,,,,,,,,,,,,,,,,,,,,,,,,,,,,,,,,,,
,,,,,,,,,,52,different,4,-0.273779233,-0.16426754,magenta,1,-0.273779233,0.054755847,green,1,0.273779233,-0.054755847,cyan,1,0.273779233,0.054755847,black,1,-0.16426754,-0.16426754,orange,0,-0.054755847,0.054755847,red,0,0.05,0.05,0.15,-0.273779233,-0.16426754,black,l,9870655,30,2020-09-04_10h17.03.623,CDT_GNG_IUS12,2020.1.2,Win32,60,,l,1,1.031715,0,1,1,51,1,,,,,,,,,,,,,,,,,,,,,,,,,,,,,,,,,,,,,,,,,,,,,,,,,
,,,,,,,,,,35,different,4,-0.054755847,-0.054755847,black,1,0.054755847,0.273779233,magenta,1,-0.273779233,0.054755847,blue,1,0.273779233,-0.054755847,red,1,-0.054755847,-0.16426754,cyan,0,0.054755847,0.054755847,yellow,0,0.05,0.05,0.15,0.054755847,0.273779233,cyan,l,9870655,30,2020-09-04_10h17.03.623,CDT_GNG_IUS12,2020.1.2,Win32,60,,l,1,1.1342,0,2,2,34,1,,,,,,,,,,,,,,,,,,,,,,,,,,,,,,,,,,,,,,,,,,,,,,,,,
,,,,,,,,,,109,different,6,-0.273779233,-0.16426754,blue,1,0.054755847,-0.16426754,black,1,-0.054755847,0.054755847,cyan,1,0.054755847,0.16426754,green,1,-0.054755847,-0.054755847,yellow,1,0.16426754,-0.273779233,orange,1,0.05,0.05,0.15,-0.273779233,-0.16426754,green,l,9870655,30,2020-09-04_10h17.03.623,CDT_GNG_IUS12,2020.1.2,Win32,60,,l,1,1.08595,0,3,3,108,1,,,,,,,,,,,,,,,,,,,,,,,,,,,,,,,,,,,,,,,,,,,,,,,,,
,,,,,,,,,,50,different,4,-0.16426754,0.054755847,black,1,-0.273779233,-0.16426754,magenta,1,0.054755847,0.054755847,cyan,1,0.273779233,-0.16426754,green,1,-0.273779233,0.273779233,yellow,0,-0.16426754,-0.054755847,orange,0,0.05,0.05,0.15,-0.273779233,-0.16426754,yellow,l,9870655,30,2020-09-04_10h17.03.623,CDT_GNG_IUS12,2020.1.2,Win32,60,,l,1,0.933495,0,4,4,49,1,,,,,,,,,,,,,,,,,,,,,,,,,,,,,,,,,,,,,,,,,,,,,,,,,
,,,,,,,,,,12,same,4,0.054755847,0.054755847,blue,1,-0.273779233,-0.054755847,magenta,1,-0.054755847,0.273779233,black,1,0.16426754,-0.16426754,green,1,0.16426754,0.16426754,yellow,0,-0.16426754,-0.054755847,orange,0,0.05,0.05,0.15,0.054755847,0.054755847,blue,k,9870655,30,2020-09-04_10h17.03.623,CDT_GNG_IUS12,2020.1.2,Win32,60,,k,1,0.7669,0,5,5,11,1,,,,,,,,,,,,,,,,,,,,,,,,,,,,,,,,,,,,,,,,,,,,,,,,,
,,,,,,,,,,18,same,4,-0.054755847,0.273779233,black,1,-0.16426754,-0.16426754,cyan,1,0.054755847,0.16426754,red,1,0.273779233,-0.273779233,magenta,1,-0.16426754,0.273779233,orange,0,-0.054755847,-0.273779233,green,0,0.05,0.05,0.15,0.273779233,-0.273779233,magenta,k,9870655,30,2020-09-04_10h17.03.623,CDT_GNG_IUS12,2020.1.2,Win32,60,,k,1,1.00192,0,6,6,17,1,,,,,,,,,,,,,,,,,,,,,,,,,,,,,,,,,,,,,,,,,,,,,,,,,
,,,,,,,,,,85,same,6,-0.16426754,-0.273779233,black,1,-0.16426754,0.16426754,green,1,0.16426754,-0.054755847,blue,1,0.054755847,0.054755847,magenta,1,-0.16426754,-0.054755847,red,1,-0.054755847,0.054755847,yellow,1,0.05,0.05,0.15,-0.16426754,-0.273779233,black,k,9870655,30,2020-09-04_10h17.03.623,CDT_GNG_IUS12,2020.1.2,Win32,60,,k,1,1.115255,0,7,7,84,1,,,,,,,,,,,,,,,,,,,,,,,,,,,,,,,,,,,,,,,,,,,,,,,,,
,,,,,,,,,,40,different,4,-0.273779233,-0.273779233,magenta,1,0.054755847,-0.16426754,yellow,1,-0.16426754,0.054755847,red,1,0.273779233,0.273779233,orange,1,-0.054755847,-0.054755847,cyan,0,0.16426754,-0.16426754,green,0,0.05,0.05,0.15,0.273779233,0.273779233,black,l,9870655,30,2020-09-04_10h17.03.623,CDT_GNG_IUS12,2020.1.2,Win32,60,,l,1,1.07077,0,8,8,39,1,,,,,,,,,,,,,,,,,,,,,,,,,,,,,,,,,,,,,,,,,,,,,,,,,
,,,,,,,,,,111,different,6,0.273779233,0.273779233,green,1,0.054755847,-0.16426754,red,1,-0.16426754,-0.16426754,black,1,-0.16426754,0.16426754,magenta,1,0.054755847,0.054755847,blue,1,0.273779233,-0.16426754,yellow,1,0.05,0.05,0.15,0.273779233,-0.16426754,green,l,9870655,30,2020-09-04_10h17.03.623,CDT_GNG_IUS12,2020.1.2,Win32,60,,l,1,1.288305,0,9,9,110,1,,,,,,,,,,,,,,,,,,,,,,,,,,,,,,,,,,,,,,,,,,,,,,,,,
,,,,,,,,,,94,different,6,0.273779233,-0.273779233,green,1,-0.16426754,-0.054755847,black,1,-0.273779233,0.16426754,blue,1,0.273779233,0.054755847,cyan,1,0.16426754,-0.16426754,magenta,1,-0.054755847,-0.054755847,orange,1,0.05,0.05,0.15,0.273779233,-0.273779233,magenta,l,9870655,30,2020-09-04_10h17.03.623,CDT_GNG_IUS12,2020.1.2,Win32,60,,l,1,1.091505,0,10,10,93,1,,,,,,,,,,,,,,,,,,,,,,,,,,,,,,,,,,,,,,,,,,,,,,,,,
,,,,,,,,,,59,different,4,0.16426754,-0.16426754,red,1,-0.054755847,-0.16426754,cyan,1,0.054755847,0.16426754,yellow,1,-0.16426754,0.273779233,green,1,0.16426754,-0.054755847,orange,0,-0.16426754,-0.054755847,black,0,0.05,0.05,0.15,-0.16426754,0.273779233,black,l,9870655,30,2020-09-04_10h17.03.623,CDT_GNG_IUS12,2020.1.2,Win32,60,,k,0,0.785815,0,11,11,58,1,,,,,,,,,,,,,,,,,,,,,,,,,,,,,,,,,,,,,,,,,,,,,,,,,
,,,,,,,,,,106,different,6,0.054755847,-0.16426754,blue,1,-0.273779233,-0.273779233,magenta,1,0.273779233,0.273779233,yellow,1,-0.273779233,0.054755847,orange,1,0.054755847,-0.054755847,green,1,-0.054755847,-0.16426754,black,1,0.05,0.05,0.15,0.054755847,-0.054755847,cyan,l,9870655,30,2020-09-04_10h17.03.623,CDT_GNG_IUS12,2020.1.2,Win32,60,,l,1,1.04096,0,12,12,105,1,,,,,,,,,,,,,,,,,,,,,,,,,,,,,,,,,,,,,,,,,,,,,,,,,
,,,,,,,,,,23,same,4,0.273779233,-0.16426754,yellow,1,0.054755847,0.273779233,red,1,-0.054755847,0.054755847,black,1,-0.273779233,-0.054755847,orange,1,0.273779233,-0.054755847,green,0,0.273779233,0.054755847,magenta,0,0.05,0.05,0.15,-0.054755847,0.054755847,black,k,9870655,30,2020-09-04_10h17.03.623,CDT_GNG_IUS12,2020.1.2,Win32,60,,k,1,1.10179,0,13,13,22,1,,,,,,,,,,,,,,,,,,,,,,,,,,,,,,,,,,,,,,,,,,,,,,,,,
,,,,,,,,,,15,same,4,0.054755847,-0.273779233,yellow,1,-0.273779233,-0.054755847,cyan,1,0.273779233,0.16426754,green,1,-0.16426754,0.16426754,blue,1,0.273779233,-0.054755847,magenta,0,-0.16426754,-0.054755847,orange,0,0.05,0.05,0.15,-0.273779233,-0.054755847,cyan,k,9870655,30,2020-09-04_10h17.03.623,CDT_GNG_IUS12,2020.1.2,Win32,60,,l,0,1.123835,0,14,14,14,1,,,,,,,,,,,,,,,,,,,,,,,,,,,,,,,,,,,,,,,,,,,,,,,,,
,,,,,,,,,,115,different,6,-0.16426754,0.273779233,magenta,1,-0.273779233,-0.054755847,blue,1,0.273779233,0.273779233,red,1,0.054755847,-0.273779233,cyan,1,-0.054755847,0.16426754,green,1,-0.273779233,-0.273779233,yellow,1,0.05,0.05,0.15,-0.273779233,-0.054755847,yellow,l,9870655,30,2020-09-04_10h17.03.623,CDT_GNG_IUS12,2020.1.2,Win32,60,,l,1,1.391895,0,15,15,114,1,,,,,,,,,,,,,,,,,,,,,,,,,,,,,,,,,,,,,,,,,,,,,,,,,
,,,,,,,,,,31,different,4,-0.16426754,0.16426754,blue,1,0.16426754,-0.054755847,magenta,1,-0.16426754,-0.054755847,yellow,1,0.054755847,0.273779233,black,1,-0.273779233,0.054755847,red,0,0.273779233,-0.273779233,cyan,0,0.05,0.05,0.15,-0.16426754,-0.054755847,black,l,9870655,30,2020-09-04_10h17.03.623,CDT_GNG_IUS12,2020.1.2,Win32,60,,l,1,0.87085,0,16,16,30,1,,,,,,,,,,,,,,,,,,,,,,,,,,,,,,,,,,,,,,,,,,,,,,,,,
,,,,,,,,,,120,different,6,0.16426754,-0.054755847,blue,1,-0.16426754,-0.273779233,cyan,1,0.16426754,0.16426754,magenta,1,-0.273779233,0.273779233,black,1,0.273779233,-0.16426754,green,1,-0.273779233,-0.16426754,orange,1,0.05,0.05,0.15,0.16426754,0.16426754,yellow,l,9870655,30,2020-09-04_10h17.03.623,CDT_GNG_IUS12,2020.1.2,Win32,60,,l,1,0.961035,0,17,17,119,1,,,,,,,,,,,,,,,,,,,,,,,,,,,,,,,,,,,,,,,,,,,,,,,,,
,,,,,,,,,,44,different,4,0.16426754,0.16426754,green,1,0.16426754,-0.16426754,black,1,-0.16426754,-0.054755847,cyan,1,-0.16426754,0.054755847,magenta,1,0.16426754,0.054755847,blue,0,0.054755847,-0.273779233,yellow,0,0.05,0.05,0.15,0.16426754,0.16426754,red,l,9870655,30,2020-09-04_10h17.03.623,CDT_GNG_IUS12,2020.1.2,Win32,60,,l,1,0.667725,0,18,18,43,1,,,,,,,,,,,,,,,,,,,,,,,,,,,,,,,,,,,,,,,,,,,,,,,,,
,,,,,,,,,,69,same,6,-0.054755847,-0.054755847,black,1,0.273779233,-0.054755847,orange,1,-0.273779233,0.16426754,blue,1,0.054755847,0.054755847,yellow,1,-0.16426754,-0.16426754,green,1,0.054755847,-0.16426754,magenta,1,0.05,0.05,0.15,-0.16426754,-0.16426754,green,k,9870655,30,2020-09-04_10h17.03.623,CDT_GNG_IUS12,2020.1.2,Win32,60,,l,0,1.06672,0,19,19,68,1,,,,,,,,,,,,,,,,,,,,,,,,,,,,,,,,,,,,,,,,,,,,,,,,,
,,,,,,,,,,104,different,6,0.054755847,-0.16426754,magenta,1,0.273779233,0.273779233,yellow,1,-0.273779233,0.273779233,blue,1,-0.16426754,-0.054755847,cyan,1,0.16426754,-0.054755847,orange,1,0.273779233,0.16426754,green,1,0.05,0.05,0.15,0.054755847,-0.16426754,cyan,l,9870655,30,2020-09-04_10h17.03.623,CDT_GNG_IUS12,2020.1.2,Win32,60,,k,0,0.85828,0,20,20,103,1,,,,,,,,,,,,,,,,,,,,,,,,,,,,,,,,,,,,,,,,,,,,,,,,,
,,,,,,,,,,88,same,6,0.054755847,0.054755847,orange,1,0.054755847,-0.273779233,red,1,-0.16426754,-0.16426754,magenta,1,-0.16426754,0.273779233,yellow,1,0.16426754,0.16426754,blue,1,0.273779233,-0.16426754,cyan,1,0.05,0.05,0.15,-0.16426754,0.273779233,yellow,k,9870655,30,2020-09-04_10h17.03.623,CDT_GNG_IUS12,2020.1.2,Win32,60,,l,0,0.96505,0,21,21,87,1,,,,,,,,,,,,,,,,,,,,,,,,,,,,,,,,,,,,,,,,,,,,,,,,,
,,,,,,,,,,58,different,4,-0.16426754,0.273779233,blue,1,0.16426754,0.273779233,yellow,1,0.273779233,-0.16426754,black,1,-0.16426754,-0.054755847,cyan,1,-0.16426754,0.16426754,green,0,0.16426754,0.054755847,orange,0,0.05,0.05,0.15,0.273779233,-0.16426754,magenta,l,9870655,30,2020-09-04_10h17.03.623,CDT_GNG_IUS12,2020.1.2,Win32,60,,l,1,1.11842,0,22,22,57,1,,,,,,,,,,,,,,,,,,,,,,,,,,,,,,,,,,,,,,,,,,,,,,,,,
,,,,,,,,,,21,same,4,0.273779233,0.273779233,black,1,-0.273779233,-0.273779233,blue,1,0.054755847,-0.16426754,yellow,1,-0.273779233,0.054755847,cyan,1,0.16426754,0.273779233,magenta,0,-0.054755847,-0.054755847,green,0,0.05,0.05,0.15,0.273779233,0.273779233,black,k,9870655,30,2020-09-04_10h17.03.623,CDT_GNG_IUS12,2020.1.2,Win32,60,,k,1,0.58483,0,23,23,20,1,,,,,,,,,,,,,,,,,,,,,,,,,,,,,,,,,,,,,,,,,,,,,,,,,
,,,,,,,,,,30,same,4,0.16426754,0.16426754,blue,1,0.054755847,-0.054755847,green,1,-0.273779233,-0.16426754,black,1,-0.054755847,0.273779233,yellow,1,0.16426754,0.273779233,red,0,0.16426754,-0.16426754,magenta,0,0.05,0.05,0.15,0.054755847,-0.054755847,green,k,9870655,30,2020-09-04_10h17.03.623,CDT_GNG_IUS12,2020.1.2,Win32,60,,k,1,0.95405,0,24,24,29,1,,,,,,,,,,,,,,,,,,,,,,,,,,,,,,,,,,,,,,,,,,,,,,,,,
,,,,,,,,,,93,different,6,-0.16426754,0.16426754,red,1,0.054755847,-0.054755847,black,1,-0.054755847,-0.16426754,blue,1,0.054755847,0.273779233,magenta,1,-0.054755847,0.054755847,orange,1,0.16426754,-0.054755847,cyan,1,0.05,0.05,0.15,-0.054755847,-0.16426754,black,l,9870655,30,2020-09-04_10h17.03.623,CDT_GNG_IUS12,2020.1.2,Win32,60,,l,1,1.018005,0,25,25,92,1,,,,,,,,,,,,,,,,,,,,,,,,,,,,,,,,,,,,,,,,,,,,,,,,,
,,,,,,,,,,61,same,6,0.273779233,0.16426754,cyan,1,0.273779233,-0.273779233,blue,1,-0.16426754,-0.16426754,green,1,-0.16426754,0.273779233,black,1,0.16426754,0.054755847,red,1,0.273779233,-0.16426754,yellow,1,0.05,0.05,0.15,0.273779233,-0.16426754,yellow,k,9870655,30,2020-09-04_10h17.03.623,CDT_GNG_IUS12,2020.1.2,Win32,60,,l,0,0.067865,0,26,26,60,1,,,,,,,,,,,,,,,,,,,,,,,,,,,,,,,,,,,,,,,,,,,,,,,,,
,,,,,,,,,,34,different,4,0.16426754,0.16426754,yellow,1,0.273779233,-0.16426754,cyan,1,-0.273779233,-0.273779233,magenta,1,-0.273779233,0.16426754,green,1,0.054755847,0.054755847,black,0,0.273779233,-0.273779233,orange,0,0.05,0.05,0.15,0.16426754,0.16426754,cyan,l,9870655,30,2020-09-04_10h17.03.623,CDT_GNG_IUS12,2020.1.2,Win32,60,,l,1,1.394185,0,27,27,33,1,,,,,,,,,,,,,,,,,,,,,,,,,,,,,,,,,,,,,,,,,,,,,,,,,
,,,,,,,,,,65,same,6,-0.273779233,-0.16426754,cyan,1,-0.054755847,0.054755847,blue,1,0.054755847,-0.054755847,red,1,0.273779233,0.054755847,green,1,-0.16426754,-0.054755847,orange,1,-0.273779233,0.273779233,yellow,1,0.05,0.05,0.15,-0.273779233,-0.16426754,cyan,k,9870655,30,2020-09-04_10h17.03.623,CDT_GNG_IUS12,2020.1.2,Win32,60,,l,0,1.20028,0,28,28,64,1,,,,,,,,,,,,,,,,,,,,,,,,,,,,,,,,,,,,,,,,,,,,,,,,,
,,,,,,,,,,16,same,4,0.16426754,0.16426754,cyan,1,-0.16426754,-0.273779233,red,1,-0.16426754,0.16426754,black,1,0.273779233,-0.054755847,yellow,1,0.273779233,0.273779233,orange,0,-0.054755847,-0.273779233,blue,0,0.05,0.05,0.15,-0.16426754,-0.273779233,red,k,9870655,30,2020-09-04_10h17.03.623,CDT_GNG_IUS12,2020.1.2,Win32,60,,k,1,0.972635,0,29,29,15,1,,,,,,,,,,,,,,,,,,,,,,,,,,,,,,,,,,,,,,,,,,,,,,,,,
,,,,,,,,,,73,same,6,0.054755847,0.16426754,blue,1,-0.273779233,0.273779233,red,1,-0.273779233,-0.16426754,green,1,0.054755847,-0.054755847,orange,1,0.16426754,0.16426754,black,1,-0.054755847,0.16426754,magenta,1,0.05,0.05,0.15,-0.273779233,0.273779233,red,k,9870655,30,2020-09-04_10h17.03.623,CDT_GNG_IUS12,2020.1.2,Win32,60,,k,1,0.63666,0,30,30,72,1,,,,,,,,,,,,,,,,,,,,,,,,,,,,,,,,,,,,,,,,,,,,,,,,,
,,,,,,,,,,66,same,6,0.273779233,-0.273779233,cyan,1,-0.273779233,-0.054755847,black,1,-0.273779233,0.054755847,yellow,1,0.273779233,0.16426754,green,1,0.054755847,-0.16426754,orange,1,-0.273779233,-0.16426754,magenta,1,0.05,0.05,0.15,0.273779233,0.16426754,green,k,9870655,30,2020-09-04_10h17.03.623,CDT_GNG_IUS12,2020.1.2,Win32,60,,k,1,0.7676,0,31,31,65,1,,,,,,,,,,,,,,,,,,,,,,,,,,,,,,,,,,,,,,,,,,,,,,,,,
,,,,,,,,,,76,same,6,0.16426754,0.054755847,cyan,1,0.273779233,-0.273779233,red,1,-0.054755847,-0.273779233,magenta,1,-0.054755847,0.16426754,yellow,1,0.054755847,0.273779233,blue,1,0.054755847,-0.273779233,green,1,0.05,0.05,0.15,0.16426754,0.054755847,cyan,k,9870655,30,2020-09-04_10h17.03.623,CDT_GNG_IUS12,2020.1.2,Win32,60,,l,0,0.87175,0,32,32,75,1,,,,,,,,,,,,,,,,,,,,,,,,,,,,,,,,,,,,,,,,,,,,,,,,,
,,,,,,,,,,108,different,6,-0.273779233,-0.054755847,magenta,1,0.054755847,0.16426754,red,1,-0.16426754,0.054755847,cyan,1,0.054755847,-0.273779233,green,1,-0.273779233,-0.16426754,orange,1,0.273779233,0.273779233,black,1,0.05,0.05,0.15,-0.273779233,-0.054755847,blue,l,9870655,30,2020-09-04_10h17.03.623,CDT_GNG_IUS12,2020.1.2,Win32,60,,l,1,0.98197,0,33,33,107,1,,,,,,,,,,,,,,,,,,,,,,,,,,,,,,,,,,,,,,,,,,,,,,,,,
,,,,,,,,,,37,different,4,0.273779233,-0.273779233,cyan,1,-0.054755847,0.054755847,orange,1,-0.054755847,-0.16426754,yellow,1,0.16426754,0.054755847,blue,1,0.054755847,-0.273779233,red,0,-0.273779233,0.16426754,green,0,0.05,0.05,0.15,-0.054755847,0.054755847,green,l,9870655,30,2020-09-04_10h17.03.623,CDT_GNG_IUS12,2020.1.2,Win32,60,,l,1,0.887785,0,34,34,36,1,,,,,,,,,,,,,,,,,,,,,,,,,,,,,,,,,,,,,,,,,,,,,,,,,
,,,,,,,,,,36,different,4,-0.16426754,-0.054755847,cyan,1,0.16426754,0.054755847,red,1,0.16426754,-0.054755847,black,1,-0.273779233,0.273779233,orange,1,-0.054755847,-0.054755847,yellow,0,0.273779233,0.273779233,green,0,0.05,0.05,0.15,0.16426754,-0.054755847,orange,l,9870655,30,2020-09-04_10h17.03.623,CDT_GNG_IUS12,2020.1.2,Win32,60,,l,1,0.720105,0,35,35,35,1,,,,,,,,,,,,,,,,,,,,,,,,,,,,,,,,,,,,,,,,,,,,,,,,,
,,,,,,,,,,102,different,6,-0.273779233,-0.273779233,magenta,1,0.054755847,0.16426754,green,1,0.16426754,-0.273779233,yellow,1,-0.16426754,0.054755847,orange,1,-0.16426754,-0.273779233,red,1,0.273779233,0.054755847,cyan,1,0.05,0.05,0.15,-0.273779233,-0.273779233,yellow,l,9870655,30,2020-09-04_10h17.03.623,CDT_GNG_IUS12,2020.1.2,Win32,60,,l,1,0.925985,0,36,36,101,1,,,,,,,,,,,,,,,,,,,,,,,,,,,,,,,,,,,,,,,,,,,,,,,,,
,,,,,,,,,,49,different,4,-0.16426754,-0.273779233,black,1,0.16426754,0.16426754,red,1,-0.273779233,0.16426754,yellow,1,0.054755847,-0.273779233,green,1,-0.273779233,-0.273779233,magenta,0,0.054755847,0.273779233,blue,0,0.05,0.05,0.15,0.054755847,-0.273779233,orange,l,9870655,30,2020-09-04_10h17.03.623,CDT_GNG_IUS12,2020.1.2,Win32,60,,l,1,0.837385,0,37,37,48,1,,,,,,,,,,,,,,,,,,,,,,,,,,,,,,,,,,,,,,,,,,,,,,,,,
,,,,,,,,,,89,same,6,-0.054755847,-0.273779233,cyan,1,-0.16426754,0.16426754,green,1,0.273779233,0.273779233,black,1,0.273779233,-0.273779233,orange,1,-0.273779233,-0.16426754,magenta,1,-0.16426754,0.273779233,yellow,1,0.05,0.05,0.15,-0.16426754,0.273779233,yellow,k,9870655,30,2020-09-04_10h17.03.623,CDT_GNG_IUS12,2020.1.2,Win32,60,,k,1,0.80291,0,38,38,88,1,,,,,,,,,,,,,,,,,,,,,,,,,,,,,,,,,,,,,,,,,,,,,,,,,
,,,,,,,,,,5,same,4,0.273779233,-0.054755847,green,1,0.273779233,0.054755847,orange,1,-0.054755847,0.054755847,black,1,-0.054755847,-0.16426754,blue,1,0.054755847,-0.054755847,cyan,0,0.054755847,0.273779233,red,0,0.05,0.05,0.15,-0.054755847,-0.16426754,blue,k,9870655,30,2020-09-04_10h17.03.623,CDT_GNG_IUS12,2020.1.2,Win32,60,,l,0,0.667695,0,39,39,4,1,,,,,,,,,,,,,,,,,,,,,,,,,,,,,,,,,,,,,,,,,,,,,,,,,
,,,,,,,,,,99,different,6,0.054755847,0.16426754,orange,1,0.16426754,-0.16426754,yellow,1,-0.16426754,0.273779233,red,1,-0.273779233,-0.054755847,magenta,1,0.16426754,0.054755847,black,1,0.054755847,-0.054755847,green,1,0.05,0.05,0.15,-0.16426754,0.273779233,blue,l,9870655,30,2020-09-04_10h17.03.623,CDT_GNG_IUS12,2020.1.2,Win32,60,,l,1,0.82115,0,40,40,98,1,,,,,,,,,,,,,,,,,,,,,,,,,,,,,,,,,,,,,,,,,,,,,,,,,
,,,,,,,,,,68,same,6,0.16426754,-0.054755847,blue,1,-0.054755847,-0.16426754,orange,1,-0.16426754,0.054755847,red,1,0.16426754,0.273779233,magenta,1,0.054755847,-0.054755847,black,1,-0.273779233,-0.273779233,yellow,1,0.05,0.05,0.15,-0.054755847,-0.16426754,orange,k,9870655,30,2020-09-04_10h17.03.623,CDT_GNG_IUS12,2020.1.2,Win32,60,,k,1,0.786925,0,41,41,67,1,,,,,,,,,,,,,,,,,,,,,,,,,,,,,,,,,,,,,,,,,,,,,,,,,
,,,,,,,,,,47,different,4,-0.16426754,-0.054755847,orange,1,0.273779233,0.054755847,black,1,-0.16426754,0.16426754,red,1,0.273779233,-0.16426754,blue,1,-0.054755847,-0.273779233,green,0,0.16426754,0.16426754,yellow,0,0.05,0.05,0.15,0.273779233,0.054755847,red,l,9870655,30,2020-09-04_10h17.03.623,CDT_GNG_IUS12,2020.1.2,Win32,60,,l,1,0.937425,0,42,42,46,1,,,,,,,,,,,,,,,,,,,,,,,,,,,,,,,,,,,,,,,,,,,,,,,,,
,,,,,,,,,,116,different,6,-0.273779233,0.16426754,green,1,-0.054755847,-0.054755847,orange,1,0.273779233,-0.273779233,cyan,1,0.054755847,0.273779233,red,1,-0.054755847,0.16426754,blue,1,-0.16426754,-0.054755847,yellow,1,0.05,0.05,0.15,-0.054755847,-0.054755847,magenta,l,9870655,30,2020-09-04_10h17.03.623,CDT_GNG_IUS12,2020.1.2,Win32,60,,l,1,0.80668,0,43,43,115,1,,,,,,,,,,,,,,,,,,,,,,,,,,,,,,,,,,,,,,,,,,,,,,,,,
,,,,,,,,,,84,same,6,-0.273779233,-0.16426754,black,1,0.273779233,0.273779233,blue,1,-0.054755847,0.054755847,red,1,0.16426754,-0.054755847,orange,1,-0.16426754,-0.16426754,cyan,1,0.16426754,0.16426754,magenta,1,0.05,0.05,0.15,-0.16426754,-0.16426754,cyan,k,9870655,30,2020-09-04_10h17.03.623,CDT_GNG_IUS12,2020.1.2,Win32,60,,l,0,0.9593,0,44,44,83,1,,,,,,,,,,,,,,,,,,,,,,,,,,,,,,,,,,,,,,,,,,,,,,,,,
,,,,,,,,,,22,same,4,-0.054755847,-0.16426754,green,1,-0.16426754,0.054755847,blue,1,0.16426754,0.16426754,yellow,1,0.273779233,-0.054755847,black,1,-0.273779233,-0.054755847,red,0,-0.054755847,0.16426754,cyan,0,0.05,0.05,0.15,0.273779233,-0.054755847,black,k,9870655,30,2020-09-04_10h17.03.623,CDT_GNG_IUS12,2020.1.2,Win32,60,,l,0,1.00378,0,45,45,21,1,,,,,,,,,,,,,,,,,,,,,,,,,,,,,,,,,,,,,,,,,,,,,,,,,
,,,,,,,,,,98,different,6,-0.054755847,-0.16426754,magenta,1,0.273779233,0.273779233,green,1,0.273779233,-0.273779233,red,1,-0.16426754,0.273779233,blue,1,-0.273779233,-0.16426754,cyan,1,0.273779233,0.054755847,black,1,0.05,0.05,0.15,-0.16426754,0.273779233,cyan,l,9870655,30,2020-09-04_10h17.03.623,CDT_GNG_IUS12,2020.1.2,Win32,60,,l,1,0.91684,0,46,46,97,1,,,,,,,,,,,,,,,,,,,,,,,,,,,,,,,,,,,,,,,,,,,,,,,,,
,,,,,,,,,,62,same,6,0.054755847,-0.054755847,yellow,1,-0.273779233,-0.16426754,green,1,0.273779233,0.054755847,orange,1,-0.16426754,0.054755847,cyan,1,0.054755847,-0.273779233,red,1,-0.054755847,-0.054755847,blue,1,0.05,0.05,0.15,0.054755847,-0.054755847,yellow,k,9870655,30,2020-09-04_10h17.03.623,CDT_GNG_IUS12,2020.1.2,Win32,60,,k,1,0.924925,0,47,47,61,1,,,,,,,,,,,,,,,,,,,,,,,,,,,,,,,,,,,,,,,,,,,,,,,,,
,,,,,,,,,,100,different,6,0.273779233,0.16426754,blue,1,-0.054755847,0.054755847,magenta,1,-0.273779233,-0.054755847,orange,1,0.273779233,-0.273779233,red,1,0.16426754,0.054755847,green,1,-0.273779233,0.054755847,yellow,1,0.05,0.05,0.15,0.273779233,0.16426754,orange,l,9870655,30,2020-09-04_10h17.03.623,CDT_GNG_IUS12,2020.1.2,Win32,60,,l,1,1.088935,0,48,48,99,1,,,,,,,,,,,,,,,,,,,,,,,,,,,,,,,,,,,,,,,,,,,,,,,,,
,,,,,,,,,,13,same,4,0.16426754,0.273779233,orange,1,0.054755847,-0.273779233,blue,1,-0.054755847,0.054755847,magenta,1,-0.054755847,-0.16426754,black,1,0.054755847,0.16426754,yellow,0,0.16426754,-0.054755847,cyan,0,0.05,0.05,0.15,0.054755847,-0.273779233,blue,k,9870655,30,2020-09-04_10h17.03.623,CDT_GNG_IUS12,2020.1.2,Win32,60,,k,1,1.00432,0,49,49,12,1,,,,,,,,,,,,,,,,,,,,,,,,,,,,,,,,,,,,,,,,,,,,,,,,,
,,,,,,,,,,114,different,6,-0.16426754,0.16426754,black,1,-0.054755847,-0.273779233,orange,1,0.054755847,0.16426754,magenta,1,0.273779233,-0.16426754,green,1,-0.054755847,0.16426754,cyan,1,-0.273779233,-0.273779233,yellow,1,0.05,0.05,0.15,0.054755847,0.16426754,blue,l,9870655,30,2020-09-04_10h17.03.623,CDT_GNG_IUS12,2020.1.2,Win32,60,,l,1,1.008765,0,50,50,113,1,,,,,,,,,,,,,,,,,,,,,,,,,,,,,,,,,,,,,,,,,,,,,,,,,
,,,,,,,,,,74,same,6,-0.273779233,-0.273779233,magenta,1,0.16426754,0.054755847,cyan,1,-0.16426754,0.273779233,black,1,0.273779233,-0.054755847,yellow,1,-0.16426754,-0.16426754,red,1,0.054755847,0.273779233,green,1,0.05,0.05,0.15,-0.16426754,-0.16426754,red,k,9870655,30,2020-09-04_10h17.03.623,CDT_GNG_IUS12,2020.1.2,Win32,60,,l,0,0.87064,0,51,51,73,1,,,,,,,,,,,,,,,,,,,,,,,,,,,,,,,,,,,,,,,,,,,,,,,,,
,,,,,,,,,,83,same,6,0.054755847,-0.16426754,cyan,1,-0.16426754,-0.16426754,blue,1,0.273779233,0.054755847,magenta,1,-0.273779233,0.273779233,green,1,0.273779233,-0.16426754,orange,1,-0.054755847,-0.054755847,yellow,1,0.05,0.05,0.15,-0.054755847,-0.054755847,yellow,k,9870655,30,2020-09-04_10h17.03.623,CDT_GNG_IUS12,2020.1.2,Win32,60,,k,1,0.78628,0,52,52,82,1,,,,,,,,,,,,,,,,,,,,,,,,,,,,,,,,,,,,,,,,,,,,,,,,,
,,,,,,,,,,41,different,4,0.054755847,-0.273779233,orange,1,-0.273779233,0.054755847,blue,1,-0.054755847,-0.16426754,yellow,1,0.273779233,0.16426754,red,1,0.273779233,-0.273779233,black,0,-0.273779233,0.273779233,magenta,0,0.05,0.05,0.15,-0.054755847,-0.16426754,black,l,9870655,30,2020-09-04_10h17.03.623,CDT_GNG_IUS12,2020.1.2,Win32,60,,l,1,0.750955,0,53,53,40,1,,,,,,,,,,,,,,,,,,,,,,,,,,,,,,,,,,,,,,,,,,,,,,,,,
,,,,,,,,,,27,same,4,-0.273779233,0.054755847,blue,1,-0.16426754,-0.16426754,black,1,0.16426754,-0.273779233,cyan,1,0.273779233,0.054755847,red,1,-0.054755847,0.273779233,magenta,0,-0.054755847,-0.273779233,yellow,0,0.05,0.05,0.15,0.273779233,0.054755847,red,k,9870655,30,2020-09-04_10h17.03.623,CDT_GNG_IUS12,2020.1.2,Win32,60,,k,1,0.776105,0,54,54,26,1,,,,,,,,,,,,,,,,,,,,,,,,,,,,,,,,,,,,,,,,,,,,,,,,,
,,,,,,,,,,91,different,6,-0.054755847,0.054755847,green,1,0.054755847,-0.16426754,cyan,1,-0.054755847,-0.054755847,black,1,0.16426754,0.273779233,yellow,1,-0.273779233,0.273779233,magenta,1,0.16426754,-0.054755847,red,1,0.05,0.05,0.15,0.16426754,-0.054755847,green,l,9870655,30,2020-09-04_10h17.03.623,CDT_GNG_IUS12,2020.1.2,Win32,60,,l,1,0.74169,0,55,55,90,1,,,,,,,,,,,,,,,,,,,,,,,,,,,,,,,,,,,,,,,,,,,,,,,,,
,,,,,,,,,,7,same,4,-0.16426754,-0.054755847,yellow,1,0.273779233,0.16426754,magenta,1,-0.16426754,0.054755847,cyan,1,0.054755847,-0.054755847,black,1,-0.054755847,-0.054755847,orange,0,0.273779233,0.273779233,blue,0,0.05,0.05,0.15,0.054755847,-0.054755847,black,k,9870655,30,2020-09-04_10h17.03.623,CDT_GNG_IUS12,2020.1.2,Win32,60,,k,1,0.58516,0,56,56,6,1,,,,,,,,,,,,,,,,,,,,,,,,,,,,,,,,,,,,,,,,,,,,,,,,,
,,,,,,,,,,64,same,6,0.16426754,0.273779233,black,1,-0.16426754,-0.16426754,orange,1,0.16426754,-0.16426754,red,1,-0.273779233,0.054755847,magenta,1,0.054755847,0.16426754,cyan,1,-0.054755847,-0.16426754,yellow,1,0.05,0.05,0.15,0.16426754,0.273779233,black,k,9870655,30,2020-09-04_10h17.03.623,CDT_GNG_IUS12,2020.1.2,Win32,60,,k,1,0.835085,0,57,57,63,1,,,,,,,,,,,,,,,,,,,,,,,,,,,,,,,,,,,,,,,,,,,,,,,,,
,,,,,,,,,,48,different,4,0.16426754,0.273779233,cyan,1,-0.054755847,-0.273779233,magenta,1,0.16426754,-0.054755847,orange,1,-0.273779233,0.273779233,blue,1,0.273779233,0.16426754,red,0,-0.054755847,-0.16426754,green,0,0.05,0.05,0.15,0.16426754,-0.054755847,red,l,9870655,30,2020-09-04_10h17.03.623,CDT_GNG_IUS12,2020.1.2,Win32,60,,l,1,1.10573,0,58,58,47,1,,,,,,,,,,,,,,,,,,,,,,,,,,,,,,,,,,,,,,,,,,,,,,,,,
,,,,,,,,,,96,different,6,-0.16426754,-0.16426754,green,1,-0.16426754,0.054755847,black,1,0.054755847,0.16426754,cyan,1,0.16426754,-0.273779233,yellow,1,-0.273779233,-0.273779233,blue,1,-0.054755847,0.054755847,red,1,0.05,0.05,0.15,-0.16426754,0.054755847,magenta,l,9870655,30,2020-09-04_10h17.03.623,CDT_GNG_IUS12,2020.1.2,Win32,60,s,l,1,0.928925,0,59,59,95,1,6.292695,,,,,,,,,,,,,,,,,,,,,,,,,,,,,,,,,,,,,,,,,,,,,,,,
,,,,,,,,,,87,same,6,0.273779233,0.16426754,green,1,-0.16426754,-0.054755847,black,1,-0.054755847,0.054755847,cyan,1,0.273779233,-0.054755847,blue,1,0.054755847,0.054755847,yellow,1,-0.273779233,-0.273779233,red,1,0.05,0.05,0.15,-0.273779233,-0.273779233,red,k,9870655,30,2020-09-04_10h17.03.623,CDT_GNG_IUS12,2020.1.2,Win32,60,,l,0,0.86848,0,60,60,86,1,,,,,,,,,,,,,,,,,,,,,,,,,,,,,,,,,,,,,,,,,,,,,,,,,
,,,,,,,,,,45,different,4,0.054755847,0.16426754,blue,1,-0.054755847,-0.273779233,magenta,1,-0.16426754,0.16426754,black,1,0.054755847,-0.16426754,orange,1,0.273779233,0.273779233,green,0,-0.273779233,-0.16426754,cyan,0,0.05,0.05,0.15,-0.16426754,0.16426754,magenta,l,9870655,30,2020-09-04_10h17.03.623,CDT_GNG_IUS12,2020.1.2,Win32,60,,l,1,0.7767,0,61,61,44,1,,,,,,,,,,,,,,,,,,,,,,,,,,,,,,,,,,,,,,,,,,,,,,,,,
,,,,,,,,,,39,different,4,0.054755847,0.054755847,green,1,0.273779233,-0.16426754,yellow,1,-0.16426754,0.054755847,orange,1,-0.273779233,-0.054755847,red,1,0.273779233,0.054755847,blue,0,0.054755847,-0.16426754,cyan,0,0.05,0.05,0.15,-0.273779233,-0.054755847,cyan,l,9870655,30,2020-09-04_10h17.03.623,CDT_GNG_IUS12,2020.1.2,Win32,60,,l,1,0.681465,0,62,62,38,1,,,,,,,,,,,,,,,,,,,,,,,,,,,,,,,,,,,,,,,,,,,,,,,,,
,,,,,,,,,,90,same,6,0.16426754,-0.054755847,black,1,-0.273779233,-0.054755847,orange,1,-0.16426754,0.16426754,cyan,1,0.273779233,0.273779233,blue,1,0.054755847,-0.054755847,magenta,1,-0.273779233,-0.273779233,yellow,1,0.05,0.05,0.15,-0.273779233,-0.054755847,orange,k,9870655,30,2020-09-04_10h17.03.623,CDT_GNG_IUS12,2020.1.2,Win32,60,,l,0,0.75419,0,63,63,89,1,,,,,,,,,,,,,,,,,,,,,,,,,,,,,,,,,,,,,,,,,,,,,,,,,
,,,,,,,,,,28,same,4,0.16426754,-0.273779233,yellow,1,-0.054755847,0.16426754,black,1,0.16426754,0.054755847,cyan,1,-0.273779233,-0.16426754,blue,1,0.273779233,-0.273779233,orange,0,-0.054755847,0.054755847,magenta,0,0.05,0.05,0.15,-0.054755847,0.16426754,black,k,9870655,30,2020-09-04_10h17.03.623,CDT_GNG_IUS12,2020.1.2,Win32,60,,k,1,0.76669,0,64,64,27,1,,,,,,,,,,,,,,,,,,,,,,,,,,,,,,,,,,,,,,,,,,,,,,,,,
,,,,,,,,,,57,different,4,-0.273779233,-0.054755847,yellow,1,0.16426754,-0.054755847,green,1,-0.273779233,0.16426754,red,1,0.273779233,0.054755847,black,1,-0.16426754,-0.054755847,orange,0,0.054755847,-0.16426754,magenta,0,0.05,0.05,0.15,0.16426754,-0.054755847,orange,l,9870655,30,2020-09-04_10h17.03.623,CDT_GNG_IUS12,2020.1.2,Win32,60,,l,1,0.89806,0,65,65,56,1,,,,,,,,,,,,,,,,,,,,,,,,,,,,,,,,,,,,,,,,,,,,,,,,,
,,,,,,,,,,80,same,6,-0.273779233,0.16426754,orange,1,0.054755847,-0.273779233,yellow,1,0.054755847,0.273779233,green,1,-0.16426754,-0.273779233,red,1,-0.16426754,0.273779233,blue,1,0.273779233,-0.16426754,black,1,0.05,0.05,0.15,0.054755847,-0.273779233,yellow,k,9870655,30,2020-09-04_10h17.03.623,CDT_GNG_IUS12,2020.1.2,Win32,60,,l,0,0.703945,0,66,66,79,1,,,,,,,,,,,,,,,,,,,,,,,,,,,,,,,,,,,,,,,,,,,,,,,,,
,,,,,,,,,,92,different,6,0.16426754,0.16426754,green,1,-0.054755847,-0.054755847,cyan,1,-0.054755847,0.054755847,red,1,0.16426754,-0.054755847,magenta,1,0.054755847,0.16426754,orange,1,-0.273779233,-0.16426754,yellow,1,0.05,0.05,0.15,0.16426754,0.16426754,cyan,l,9870655,30,2020-09-04_10h17.03.623,CDT_GNG_IUS12,2020.1.2,Win32,60,,k,0,0.79439,0,67,67,91,1,,,,,,,,,,,,,,,,,,,,,,,,,,,,,,,,,,,,,,,,,,,,,,,,,
,,,,,,,,,,67,same,6,0.273779233,-0.054755847,magenta,1,0.16426754,0.273779233,orange,1,-0.273779233,0.273779233,cyan,1,-0.16426754,-0.054755847,yellow,1,0.16426754,-0.16426754,blue,1,0.16426754,0.16426754,red,1,0.05,0.05,0.15,-0.273779233,0.273779233,cyan,k,9870655,30,2020-09-04_10h17.03.623,CDT_GNG_IUS12,2020.1.2,Win32,60,,k,1,0.48689,0,68,68,66,1,,,,,,,,,,,,,,,,,,,,,,,,,,,,,,,,,,,,,,,,,,,,,,,,,
,,,,,,,,,,71,same,6,-0.054755847,-0.16426754,orange,1,0.273779233,0.054755847,green,1,0.16426754,-0.16426754,yellow,1,-0.054755847,0.054755847,blue,1,-0.054755847,-0.273779233,black,1,0.054755847,0.16426754,cyan,1,0.05,0.05,0.15,-0.054755847,0.054755847,blue,k,9870655,30,2020-09-04_10h17.03.623,CDT_GNG_IUS12,2020.1.2,Win32,60,,l,0,0.89995,0,69,69,70,1,,,,,,,,,,,,,,,,,,,,,,,,,,,,,,,,,,,,,,,,,,,,,,,,,
,,,,,,,,,,2,same,4,0.273779233,0.054755847,magenta,1,-0.273779233,0.273779233,red,1,-0.054755847,-0.054755847,yellow,1,0.273779233,-0.273779233,blue,1,0.054755847,0.16426754,green,0,-0.16426754,0.054755847,cyan,0,0.05,0.05,0.15,0.273779233,-0.273779233,blue,k,9870655,30,2020-09-04_10h17.03.623,CDT_GNG_IUS12,2020.1.2,Win32,60,,k,1,0.80861,0,70,70,1,1,,,,,,,,,,,,,,,,,,,,,,,,,,,,,,,,,,,,,,,,,,,,,,,,,
,,,,,,,,,,60,different,4,0.273779233,0.273779233,red,1,-0.273779233,-0.054755847,blue,1,-0.273779233,0.054755847,magenta,1,0.054755847,-0.273779233,black,1,0.273779233,0.054755847,orange,0,-0.054755847,-0.16426754,yellow,0,0.05,0.05,0.15,-0.273779233,0.054755847,yellow,l,9870655,30,2020-09-04_10h17.03.623,CDT_GNG_IUS12,2020.1.2,Win32,60,,l,1,0.90862,0,71,71,59,1,,,,,,,,,,,,,,,,,,,,,,,,,,,,,,,,,,,,,,,,,,,,,,,,,
,,,,,,,,,,118,different,6,-0.16426754,-0.16426754,red,1,0.273779233,0.16426754,orange,1,-0.16426754,0.273779233,cyan,1,0.16426754,-0.273779233,black,1,-0.054755847,-0.054755847,yellow,1,0.054755847,0.054755847,green,1,0.05,0.05,0.15,-0.054755847,-0.054755847,magenta,l,9870655,30,2020-09-04_10h17.03.623,CDT_GNG_IUS12,2020.1.2,Win32,60,,k,0,0.650395,0,72,72,117,1,,,,,,,,,,,,,,,,,,,,,,,,,,,,,,,,,,,,,,,,,,,,,,,,,
,,,,,,,,,,72,same,6,0.273779233,-0.16426754,blue,1,0.16426754,0.273779233,yellow,1,-0.16426754,0.273779233,magenta,1,-0.273779233,-0.054755847,orange,1,0.054755847,-0.16426754,cyan,1,0.273779233,0.054755847,black,1,0.05,0.05,0.15,-0.16426754,0.273779233,magenta,k,9870655,30,2020-09-04_10h17.03.623,CDT_GNG_IUS12,2020.1.2,Win32,60,,l,0,1.203465,0,73,73,71,1,,,,,,,,,,,,,,,,,,,,,,,,,,,,,,,,,,,,,,,,,,,,,,,,,
,,,,,,,,,,54,different,4,-0.054755847,-0.054755847,black,1,0.054755847,0.054755847,cyan,1,0.273779233,-0.16426754,green,1,-0.273779233,0.16426754,magenta,1,-0.054755847,-0.16426754,orange,0,0.054755847,0.16426754,blue,0,0.05,0.05,0.15,-0.273779233,0.16426754,orange,l,9870655,30,2020-09-04_10h17.03.623,CDT_GNG_IUS12,2020.1.2,Win32,60,,l,1,0.650885,0,74,74,53,1,,,,,,,,,,,,,,,,,,,,,,,,,,,,,,,,,,,,,,,,,,,,,,,,,
,,,,,,,,,,101,different,6,0.273779233,0.273779233,yellow,1,0.054755847,-0.16426754,black,1,-0.054755847,0.054755847,cyan,1,-0.054755847,-0.16426754,magenta,1,0.273779233,0.054755847,green,1,0.16426754,-0.16426754,blue,1,0.05,0.05,0.15,0.273779233,0.273779233,green,l,9870655,30,2020-09-04_10h17.03.623,CDT_GNG_IUS12,2020.1.2,Win32,60,,l,1,0.924925,0,75,75,100,1,,,,,,,,,,,,,,,,,,,,,,,,,,,,,,,,,,,,,,,,,,,,,,,,,
,,,,,,,,,,29,same,4,0.273779233,0.054755847,magenta,1,-0.054755847,0.273779233,cyan,1,0.16426754,-0.054755847,green,1,-0.16426754,-0.054755847,black,1,0.273779233,0.16426754,orange,0,-0.16426754,0.054755847,blue,0,0.05,0.05,0.15,0.16426754,-0.054755847,green,k,9870655,30,2020-09-04_10h17.03.623,CDT_GNG_IUS12,2020.1.2,Win32,60,,l,0,1.890325,0,76,76,28,1,,,,,,,,,,,,,,,,,,,,,,,,,,,,,,,,,,,,,,,,,,,,,,,,,
,,,,,,,,,,42,different,4,0.273779233,0.16426754,cyan,1,-0.054755847,0.16426754,magenta,1,0.16426754,-0.054755847,green,1,-0.16426754,-0.16426754,red,1,0.16426754,0.273779233,black,0,-0.054755847,0.273779233,yellow,0,0.05,0.05,0.15,0.273779233,0.16426754,blue,l,9870655,30,2020-09-04_10h17.03.623,CDT_GNG_IUS12,2020.1.2,Win32,60,,l,1,0.686305,0,77,77,41,1,,,,,,,,,,,,,,,,,,,,,,,,,,,,,,,,,,,,,,,,,,,,,,,,,
,,,,,,,,,,110,different,6,-0.273779233,0.273779233,black,1,0.273779233,-0.16426754,red,1,0.054755847,0.273779233,cyan,1,-0.273779233,-0.16426754,orange,1,-0.054755847,0.054755847,magenta,1,0.16426754,-0.054755847,yellow,1,0.05,0.05,0.15,0.273779233,-0.16426754,yellow,l,9870655,30,2020-09-04_10h17.03.623,CDT_GNG_IUS12,2020.1.2,Win32,60,,l,1,0.852655,0,78,78,109,1,,,,,,,,,,,,,,,,,,,,,,,,,,,,,,,,,,,,,,,,,,,,,,,,,
,,,,,,,,,,26,same,4,0.16426754,-0.16426754,green,1,-0.054755847,0.16426754,yellow,1,-0.273779233,-0.16426754,black,1,0.054755847,0.054755847,red,1,0.16426754,-0.054755847,cyan,0,-0.273779233,0.273779233,magenta,0,0.05,0.05,0.15,-0.054755847,0.16426754,yellow,k,9870655,30,2020-09-04_10h17.03.623,CDT_GNG_IUS12,2020.1.2,Win32,60,,k,1,0.967845,0,79,79,25,1,,,,,,,,,,,,,,,,,,,,,,,,,,,,,,,,,,,,,,,,,,,,,,,,,
,,,,,,,,,,78,same,6,0.054755847,0.054755847,black,1,-0.054755847,0.16426754,red,1,0.273779233,-0.273779233,blue,1,-0.054755847,-0.054755847,magenta,1,0.16426754,0.054755847,yellow,1,-0.273779233,0.16426754,cyan,1,0.05,0.05,0.15,-0.054755847,0.16426754,red,k,9870655,30,2020-09-04_10h17.03.623,CDT_GNG_IUS12,2020.1.2,Win32,60,,l,0,1.283265,0,80,80,77,1,,,,,,,,,,,,,,,,,,,,,,,,,,,,,,,,,,,,,,,,,,,,,,,,,
,,,,,,,,,,86,same,6,0.054755847,0.273779233,green,1,-0.054755847,0.273779233,red,1,0.16426754,-0.16426754,yellow,1,-0.054755847,-0.273779233,black,1,0.273779233,0.273779233,cyan,1,-0.273779233,0.054755847,orange,1,0.05,0.05,0.15,-0.273779233,0.054755847,orange,k,9870655,30,2020-09-04_10h17.03.623,CDT_GNG_IUS12,2020.1.2,Win32,60,,k,1,1.019595,0,81,81,85,1,,,,,,,,,,,,,,,,,,,,,,,,,,,,,,,,,,,,,,,,,,,,,,,,,
,,,,,,,,,,38,different,4,0.273779233,-0.16426754,red,1,-0.054755847,0.16426754,blue,1,-0.273779233,-0.054755847,green,1,0.273779233,0.054755847,cyan,1,0.16426754,-0.054755847,orange,0,-0.054755847,0.054755847,yellow,0,0.05,0.05,0.15,0.273779233,0.054755847,black,l,9870655,30,2020-09-04_10h17.03.623,CDT_GNG_IUS12,2020.1.2,Win32,60,,l,1,1.22394,0,82,82,37,1,,,,,,,,,,,,,,,,,,,,,,,,,,,,,,,,,,,,,,,,,,,,,,,,,
,,,,,,,,,,117,different,6,-0.054755847,0.054755847,black,1,0.054755847,0.273779233,magenta,1,-0.273779233,-0.273779233,yellow,1,0.054755847,-0.16426754,blue,1,-0.16426754,0.054755847,cyan,1,0.054755847,0.054755847,red,1,0.05,0.05,0.15,-0.16426754,0.054755847,black,l,9870655,30,2020-09-04_10h17.03.623,CDT_GNG_IUS12,2020.1.2,Win32,60,,k,0,1.93705,0,83,83,116,1,,,,,,,,,,,,,,,,,,,,,,,,,,,,,,,,,,,,,,,,,,,,,,,,,
,,,,,,,,,,1,same,4,-0.16426754,-0.273779233,orange,1,0.054755847,0.16426754,yellow,1,-0.16426754,0.16426754,green,1,0.054755847,-0.054755847,red,1,-0.273779233,-0.16426754,cyan,0,0.16426754,0.16426754,blue,0,0.05,0.05,0.15,0.054755847,0.16426754,yellow,k,9870655,30,2020-09-04_10h17.03.623,CDT_GNG_IUS12,2020.1.2,Win32,60,,l,0,1.87382,0,84,84,0,1,,,,,,,,,,,,,,,,,,,,,,,,,,,,,,,,,,,,,,,,,,,,,,,,,
,,,,,,,,,,63,same,6,-0.273779233,0.273779233,red,1,-0.273779233,-0.16426754,orange,1,0.054755847,-0.273779233,black,1,0.16426754,0.16426754,cyan,1,-0.054755847,0.054755847,blue,1,-0.273779233,-0.054755847,magenta,1,0.05,0.05,0.15,-0.273779233,-0.054755847,magenta,k,9870655,30,2020-09-04_10h17.03.623,CDT_GNG_IUS12,2020.1.2,Win32,60,,k,1,0.98755,0,85,85,62,1,,,,,,,,,,,,,,,,,,,,,,,,,,,,,,,,,,,,,,,,,,,,,,,,,
,,,,,,,,,,105,different,6,0.054755847,0.273779233,cyan,1,0.273779233,-0.16426754,magenta,1,-0.16426754,-0.054755847,yellow,1,-0.16426754,0.16426754,blue,1,0.273779233,0.16426754,orange,1,0.16426754,-0.273779233,green,1,0.05,0.05,0.15,0.16426754,-0.273779233,blue,l,9870655,30,2020-09-04_10h17.03.623,CDT_GNG_IUS12,2020.1.2,Win32,60,,l,1,1.23295,0,86,86,104,1,,,,,,,,,,,,,,,,,,,,,,,,,,,,,,,,,,,,,,,,,,,,,,,,,
,,,,,,,,,,53,different,4,-0.16426754,0.054755847,green,1,0.273779233,0.054755847,cyan,1,-0.273779233,-0.273779233,magenta,1,0.054755847,-0.16426754,black,1,-0.054755847,0.16426754,red,0,0.273779233,0.273779233,blue,0,0.05,0.05,0.15,-0.273779233,-0.273779233,black,l,9870655,30,2020-09-04_10h17.03.623,CDT_GNG_IUS12,2020.1.2,Win32,60,,l,1,0.801045,0,87,87,52,1,,,,,,,,,,,,,,,,,,,,,,,,,,,,,,,,,,,,,,,,,,,,,,,,,
,,,,,,,,,,3,same,4,-0.054755847,-0.054755847,yellow,1,-0.054755847,0.054755847,cyan,1,0.16426754,-0.273779233,black,1,0.273779233,0.273779233,magenta,1,-0.054755847,-0.273779233,orange,0,-0.273779233,0.054755847,green,0,0.05,0.05,0.15,0.273779233,0.273779233,magenta,k,9870655,30,2020-09-04_10h17.03.623,CDT_GNG_IUS12,2020.1.2,Win32,60,,k,1,1.065135,0,88,88,2,1,,,,,,,,,,,,,,,,,,,,,,,,,,,,,,,,,,,,,,,,,,,,,,,,,
,,,,,,,,,,103,different,6,-0.273779233,-0.16426754,black,1,0.273779233,-0.054755847,cyan,1,0.054755847,0.273779233,magenta,1,-0.054755847,0.16426754,orange,1,-0.16426754,-0.16426754,green,1,0.273779233,-0.16426754,red,1,0.05,0.05,0.15,-0.273779233,-0.16426754,blue,l,9870655,30,2020-09-04_10h17.03.623,CDT_GNG_IUS12,2020.1.2,Win32,60,,l,1,0.755365,0,89,89,102,1,,,,,,,,,,,,,,,,,,,,,,,,,,,,,,,,,,,,,,,,,,,,,,,,,
,,,,,,,,,,75,same,6,0.16426754,0.273779233,magenta,1,-0.273779233,-0.16426754,green,1,-0.273779233,0.16426754,yellow,1,0.054755847,-0.054755847,red,1,0.273779233,0.054755847,blue,1,-0.16426754,-0.054755847,cyan,1,0.05,0.05,0.15,0.054755847,-0.054755847,red,k,9870655,30,2020-09-04_10h17.03.623,CDT_GNG_IUS12,2020.1.2,Win32,60,,k,1,1.048445,0,90,90,74,1,,,,,,,,,,,,,,,,,,,,,,,,,,,,,,,,,,,,,,,,,,,,,,,,,
,,,,,,,,,,4,same,4,0.16426754,-0.16426754,black,1,-0.054755847,0.16426754,yellow,1,0.16426754,0.16426754,blue,1,-0.16426754,-0.16426754,green,1,0.054755847,-0.16426754,magenta,0,-0.054755847,0.273779233,orange,0,0.05,0.05,0.15,0.16426754,-0.16426754,black,k,9870655,30,2020-09-04_10h17.03.623,CDT_GNG_IUS12,2020.1.2,Win32,60,,k,1,1.339135,0,91,91,3,1,,,,,,,,,,,,,,,,,,,,,,,,,,,,,,,,,,,,,,,,,,,,,,,,,
,,,,,,,,,,81,same,6,-0.273779233,-0.273779233,green,1,-0.273779233,0.16426754,blue,1,0.054755847,-0.16426754,black,1,0.273779233,0.054755847,cyan,1,-0.16426754,-0.273779233,orange,1,-0.054755847,0.054755847,red,1,0.05,0.05,0.15,0.054755847,-0.16426754,black,k,9870655,30,2020-09-04_10h17.03.623,CDT_GNG_IUS12,2020.1.2,Win32,60,,k,1,0.819315,0,92,92,80,1,,,,,,,,,,,,,,,,,,,,,,,,,,,,,,,,,,,,,,,,,,,,,,,,,
,,,,,,,,,,97,different,6,-0.273779233,-0.273779233,orange,1,0.054755847,-0.273779233,blue,1,0.16426754,0.16426754,green,1,-0.16426754,0.054755847,cyan,1,-0.16426754,-0.16426754,black,1,0.273779233,-0.16426754,yellow,1,0.05,0.05,0.15,-0.16426754,0.054755847,yellow,l,9870655,30,2020-09-04_10h17.03.623,CDT_GNG_IUS12,2020.1.2,Win32,60,,l,1,0.900125,0,93,93,96,1,,,,,,,,,,,,,,,,,,,,,,,,,,,,,,,,,,,,,,,,,,,,,,,,,
,,,,,,,,,,95,different,6,-0.273779233,-0.16426754,magenta,1,0.16426754,0.273779233,green,1,-0.273779233,0.273779233,black,1,0.16426754,-0.273779233,orange,1,-0.054755847,-0.16426754,blue,1,0.16426754,0.054755847,cyan,1,0.05,0.05,0.15,0.16426754,0.273779233,black,l,9870655,30,2020-09-04_10h17.03.623,CDT_GNG_IUS12,2020.1.2,Win32,60,,l,1,1.188265,0,94,94,94,1,,,,,,,,,,,,,,,,,,,,,,,,,,,,,,,,,,,,,,,,,,,,,,,,,
,,,,,,,,,,43,different,4,-0.16426754,-0.054755847,red,1,0.273779233,0.054755847,cyan,1,-0.16426754,0.054755847,orange,1,0.054755847,-0.054755847,blue,1,-0.054755847,-0.273779233,magenta,0,0.273779233,0.273779233,yellow,0,0.05,0.05,0.15,-0.16426754,-0.054755847,yellow,l,9870655,30,2020-09-04_10h17.03.623,CDT_GNG_IUS12,2020.1.2,Win32,60,,l,1,0.80323,0,95,95,42,1,,,,,,,,,,,,,,,,,,,,,,,,,,,,,,,,,,,,,,,,,,,,,,,,,
,,,,,,,,,,11,same,4,0.273779233,0.16426754,black,1,-0.054755847,0.273779233,cyan,1,0.16426754,-0.054755847,blue,1,-0.273779233,-0.16426754,orange,1,0.054755847,0.273779233,magenta,0,-0.273779233,0.054755847,green,0,0.05,0.05,0.15,0.273779233,0.16426754,black,k,9870655,30,2020-09-04_10h17.03.623,CDT_GNG_IUS12,2020.1.2,Win32,60,,k,1,0.655375,0,96,96,10,1,,,,,,,,,,,,,,,,,,,,,,,,,,,,,,,,,,,,,,,,,,,,,,,,,
,,,,,,,,,,14,same,4,0.16426754,0.16426754,magenta,1,-0.16426754,0.16426754,blue,1,0.16426754,-0.16426754,green,1,-0.16426754,-0.16426754,red,1,0.16426754,0.273779233,cyan,0,-0.16426754,0.273779233,orange,0,0.05,0.05,0.15,-0.16426754,0.16426754,blue,k,9870655,30,2020-09-04_10h17.03.623,CDT_GNG_IUS12,2020.1.2,Win32,60,,k,1,1.067725,0,97,97,13,1,,,,,,,,,,,,,,,,,,,,,,,,,,,,,,,,,,,,,,,,,,,,,,,,,
,,,,,,,,,,24,same,4,0.054755847,-0.16426754,red,1,0.054755847,0.054755847,yellow,1,-0.273779233,0.16426754,orange,1,-0.273779233,-0.16426754,magenta,1,0.273779233,-0.16426754,black,0,0.273779233,0.273779233,green,0,0.05,0.05,0.15,0.054755847,-0.16426754,red,k,9870655,30,2020-09-04_10h17.03.623,CDT_GNG_IUS12,2020.1.2,Win32,60,,l,0,0.850795,0,98,98,23,1,,,,,,,,,,,,,,,,,,,,,,,,,,,,,,,,,,,,,,,,,,,,,,,,,
,,,,,,,,,,33,different,4,-0.273779233,0.273779233,yellow,1,0.16426754,-0.16426754,cyan,1,-0.273779233,-0.273779233,black,1,0.054755847,0.273779233,blue,1,-0.16426754,0.273779233,green,0,0.054755847,-0.273779233,orange,0,0.05,0.05,0.15,-0.273779233,-0.273779233,cyan,l,9870655,30,2020-09-04_10h17.03.623,CDT_GNG_IUS12,2020.1.2,Win32,60,,l,1,0.91422,0,99,99,32,1,,,,,,,,,,,,,,,,,,,,,,,,,,,,,,,,,,,,,,,,,,,,,,,,,
,,,,,,,,,,107,different,6,0.273779233,0.16426754,cyan,1,-0.16426754,-0.273779233,magenta,1,-0.054755847,0.054755847,black,1,0.16426754,-0.054755847,blue,1,0.16426754,0.054755847,green,1,-0.273779233,-0.16426754,yellow,1,0.05,0.05,0.15,0.16426754,0.054755847,blue,l,9870655,30,2020-09-04_10h17.03.623,CDT_GNG_IUS12,2020.1.2,Win32,60,,k,0,1.037295,0,100,100,106,1,,,,,,,,,,,,,,,,,,,,,,,,,,,,,,,,,,,,,,,,,,,,,,,,,
,,,,,,,,,,25,same,4,0.16426754,-0.273779233,green,1,-0.16426754,-0.273779233,black,1,0.16426754,0.054755847,cyan,1,-0.273779233,0.273779233,blue,1,0.054755847,-0.273779233,yellow,0,-0.273779233,-0.273779233,red,0,0.05,0.05,0.15,-0.273779233,0.273779233,blue,k,9870655,30,2020-09-04_10h17.03.623,CDT_GNG_IUS12,2020.1.2,Win32,60,,k,1,0.712155,0,101,101,24,1,,,,,,,,,,,,,,,,,,,,,,,,,,,,,,,,,,,,,,,,,,,,,,,,,
,,,,,,,,,,70,same,6,0.16426754,0.16426754,cyan,1,0.273779233,-0.273779233,red,1,-0.16426754,0.16426754,yellow,1,-0.273779233,-0.273779233,green,1,0.16426754,0.054755847,magenta,1,0.16426754,-0.054755847,blue,1,0.05,0.05,0.15,0.273779233,-0.273779233,red,k,9870655,30,2020-09-04_10h17.03.623,CDT_GNG_IUS12,2020.1.2,Win32,60,,l,0,0.80719,0,102,102,69,1,,,,,,,,,,,,,,,,,,,,,,,,,,,,,,,,,,,,,,,,,,,,,,,,,
,,,,,,,,,,56,different,4,0.16426754,0.054755847,red,1,-0.054755847,0.16426754,orange,1,0.16426754,-0.16426754,black,1,-0.273779233,-0.054755847,yellow,1,0.16426754,0.273779233,blue,0,-0.054755847,0.273779233,magenta,0,0.05,0.05,0.15,-0.273779233,-0.054755847,green,l,9870655,30,2020-09-04_10h17.03.623,CDT_GNG_IUS12,2020.1.2,Win32,60,,l,1,1.090435,0,103,103,55,1,,,,,,,,,,,,,,,,,,,,,,,,,,,,,,,,,,,,,,,,,,,,,,,,,
,,,,,,,,,,32,different,4,-0.054755847,-0.273779233,green,1,-0.273779233,0.16426754,black,1,0.16426754,0.16426754,cyan,1,0.273779233,-0.16426754,yellow,1,-0.054755847,-0.054755847,blue,0,-0.054755847,0.273779233,orange,0,0.05,0.05,0.15,-0.054755847,-0.273779233,red,l,9870655,30,2020-09-04_10h17.03.623,CDT_GNG_IUS12,2020.1.2,Win32,60,,l,1,0.71698,0,104,104,31,1,,,,,,,,,,,,,,,,,,,,,,,,,,,,,,,,,,,,,,,,,,,,,,,,,
,,,,,,,,,,51,different,4,-0.16426754,-0.273779233,yellow,1,0.16426754,-0.273779233,cyan,1,0.273779233,0.054755847,blue,1,-0.054755847,0.273779233,green,1,-0.16426754,-0.054755847,black,0,0.273779233,-0.273779233,red,0,0.05,0.05,0.15,0.16426754,-0.273779233,red,l,9870655,30,2020-09-04_10h17.03.623,CDT_GNG_IUS12,2020.1.2,Win32,60,,l,1,1.363875,0,105,105,50,1,,,,,,,,,,,,,,,,,,,,,,,,,,,,,,,,,,,,,,,,,,,,,,,,,
,,,,,,,,,,112,different,6,-0.273779233,-0.16426754,magenta,1,-0.054755847,0.054755847,orange,1,0.054755847,0.273779233,cyan,1,0.16426754,-0.273779233,yellow,1,-0.273779233,-0.273779233,black,1,-0.16426754,0.054755847,red,1,0.05,0.05,0.15,-0.16426754,0.054755847,orange,l,9870655,30,2020-09-04_10h17.03.623,CDT_GNG_IUS12,2020.1.2,Win32,60,,k,0,1.42164,0,106,106,111,1,,,,,,,,,,,,,,,,,,,,,,,,,,,,,,,,,,,,,,,,,,,,,,,,,
,,,,,,,,,,82,same,6,-0.054755847,-0.16426754,red,1,0.273779233,-0.054755847,cyan,1,0.16426754,0.273779233,blue,1,-0.054755847,0.054755847,black,1,-0.16426754,-0.16426754,yellow,1,0.273779233,-0.16426754,green,1,0.05,0.05,0.15,-0.16426754,-0.16426754,yellow,k,9870655,30,2020-09-04_10h17.03.623,CDT_GNG_IUS12,2020.1.2,Win32,60,,l,0,0.88647,0,107,107,81,1,,,,,,,,,,,,,,,,,,,,,,,,,,,,,,,,,,,,,,,,,,,,,,,,,
,,,,,,,,,,9,same,4,-0.16426754,0.054755847,cyan,1,0.16426754,-0.16426754,magenta,1,-0.273779233,-0.054755847,black,1,0.054755847,0.054755847,green,1,-0.273779233,0.16426754,orange,0,0.273779233,-0.273779233,red,0,0.05,0.05,0.15,-0.273779233,-0.054755847,black,k,9870655,30,2020-09-04_10h17.03.623,CDT_GNG_IUS12,2020.1.2,Win32,60,,l,0,1.26999,0,108,108,8,1,,,,,,,,,,,,,,,,,,,,,,,,,,,,,,,,,,,,,,,,,,,,,,,,,
,,,,,,,,,,6,same,4,0.273779233,0.273779233,blue,1,-0.273779233,-0.16426754,magenta,1,-0.054755847,0.054755847,green,1,0.054755847,-0.054755847,black,1,0.054755847,0.054755847,orange,0,-0.054755847,-0.054755847,red,0,0.05,0.05,0.15,-0.054755847,0.054755847,green,k,9870655,30,2020-09-04_10h17.03.623,CDT_GNG_IUS12,2020.1.2,Win32,60,,k,1,0.801095,0,109,109,5,1,,,,,,,,,,,,,,,,,,,,,,,,,,,,,,,,,,,,,,,,,,,,,,,,,
,,,,,,,,,,119,different,6,-0.273779233,0.054755847,cyan,1,-0.273779233,-0.273779233,blue,1,0.16426754,0.054755847,orange,1,0.054755847,-0.16426754,yellow,1,-0.273779233,0.273779233,black,1,-0.054755847,-0.054755847,green,1,0.05,0.05,0.15,-0.273779233,-0.273779233,cyan,l,9870655,30,2020-09-04_10h17.03.623,CDT_GNG_IUS12,2020.1.2,Win32,60,,l,1,1.00806,0,110,110,118,1,,,,,,,,,,,,,,,,,,,,,,,,,,,,,,,,,,,,,,,,,,,,,,,,,
,,,,,,,,,,79,same,6,0.054755847,-0.16426754,black,1,-0.054755847,-0.273779233,yellow,1,-0.273779233,0.273779233,red,1,0.054755847,0.054755847,magenta,1,0.16426754,-0.054755847,cyan,1,-0.16426754,-0.054755847,orange,1,0.05,0.05,0.15,0.054755847,0.054755847,magenta,k,9870655,30,2020-09-04_10h17.03.623,CDT_GNG_IUS12,2020.1.2,Win32,60,,k,1,1.003755,0,111,111,78,1,,,,,,,,,,,,,,,,,,,,,,,,,,,,,,,,,,,,,,,,,,,,,,,,,
,,,,,,,,,,46,different,4,-0.16426754,0.273779233,yellow,1,-0.16426754,-0.16426754,green,1,0.16426754,0.054755847,black,1,0.273779233,-0.054755847,red,1,-0.16426754,0.16426754,blue,0,-0.273779233,-0.054755847,cyan,0,0.05,0.05,0.15,0.16426754,0.054755847,cyan,l,9870655,30,2020-09-04_10h17.03.623,CDT_GNG_IUS12,2020.1.2,Win32,60,,l,1,0.904175,0,112,112,45,1,,,,,,,,,,,,,,,,,,,,,,,,,,,,,,,,,,,,,,,,,,,,,,,,,
,,,,,,,,,,20,same,4,0.273779233,0.054755847,magenta,1,0.054755847,-0.273779233,black,1,-0.054755847,0.16426754,blue,1,-0.273779233,-0.054755847,orange,1,0.054755847,0.054755847,red,0,0.054755847,-0.054755847,cyan,0,0.05,0.05,0.15,-0.054755847,0.16426754,blue,k,9870655,30,2020-09-04_10h17.03.623,CDT_GNG_IUS12,2020.1.2,Win32,60,,k,1,0.83335,0,113,113,19,1,,,,,,,,,,,,,,,,,,,,,,,,,,,,,,,,,,,,,,,,,,,,,,,,,
,,,,,,,,,,8,same,4,0.16426754,-0.16426754,blue,1,-0.16426754,-0.054755847,red,1,-0.273779233,0.16426754,green,1,0.054755847,0.054755847,cyan,1,0.16426754,-0.273779233,magenta,0,-0.054755847,-0.054755847,orange,0,0.05,0.05,0.15,-0.273779233,0.16426754,green,k,9870655,30,2020-09-04_10h17.03.623,CDT_GNG_IUS12,2020.1.2,Win32,60,,k,1,0.768265,0,114,114,7,1,,,,,,,,,,,,,,,,,,,,,,,,,,,,,,,,,,,,,,,,,,,,,,,,,
,,,,,,,,,,55,different,4,0.273779233,0.054755847,yellow,1,0.054755847,-0.16426754,green,1,-0.273779233,-0.16426754,orange,1,-0.273779233,0.273779233,blue,1,0.273779233,0.273779233,red,0,0.273779233,-0.16426754,cyan,0,0.05,0.05,0.15,0.054755847,-0.16426754,red,l,9870655,30,2020-09-04_10h17.03.623,CDT_GNG_IUS12,2020.1.2,Win32,60,,l,1,0.64835,0,115,115,54,1,,,,,,,,,,,,,,,,,,,,,,,,,,,,,,,,,,,,,,,,,,,,,,,,,
,,,,,,,,,,113,different,6,-0.273779233,0.054755847,black,1,-0.16426754,-0.16426754,blue,1,0.054755847,-0.16426754,orange,1,0.16426754,0.16426754,red,1,-0.273779233,0.273779233,green,1,-0.273779233,-0.16426754,magenta,1,0.05,0.05,0.15,-0.273779233,-0.16426754,black,l,9870655,30,2020-09-04_10h17.03.623,CDT_GNG_IUS12,2020.1.2,Win32,60,,l,1,0.75396,0,116,116,112,1,,,,,,,,,,,,,,,,,,,,,,,,,,,,,,,,,,,,,,,,,,,,,,,,,
,,,,,,,,,,19,same,4,-0.054755847,-0.16426754,orange,1,-0.273779233,0.273779233,red,1,0.273779233,0.054755847,yellow,1,0.273779233,-0.16426754,magenta,1,-0.273779233,-0.054755847,black,0,-0.054755847,0.273779233,blue,0,0.05,0.05,0.15,0.273779233,-0.16426754,magenta,k,9870655,30,2020-09-04_10h17.03.623,CDT_GNG_IUS12,2020.1.2,Win32,60,,k,1,0.936045,0,117,117,18,1,,,,,,,,,,,,,,,,,,,,,,,,,,,,,,,,,,,,,,,,,,,,,,,,,
,,,,,,,,,,17,same,4,0.16426754,0.273779233,yellow,1,-0.054755847,0.16426754,orange,1,0.273779233,-0.054755847,cyan,1,-0.273779233,-0.054755847,green,1,0.16426754,0.16426754,blue,0,-0.054755847,0.273779233,magenta,0,0.05,0.05,0.15,0.16426754,0.273779233,yellow,k,9870655,30,2020-09-04_10h17.03.623,CDT_GNG_IUS12,2020.1.2,Win32,60,,l,0,1.12223,0,118,118,16,1,,,,,,,,,,,,,,,,,,,,,,,,,,,,,,,,,,,,,,,,,,,,,,,,,
,,,,,,,,,,77,same,6,0.273779233,0.273779233,black,1,-0.273779233,-0.16426754,red,1,0.16426754,-0.054755847,magenta,1,-0.054755847,0.16426754,cyan,1,0.16426754,0.273779233,orange,1,-0.16426754,-0.273779233,blue,1,0.05,0.05,0.15,-0.273779233,-0.16426754,red,k,9870655,30,2020-09-04_10h17.03.623,CDT_GNG_IUS12,2020.1.2,Win32,60,,l,0,1.086575,0,119,119,76,1,,,,,,,,,,,,,,,,,,,,,,,,,,,,,,,,,,,,,,,,,,,,,,,,,
,,,,,,,,,,,,,,,,,,,,,,,,,,,,,,,,,,,,,,,,,,,space,9870655,30,2020-09-04_10h17.03.623,CDT_GNG_IUS12,2020.1.2,Win32,60,,,,,,,,,,,space,1,0.743975,0,0,0,6,1,0,1,,,,,,,,,,,,,,,,,,,,,,,,,,,,,,,,,,,,,,
,,,,,,,,,,,,,,,,,,,,,,,,,,,,,,,,,,,,,,,,,,,,9870655,30,2020-09-04_10h17.03.623,CDT_GNG_IUS12,2020.1.2,Win32,60,,,,,,,,,,,space,0,0.798325,0,1,1,2,1,1,0,,,,,,,,,,,,,,,,,,,,,,,,,,,,,,,,,,,,,,
,,,,,,,,,,,,,,,,,,,,,,,,,,,,,,,,,,,,,,,,,,,space,9870655,30,2020-09-04_10h17.03.623,CDT_GNG_IUS12,2020.1.2,Win32,60,,,,,,,,,,,space,1,0.5453,0,2,2,7,1,0,1,,,,,,,,,,,,,,,,,,,,,,,,,,,,,,,,,,,,,,
,,,,,,,,,,,,,,,,,,,,,,,,,,,,,,,,,,,,,,,,,,,,9870655,30,2020-09-04_10h17.03.623,CDT_GNG_IUS12,2020.1.2,Win32,60,,,,,,,,,,,,1,,0,3,3,1,1,1,0,,,,,,,,,,,,,,,,,,,,,,,,,,,,,,,,,,,,,,
,,,,,,,,,,,,,,,,,,,,,,,,,,,,,,,,,,,,,,,,,,,,9870655,30,2020-09-04_10h17.03.623,CDT_GNG_IUS12,2020.1.2,Win32,60,,,,,,,,,,,,1,,0,4,4,3,1,1,0,,,,,,,,,,,,,,,,,,,,,,,,,,,,,,,,,,,,,,
,,,,,,,,,,,,,,,,,,,,,,,,,,,,,,,,,,,,,,,,,,,space,9870655,30,2020-09-04_10h17.03.623,CDT_GNG_IUS12,2020.1.2,Win32,60,,,,,,,,,,,space,1,0.648275,0,5,5,5,1,0,1,,,,,,,,,,,,,,,,,,,,,,,,,,,,,,,,,,,,,,
,,,,,,,,,,,,,,,,,,,,,,,,,,,,,,,,,,,,,,,,,,,,9870655,30,2020-09-04_10h17.03.623,CDT_GNG_IUS12,2020.1.2,Win32,60,,,,,,,,,,,,1,,0,6,6,0,1,1,0,,,,,,,,,,,,,,,,,,,,,,,,,,,,,,,,,,,,,,
,,,,,,,,,,,,,,,,,,,,,,,,,,,,,,,,,,,,,,,,,,,space,9870655,30,2020-09-04_10h17.03.623,CDT_GNG_IUS12,2020.1.2,Win32,60,,,,,,,,,,,space,1,0.35096,0,7,7,4,1,0,1,,,,,,,,,,,,,,,,,,,,,,,,,,,,,,,,,,,,,,
,,,,,,,,,,,,,,,,,,,,,,,,,,,,,,,,,,,,,,,,,,,space,9870655,30,2020-09-04_10h17.03.623,CDT_GNG_IUS12,2020.1.2,Win32,60,,,,,,,,,,,,,,,,,,,0,1,space,1,0.38245,0,0,0,35,1,,,,,,,,,,,,,,,,,,,,,,,,,,,,,,
,,,,,,,,,,,,,,,,,,,,,,,,,,,,,,,,,,,,,,,,,,,space,9870655,30,2020-09-04_10h17.03.623,CDT_GNG_IUS12,2020.1.2,Win32,60,,,,,,,,,,,,,,,,,,,0,1,space,1,0.413235,0,1,1,31,1,,,,,,,,,,,,,,,,,,,,,,,,,,,,,,
,,,,,,,,,,,,,,,,,,,,,,,,,,,,,,,,,,,,,,,,,,,space,9870655,30,2020-09-04_10h17.03.623,CDT_GNG_IUS12,2020.1.2,Win32,60,,,,,,,,,,,,,,,,,,,0,1,space,1,0.33276,0,2,2,18,1,,,,,,,,,,,,,,,,,,,,,,,,,,,,,,
,,,,,,,,,,,,,,,,,,,,,,,,,,,,,,,,,,,,,,,,,,,space,9870655,30,2020-09-04_10h17.03.623,CDT_GNG_IUS12,2020.1.2,Win32,60,,,,,,,,,,,,,,,,,,,0,1,space,1,0.302185,0,3,3,36,1,,,,,,,,,,,,,,,,,,,,,,,,,,,,,,
,,,,,,,,,,,,,,,,,,,,,,,,,,,,,,,,,,,,,,,,,,,space,9870655,30,2020-09-04_10h17.03.623,CDT_GNG_IUS12,2020.1.2,Win32,60,,,,,,,,,,,,,,,,,,,0,1,space,1,0.27964,0,4,4,27,1,,,,,,,,,,,,,,,,,,,,,,,,,,,,,,
,,,,,,,,,,,,,,,,,,,,,,,,,,,,,,,,,,,,,,,,,,,,9870655,30,2020-09-04_10h17.03.623,CDT_GNG_IUS12,2020.1.2,Win32,60,,,,,,,,,,,,,,,,,,,1,0,space,0,0.305295,0,5,5,7,1,,,,,,,,,,,,,,,,,,,,,,,,,,,,,,
,,,,,,,,,,,,,,,,,,,,,,,,,,,,,,,,,,,,,,,,,,,,9870655,30,2020-09-04_10h17.03.623,CDT_GNG_IUS12,2020.1.2,Win32,60,,,,,,,,,,,,,,,,,,,1,0,,1,,0,6,6,4,1,,,,,,,,,,,,,,,,,,,,,,,,,,,,,,
,,,,,,,,,,,,,,,,,,,,,,,,,,,,,,,,,,,,,,,,,,,space,9870655,30,2020-09-04_10h17.03.623,CDT_GNG_IUS12,2020.1.2,Win32,60,,,,,,,,,,,,,,,,,,,0,1,space,1,0.49726,0,7,7,14,1,,,,,,,,,,,,,,,,,,,,,,,,,,,,,,
,,,,,,,,,,,,,,,,,,,,,,,,,,,,,,,,,,,,,,,,,,,space,9870655,30,2020-09-04_10h17.03.623,CDT_GNG_IUS12,2020.1.2,Win32,60,,,,,,,,,,,,,,,,,,,0,1,space,1,0.545475,0,8,8,15,1,,,,,,,,,,,,,,,,,,,,,,,,,,,,,,
,,,,,,,,,,,,,,,,,,,,,,,,,,,,,,,,,,,,,,,,,,,space,9870655,30,2020-09-04_10h17.03.623,CDT_GNG_IUS12,2020.1.2,Win32,60,,,,,,,,,,,,,,,,,,,0,1,,0,,0,9,9,33,1,,,,,,,,,,,,,,,,,,,,,,,,,,,,,,
,,,,,,,,,,,,,,,,,,,,,,,,,,,,,,,,,,,,,,,,,,,space,9870655,30,2020-09-04_10h17.03.623,CDT_GNG_IUS12,2020.1.2,Win32,60,,,,,,,,,,,,,,,,,,,0,1,space,1,0.02198,0,10,10,42,1,,,,,,,,,,,,,,,,,,,,,,,,,,,,,,
,,,,,,,,,,,,,,,,,,,,,,,,,,,,,,,,,,,,,,,,,,,space,9870655,30,2020-09-04_10h17.03.623,CDT_GNG_IUS12,2020.1.2,Win32,60,,,,,,,,,,,,,,,,,,,0,1,space,1,0.08788,0,11,11,10,1,,,,,,,,,,,,,,,,,,,,,,,,,,,,,,
,,,,,,,,,,,,,,,,,,,,,,,,,,,,,,,,,,,,,,,,,,,space,9870655,30,2020-09-04_10h17.03.623,CDT_GNG_IUS12,2020.1.2,Win32,60,,,,,,,,,,,,,,,,,,,0,1,space,1,0.27022,0,12,12,22,1,,,,,,,,,,,,,,,,,,,,,,,,,,,,,,
,,,,,,,,,,,,,,,,,,,,,,,,,,,,,,,,,,,,,,,,,,,,9870655,30,2020-09-04_10h17.03.623,CDT_GNG_IUS12,2020.1.2,Win32,60,,,,,,,,,,,,,,,,,,,1,0,,1,,0,13,13,6,1,,,,,,,,,,,,,,,,,,,,,,,,,,,,,,
,,,,,,,,,,,,,,,,,,,,,,,,,,,,,,,,,,,,,,,,,,,space,9870655,30,2020-09-04_10h17.03.623,CDT_GNG_IUS12,2020.1.2,Win32,60,,,,,,,,,,,,,,,,,,,0,1,space,1,0.31786,0,14,14,25,1,,,,,,,,,,,,,,,,,,,,,,,,,,,,,,
,,,,,,,,,,,,,,,,,,,,,,,,,,,,,,,,,,,,,,,,,,,space,9870655,30,2020-09-04_10h17.03.623,CDT_GNG_IUS12,2020.1.2,Win32,60,,,,,,,,,,,,,,,,,,,0,1,space,1,0.383825,0,15,15,24,1,,,,,,,,,,,,,,,,,,,,,,,,,,,,,,
,,,,,,,,,,,,,,,,,,,,,,,,,,,,,,,,,,,,,,,,,,,space,9870655,30,2020-09-04_10h17.03.623,CDT_GNG_IUS12,2020.1.2,Win32,60,,,,,,,,,,,,,,,,,,,0,1,space,1,0.333085,0,16,16,48,1,,,,,,,,,,,,,,,,,,,,,,,,,,,,,,
,,,,,,,,,,,,,,,,,,,,,,,,,,,,,,,,,,,,,,,,,,,space,9870655,30,2020-09-04_10h17.03.623,CDT_GNG_IUS12,2020.1.2,Win32,60,,,,,,,,,,,,,,,,,,,0,1,space,1,0.43006,0,17,17,32,1,,,,,,,,,,,,,,,,,,,,,,,,,,,,,,
,,,,,,,,,,,,,,,,,,,,,,,,,,,,,,,,,,,,,,,,,,,space,9870655,30,2020-09-04_10h17.03.623,CDT_GNG_IUS12,2020.1.2,Win32,60,,,,,,,,,,,,,,,,,,,0,1,space,1,0.44132,0,18,18,19,1,,,,,,,,,,,,,,,,,,,,,,,,,,,,,,
,,,,,,,,,,,,,,,,,,,,,,,,,,,,,,,,,,,,,,,,,,,space,9870655,30,2020-09-04_10h17.03.623,CDT_GNG_IUS12,2020.1.2,Win32,60,,,,,,,,,,,,,,,,,,,0,1,space,1,0.577305,0,19,19,17,1,,,,,,,,,,,,,,,,,,,,,,,,,,,,,,
,,,,,,,,,,,,,,,,,,,,,,,,,,,,,,,,,,,,,,,,,,,,9870655,30,2020-09-04_10h17.03.623,CDT_GNG_IUS12,2020.1.2,Win32,60,,,,,,,,,,,,,,,,,,,1,0,,1,,0,20,20,2,1,,,,,,,,,,,,,,,,,,,,,,,,,,,,,,
,,,,,,,,,,,,,,,,,,,,,,,,,,,,,,,,,,,,,,,,,,,space,9870655,30,2020-09-04_10h17.03.623,CDT_GNG_IUS12,2020.1.2,Win32,60,,,,,,,,,,,,,,,,,,,0,1,,0,,0,21,21,40,1,,,,,,,,,,,,,,,,,,,,,,,,,,,,,,
,,,,,,,,,,,,,,,,,,,,,,,,,,,,,,,,,,,,,,,,,,,space,9870655,30,2020-09-04_10h17.03.623,CDT_GNG_IUS12,2020.1.2,Win32,60,,,,,,,,,,,,,,,,,,,0,1,,0,,0,22,22,49,1,,,,,,,,,,,,,,,,,,,,,,,,,,,,,,
,,,,,,,,,,,,,,,,,,,,,,,,,,,,,,,,,,,,,,,,,,,space,9870655,30,2020-09-04_10h17.03.623,CDT_GNG_IUS12,2020.1.2,Win32,60,,,,,,,,,,,,,,,,,,,0,1,space,1,0.033175,0,23,23,29,1,,,,,,,,,,,,,,,,,,,,,,,,,,,,,,
,,,,,,,,,,,,,,,,,,,,,,,,,,,,,,,,,,,,,,,,,,,space,9870655,30,2020-09-04_10h17.03.623,CDT_GNG_IUS12,2020.1.2,Win32,60,,,,,,,,,,,,,,,,,,,0,1,space,1,0.04104,0,24,24,11,1,,,,,,,,,,,,,,,,,,,,,,,,,,,,,,
,,,,,,,,,,,,,,,,,,,,,,,,,,,,,,,,,,,,,,,,,,,space,9870655,30,2020-09-04_10h17.03.623,CDT_GNG_IUS12,2020.1.2,Win32,60,,,,,,,,,,,,,,,,,,,0,1,space,1,0.017655,0,25,25,30,1,,,,,,,,,,,,,,,,,,,,,,,,,,,,,,
,,,,,,,,,,,,,,,,,,,,,,,,,,,,,,,,,,,,,,,,,,,space,9870655,30,2020-09-04_10h17.03.623,CDT_GNG_IUS12,2020.1.2,Win32,60,,,,,,,,,,,,,,,,,,,0,1,space,1,0.03817,0,26,26,44,1,,,,,,,,,,,,,,,,,,,,,,,,,,,,,,
,,,,,,,,,,,,,,,,,,,,,,,,,,,,,,,,,,,,,,,,,,,space,9870655,30,2020-09-04_10h17.03.623,CDT_GNG_IUS12,2020.1.2,Win32,60,,,,,,,,,,,,,,,,,,,0,1,space,1,0.014975,0,27,27,39,1,,,,,,,,,,,,,,,,,,,,,,,,,,,,,,
,,,,,,,,,,,,,,,,,,,,,,,,,,,,,,,,,,,,,,,,,,,space,9870655,30,2020-09-04_10h17.03.623,CDT_GNG_IUS12,2020.1.2,Win32,60,,,,,,,,,,,,,,,,,,,0,1,space,1,0.0413,0,28,28,23,1,,,,,,,,,,,,,,,,,,,,,,,,,,,,,,
,,,,,,,,,,,,,,,,,,,,,,,,,,,,,,,,,,,,,,,,,,,space,9870655,30,2020-09-04_10h17.03.623,CDT_GNG_IUS12,2020.1.2,Win32,60,,,,,,,,,,,,,,,,,,,0,1,space,1,0.23795,0,29,29,13,1,,,,,,,,,,,,,,,,,,,,,,,,,,,,,,
,,,,,,,,,,,,,,,,,,,,,,,,,,,,,,,,,,,,,,,,,,,,9870655,30,2020-09-04_10h17.03.623,CDT_GNG_IUS12,2020.1.2,Win32,60,,,,,,,,,,,,,,,,,,,1,0,space,0,0.26565,0,30,30,5,1,,,,,,,,,,,,,,,,,,,,,,,,,,,,,,
,,,,,,,,,,,,,,,,,,,,,,,,,,,,,,,,,,,,,,,,,,,,9870655,30,2020-09-04_10h17.03.623,CDT_GNG_IUS12,2020.1.2,Win32,60,,,,,,,,,,,,,,,,,,,1,0,,1,,0,31,31,0,1,,,,,,,,,,,,,,,,,,,,,,,,,,,,,,
,,,,,,,,,,,,,,,,,,,,,,,,,,,,,,,,,,,,,,,,,,,space,9870655,30,2020-09-04_10h17.03.623,CDT_GNG_IUS12,2020.1.2,Win32,60,,,,,,,,,,,,,,,,,,,0,1,space,1,0.406695,0,32,32,45,1,,,,,,,,,,,,,,,,,,,,,,,,,,,,,,
,,,,,,,,,,,,,,,,,,,,,,,,,,,,,,,,,,,,,,,,,,,space,9870655,30,2020-09-04_10h17.03.623,CDT_GNG_IUS12,2020.1.2,Win32,60,,,,,,,,,,,,,,,,,,,0,1,space,1,0.44948,0,33,33,37,1,,,,,,,,,,,,,,,,,,,,,,,,,,,,,,
,,,,,,,,,,,,,,,,,,,,,,,,,,,,,,,,,,,,,,,,,,,,9870655,30,2020-09-04_10h17.03.623,CDT_GNG_IUS12,2020.1.2,Win32,60,,,,,,,,,,,,,,,,,,,1,0,,1,,0,34,34,9,1,,,,,,,,,,,,,,,,,,,,,,,,,,,,,,
,,,,,,,,,,,,,,,,,,,,,,,,,,,,,,,,,,,,,,,,,,,space,9870655,30,2020-09-04_10h17.03.623,CDT_GNG_IUS12,2020.1.2,Win32,60,,,,,,,,,,,,,,,,,,,0,1,space,1,0.00065,0,35,35,21,1,,,,,,,,,,,,,,,,,,,,,,,,,,,,,,
,,,,,,,,,,,,,,,,,,,,,,,,,,,,,,,,,,,,,,,,,,,space,9870655,30,2020-09-04_10h17.03.623,CDT_GNG_IUS12,2020.1.2,Win32,60,,,,,,,,,,,,,,,,,,,0,1,space,1,0.10503,0,36,36,26,1,,,,,,,,,,,,,,,,,,,,,,,,,,,,,,
,,,,,,,,,,,,,,,,,,,,,,,,,,,,,,,,,,,,,,,,,,,space,9870655,30,2020-09-04_10h17.03.623,CDT_GNG_IUS12,2020.1.2,Win32,60,,,,,,,,,,,,,,,,,,,0,1,space,1,0.047545,0,37,37,43,1,,,,,,,,,,,,,,,,,,,,,,,,,,,,,,
,,,,,,,,,,,,,,,,,,,,,,,,,,,,,,,,,,,,,,,,,,,space,9870655,30,2020-09-04_10h17.03.623,CDT_GNG_IUS12,2020.1.2,Win32,60,,,,,,,,,,,,,,,,,,,0,1,space,1,0.05041,0,38,38,28,1,,,,,,,,,,,,,,,,,,,,,,,,,,,,,,
,,,,,,,,,,,,,,,,,,,,,,,,,,,,,,,,,,,,,,,,,,,space,9870655,30,2020-09-04_10h17.03.623,CDT_GNG_IUS12,2020.1.2,Win32,60,,,,,,,,,,,,,,,,,,,0,1,space,1,0.14727,0,39,39,46,1,,,,,,,,,,,,,,,,,,,,,,,,,,,,,,
,,,,,,,,,,,,,,,,,,,,,,,,,,,,,,,,,,,,,,,,,,,,9870655,30,2020-09-04_10h17.03.623,CDT_GNG_IUS12,2020.1.2,Win32,60,,,,,,,,,,,,,,,,,,,1,0,space,0,0.073045,0,40,40,1,1,,,,,,,,,,,,,,,,,,,,,,,,,,,,,,
,,,,,,,,,,,,,,,,,,,,,,,,,,,,,,,,,,,,,,,,,,,space,9870655,30,2020-09-04_10h17.03.623,CDT_GNG_IUS12,2020.1.2,Win32,60,,,,,,,,,,,,,,,,,,,0,1,,0,,0,41,41,38,1,,,,,,,,,,,,,,,,,,,,,,,,,,,,,,
,,,,,,,,,,,,,,,,,,,,,,,,,,,,,,,,,,,,,,,,,,,,9870655,30,2020-09-04_10h17.03.623,CDT_GNG_IUS12,2020.1.2,Win32,60,,,,,,,,,,,,,,,,,,,1,0,,1,,0,42,42,3,1,,,,,,,,,,,,,,,,,,,,,,,,,,,,,,
,,,,,,,,,,,,,,,,,,,,,,,,,,,,,,,,,,,,,,,,,,,space,9870655,30,2020-09-04_10h17.03.623,CDT_GNG_IUS12,2020.1.2,Win32,60,,,,,,,,,,,,,,,,,,,0,1,space,1,0.148805,0,43,43,20,1,,,,,,,,,,,,,,,,,,,,,,,,,,,,,,
,,,,,,,,,,,,,,,,,,,,,,,,,,,,,,,,,,,,,,,,,,,space,9870655,30,2020-09-04_10h17.03.623,CDT_GNG_IUS12,2020.1.2,Win32,60,,,,,,,,,,,,,,,,,,,0,1,space,1,0.16353,0,44,44,41,1,,,,,,,,,,,,,,,,,,,,,,,,,,,,,,
,,,,,,,,,,,,,,,,,,,,,,,,,,,,,,,,,,,,,,,,,,,space,9870655,30,2020-09-04_10h17.03.623,CDT_GNG_IUS12,2020.1.2,Win32,60,,,,,,,,,,,,,,,,,,,0,1,space,1,0.256285,0,45,45,34,1,,,,,,,,,,,,,,,,,,,,,,,,,,,,,,
,,,,,,,,,,,,,,,,,,,,,,,,,,,,,,,,,,,,,,,,,,,space,9870655,30,2020-09-04_10h17.03.623,CDT_GNG_IUS12,2020.1.2,Win32,60,,,,,,,,,,,,,,,,,,,0,1,space,1,0.314705,0,46,46,47,1,,,,,,,,,,,,,,,,,,,,,,,,,,,,,,
,,,,,,,,,,,,,,,,,,,,,,,,,,,,,,,,,,,,,,,,,,,,9870655,30,2020-09-04_10h17.03.623,CDT_GNG_IUS12,2020.1.2,Win32,60,,,,,,,,,,,,,,,,,,,1,0,space,0,0.28279,0,47,47,8,1,,,,,,,,,,,,,,,,,,,,,,,,,,,,,,
,,,,,,,,,,,,,,,,,,,,,,,,,,,,,,,,,,,,,,,,,,,space,9870655,30,2020-09-04_10h17.03.623,CDT_GNG_IUS12,2020.1.2,Win32,60,,,,,,,,,,,,,,,,,,,0,1,,0,,0,48,48,16,1,,,,,,,,,,,,,,,,,,,,,,,,,,,,,,
,,,,,,,,,,,,,,,,,,,,,,,,,,,,,,,,,,,,,,,,,,,space,9870655,30,2020-09-04_10h17.03.623,CDT_GNG_IUS12,2020.1.2,Win32,60,,,,,,,,,,,,,,,,,,,0,1,,0,,0,49,49,12,1,,,,,,,,,,,,,,,,,,,,,,,,,,,,,,
,,,,,,,,,,,,,,,,,,,,,,,,,,,,,,,,,,,,,,,,,,,space,9870655,30,2020-09-04_10h17.03.623,CDT_GNG_IUS12,2020.1.2,Win32,60,,,,,,,,,,,,,,,,,,,0,1,space,1,0.293935,,,,,,0,0,0,43,1,,,,,,,,,,,,,,,,,,,,,,,,,
,,,,,,,,,,,,,,,,,,,,,,,,,,,,,,,,,,,,,,,,,,,,9870655,30,2020-09-04_10h17.03.623,CDT_GNG_IUS12,2020.1.2,Win32,60,,,,,,,,,,,,,,,,,,,1,0,space,0,0.11885,,,,,,0,1,1,3,1,,,,,,,,,,,,,,,,,,,,,,,,,
,,,,,,,,,,,,,,,,,,,,,,,,,,,,,,,,,,,,,,,,,,,space,9870655,30,2020-09-04_10h17.03.623,CDT_GNG_IUS12,2020.1.2,Win32,60,,,,,,,,,,,,,,,,,,,0,1,,0,,,,,,,0,2,2,33,1,,,,,,,,,,,,,,,,,,,,,,,,,
,,,,,,,,,,,,,,,,,,,,,,,,,,,,,,,,,,,,,,,,,,,space,9870655,30,2020-09-04_10h17.03.623,CDT_GNG_IUS12,2020.1.2,Win32,60,,,,,,,,,,,,,,,,,,,0,1,space,1,0.183215,,,,,,0,3,3,36,1,,,,,,,,,,,,,,,,,,,,,,,,,
,,,,,,,,,,,,,,,,,,,,,,,,,,,,,,,,,,,,,,,,,,,space,9870655,30,2020-09-04_10h17.03.623,CDT_GNG_IUS12,2020.1.2,Win32,60,,,,,,,,,,,,,,,,,,,0,1,space,1,0.086615,,,,,,0,4,4,31,1,,,,,,,,,,,,,,,,,,,,,,,,,
,,,,,,,,,,,,,,,,,,,,,,,,,,,,,,,,,,,,,,,,,,,,9870655,30,2020-09-04_10h17.03.623,CDT_GNG_IUS12,2020.1.2,Win32,60,,,,,,,,,,,,,,,,,,,1,0,space,0,0.04622,,,,,,0,5,5,9,1,,,,,,,,,,,,,,,,,,,,,,,,,
,,,,,,,,,,,,,,,,,,,,,,,,,,,,,,,,,,,,,,,,,,,space,9870655,30,2020-09-04_10h17.03.623,CDT_GNG_IUS12,2020.1.2,Win32,60,,,,,,,,,,,,,,,,,,,0,1,,0,,,,,,,0,6,6,48,1,,,,,,,,,,,,,,,,,,,,,,,,,
,,,,,,,,,,,,,,,,,,,,,,,,,,,,,,,,,,,,,,,,,,,space,9870655,30,2020-09-04_10h17.03.623,CDT_GNG_IUS12,2020.1.2,Win32,60,,,,,,,,,,,,,,,,,,,0,1,space,1,0.21318,,,,,,0,7,7,35,1,,,,,,,,,,,,,,,,,,,,,,,,,
,,,,,,,,,,,,,,,,,,,,,,,,,,,,,,,,,,,,,,,,,,,space,9870655,30,2020-09-04_10h17.03.623,CDT_GNG_IUS12,2020.1.2,Win32,60,,,,,,,,,,,,,,,,,,,0,1,space,1,0.08659,,,,,,0,8,8,14,1,,,,,,,,,,,,,,,,,,,,,,,,,
,,,,,,,,,,,,,,,,,,,,,,,,,,,,,,,,,,,,,,,,,,,space,9870655,30,2020-09-04_10h17.03.623,CDT_GNG_IUS12,2020.1.2,Win32,60,,,,,,,,,,,,,,,,,,,0,1,space,1,0.03408,,,,,,0,9,9,21,1,,,,,,,,,,,,,,,,,,,,,,,,,
,,,,,,,,,,,,,,,,,,,,,,,,,,,,,,,,,,,,,,,,,,,space,9870655,30,2020-09-04_10h17.03.623,CDT_GNG_IUS12,2020.1.2,Win32,60,,,,,,,,,,,,,,,,,,,0,1,,0,,,,,,,0,10,10,25,1,,,,,,,,,,,,,,,,,,,,,,,,,
,,,,,,,,,,,,,,,,,,,,,,,,,,,,,,,,,,,,,,,,,,,space,9870655,30,2020-09-04_10h17.03.623,CDT_GNG_IUS12,2020.1.2,Win32,60,,,,,,,,,,,,,,,,,,,0,1,space,1,0.034455,,,,,,0,11,11,10,1,,,,,,,,,,,,,,,,,,,,,,,,,
,,,,,,,,,,,,,,,,,,,,,,,,,,,,,,,,,,,,,,,,,,,space,9870655,30,2020-09-04_10h17.03.623,CDT_GNG_IUS12,2020.1.2,Win32,60,,,,,,,,,,,,,,,,,,,0,1,,0,,,,,,,0,12,12,12,1,,,,,,,,,,,,,,,,,,,,,,,,,
,,,,,,,,,,,,,,,,,,,,,,,,,,,,,,,,,,,,,,,,,,,space,9870655,30,2020-09-04_10h17.03.623,CDT_GNG_IUS12,2020.1.2,Win32,60,,,,,,,,,,,,,,,,,,,0,1,space,1,0.065525,,,,,,0,13,13,16,1,,,,,,,,,,,,,,,,,,,,,,,,,
,,,,,,,,,,,,,,,,,,,,,,,,,,,,,,,,,,,,,,,,,,,space,9870655,30,2020-09-04_10h17.03.623,CDT_GNG_IUS12,2020.1.2,Win32,60,,,,,,,,,,,,,,,,,,,0,1,space,1,0.166475,,,,,,0,14,14,39,1,,,,,,,,,,,,,,,,,,,,,,,,,
,,,,,,,,,,,,,,,,,,,,,,,,,,,,,,,,,,,,,,,,,,,space,9870655,30,2020-09-04_10h17.03.623,CDT_GNG_IUS12,2020.1.2,Win32,60,,,,,,,,,,,,,,,,,,,0,1,space,1,0.14807,,,,,,0,15,15,29,1,,,,,,,,,,,,,,,,,,,,,,,,,
,,,,,,,,,,,,,,,,,,,,,,,,,,,,,,,,,,,,,,,,,,,space,9870655,30,2020-09-04_10h17.03.623,CDT_GNG_IUS12,2020.1.2,Win32,60,,,,,,,,,,,,,,,,,,,0,1,space,1,0.134975,,,,,,0,16,16,13,1,,,,,,,,,,,,,,,,,,,,,,,,,
,,,,,,,,,,,,,,,,,,,,,,,,,,,,,,,,,,,,,,,,,,,space,9870655,30,2020-09-04_10h17.03.623,CDT_GNG_IUS12,2020.1.2,Win32,60,,,,,,,,,,,,,,,,,,,0,1,space,1,0.196385,,,,,,0,17,17,20,1,,,,,,,,,,,,,,,,,,,,,,,,,
,,,,,,,,,,,,,,,,,,,,,,,,,,,,,,,,,,,,,,,,,,,,9870655,30,2020-09-04_10h17.03.623,CDT_GNG_IUS12,2020.1.2,Win32,60,,,,,,,,,,,,,,,,,,,1,0,space,0,0.167265,,,,,,0,18,18,6,1,,,,,,,,,,,,,,,,,,,,,,,,,
,,,,,,,,,,,,,,,,,,,,,,,,,,,,,,,,,,,,,,,,,,,,9870655,30,2020-09-04_10h17.03.623,CDT_GNG_IUS12,2020.1.2,Win32,60,,,,,,,,,,,,,,,,,,,1,0,,1,,,,,,,0,19,19,4,1,,,,,,,,,,,,,,,,,,,,,,,,,
,,,,,,,,,,,,,,,,,,,,,,,,,,,,,,,,,,,,,,,,,,,space,9870655,30,2020-09-04_10h17.03.623,CDT_GNG_IUS12,2020.1.2,Win32,60,,,,,,,,,,,,,,,,,,,0,1,space,1,0.215535,,,,,,0,20,20,22,1,,,,,,,,,,,,,,,,,,,,,,,,,
,,,,,,,,,,,,,,,,,,,,,,,,,,,,,,,,,,,,,,,,,,,,9870655,30,2020-09-04_10h17.03.623,CDT_GNG_IUS12,2020.1.2,Win32,60,,,,,,,,,,,,,,,,,,,1,0,space,0,0.254395,,,,,,0,21,21,8,1,,,,,,,,,,,,,,,,,,,,,,,,,
,,,,,,,,,,,,,,,,,,,,,,,,,,,,,,,,,,,,,,,,,,,space,9870655,30,2020-09-04_10h17.03.623,CDT_GNG_IUS12,2020.1.2,Win32,60,,,,,,,,,,,,,,,,,,,0,1,,0,,,,,,,0,22,22,27,1,,,,,,,,,,,,,,,,,,,,,,,,,
,,,,,,,,,,,,,,,,,,,,,,,,,,,,,,,,,,,,,,,,,,,space,9870655,30,2020-09-04_10h17.03.623,CDT_GNG_IUS12,2020.1.2,Win32,60,,,,,,,,,,,,,,,,,,,0,1,space,1,0.282745,,,,,,0,23,23,24,1,,,,,,,,,,,,,,,,,,,,,,,,,
,,,,,,,,,,,,,,,,,,,,,,,,,,,,,,,,,,,,,,,,,,,space,9870655,30,2020-09-04_10h17.03.623,CDT_GNG_IUS12,2020.1.2,Win32,60,,,,,,,,,,,,,,,,,,,0,1,space,1,0.27048,,,,,,0,24,24,32,1,,,,,,,,,,,,,,,,,,,,,,,,,
,,,,,,,,,,,,,,,,,,,,,,,,,,,,,,,,,,,,,,,,,,,space,9870655,30,2020-09-04_10h17.03.623,CDT_GNG_IUS12,2020.1.2,Win32,60,,,,,,,,,,,,,,,,,,,0,1,space,1,0.139965,,,,,,0,25,25,19,1,,,,,,,,,,,,,,,,,,,,,,,,,
,,,,,,,,,,,,,,,,,,,,,,,,,,,,,,,,,,,,,,,,,,,space,9870655,30,2020-09-04_10h17.03.623,CDT_GNG_IUS12,2020.1.2,Win32,60,,,,,,,,,,,,,,,,,,,0,1,space,1,0.1097,,,,,,0,26,26,11,1,,,,,,,,,,,,,,,,,,,,,,,,,
,,,,,,,,,,,,,,,,,,,,,,,,,,,,,,,,,,,,,,,,,,,,9870655,30,2020-09-04_10h17.03.623,CDT_GNG_IUS12,2020.1.2,Win32,60,,,,,,,,,,,,,,,,,,,1,0,space,0,0.12484,,,,,,0,27,27,0,1,,,,,,,,,,,,,,,,,,,,,,,,,
,,,,,,,,,,,,,,,,,,,,,,,,,,,,,,,,,,,,,,,,,,,space,9870655,30,2020-09-04_10h17.03.623,CDT_GNG_IUS12,2020.1.2,Win32,60,,,,,,,,,,,,,,,,,,,0,1,,0,,,,,,,0,28,28,45,1,,,,,,,,,,,,,,,,,,,,,,,,,
,,,,,,,,,,,,,,,,,,,,,,,,,,,,,,,,,,,,,,,,,,,space,9870655,30,2020-09-04_10h17.03.623,CDT_GNG_IUS12,2020.1.2,Win32,60,,,,,,,,,,,,,,,,,,,0,1,space,1,0.19023,,,,,,0,29,29,40,1,,,,,,,,,,,,,,,,,,,,,,,,,
,,,,,,,,,,,,,,,,,,,,,,,,,,,,,,,,,,,,,,,,,,,space,9870655,30,2020-09-04_10h17.03.623,CDT_GNG_IUS12,2020.1.2,Win32,60,,,,,,,,,,,,,,,,,,,0,1,space,1,0.106745,,,,,,0,30,30,18,1,,,,,,,,,,,,,,,,,,,,,,,,,
,,,,,,,,,,,,,,,,,,,,,,,,,,,,,,,,,,,,,,,,,,,space,9870655,30,2020-09-04_10h17.03.623,CDT_GNG_IUS12,2020.1.2,Win32,60,,,,,,,,,,,,,,,,,,,0,1,space,1,0.04718,,,,,,0,31,31,49,1,,,,,,,,,,,,,,,,,,,,,,,,,
,,,,,,,,,,,,,,,,,,,,,,,,,,,,,,,,,,,,,,,,,,,space,9870655,30,2020-09-04_10h17.03.623,CDT_GNG_IUS12,2020.1.2,Win32,60,,,,,,,,,,,,,,,,,,,0,1,,0,,,,,,,0,32,32,44,1,,,,,,,,,,,,,,,,,,,,,,,,,
,,,,,,,,,,,,,,,,,,,,,,,,,,,,,,,,,,,,,,,,,,,space,9870655,30,2020-09-04_10h17.03.623,CDT_GNG_IUS12,2020.1.2,Win32,60,,,,,,,,,,,,,,,,,,,0,1,space,1,0.034095,,,,,,0,33,33,23,1,,,,,,,,,,,,,,,,,,,,,,,,,
,,,,,,,,,,,,,,,,,,,,,,,,,,,,,,,,,,,,,,,,,,,space,9870655,30,2020-09-04_10h17.03.623,CDT_GNG_IUS12,2020.1.2,Win32,60,,,,,,,,,,,,,,,,,,,0,1,space,1,0.02894,,,,,,0,34,34,15,1,,,,,,,,,,,,,,,,,,,,,,,,,
,,,,,,,,,,,,,,,,,,,,,,,,,,,,,,,,,,,,,,,,,,,,9870655,30,2020-09-04_10h17.03.623,CDT_GNG_IUS12,2020.1.2,Win32,60,,,,,,,,,,,,,,,,,,,1,0,space,0,0.07018,,,,,,0,35,35,1,1,,,,,,,,,,,,,,,,,,,,,,,,,
,,,,,,,,,,,,,,,,,,,,,,,,,,,,,,,,,,,,,,,,,,,space,9870655,30,2020-09-04_10h17.03.623,CDT_GNG_IUS12,2020.1.2,Win32,60,,,,,,,,,,,,,,,,,,,0,1,,0,,,,,,,0,36,36,26,1,,,,,,,,,,,,,,,,,,,,,,,,,
,,,,,,,,,,,,,,,,,,,,,,,,,,,,,,,,,,,,,,,,,,,,9870655,30,2020-09-04_10h17.03.623,CDT_GNG_IUS12,2020.1.2,Win32,60,,,,,,,,,,,,,,,,,,,1,0,space,0,0.15449,,,,,,0,37,37,7,1,,,,,,,,,,,,,,,,,,,,,,,,,
,,,,,,,,,,,,,,,,,,,,,,,,,,,,,,,,,,,,,,,,,,,space,9870655,30,2020-09-04_10h17.03.623,CDT_GNG_IUS12,2020.1.2,Win32,60,,,,,,,,,,,,,,,,,,,0,1,,0,,,,,,,0,38,38,42,1,,,,,,,,,,,,,,,,,,,,,,,,,
,,,,,,,,,,,,,,,,,,,,,,,,,,,,,,,,,,,,,,,,,,,space,9870655,30,2020-09-04_10h17.03.623,CDT_GNG_IUS12,2020.1.2,Win32,60,,,,,,,,,,,,,,,,,,,0,1,space,1,0.168055,,,,,,0,39,39,46,1,,,,,,,,,,,,,,,,,,,,,,,,,
,,,,,,,,,,,,,,,,,,,,,,,,,,,,,,,,,,,,,,,,,,,space,9870655,30,2020-09-04_10h17.03.623,CDT_GNG_IUS12,2020.1.2,Win32,60,,,,,,,,,,,,,,,,,,,0,1,space,1,0.140775,,,,,,0,40,40,30,1,,,,,,,,,,,,,,,,,,,,,,,,,
,,,,,,,,,,,,,,,,,,,,,,,,,,,,,,,,,,,,,,,,,,,space,9870655,30,2020-09-04_10h17.03.623,CDT_GNG_IUS12,2020.1.2,Win32,60,,,,,,,,,,,,,,,,,,,0,1,space,1,0.06646,,,,,,0,41,41,34,1,,,,,,,,,,,,,,,,,,,,,,,,,
,,,,,,,,,,,,,,,,,,,,,,,,,,,,,,,,,,,,,,,,,,,space,9870655,30,2020-09-04_10h17.03.623,CDT_GNG_IUS12,2020.1.2,Win32,60,,,,,,,,,,,,,,,,,,,0,1,space,1,0.124985,,,,,,0,42,42,28,1,,,,,,,,,,,,,,,,,,,,,,,,,
,,,,,,,,,,,,,,,,,,,,,,,,,,,,,,,,,,,,,,,,,,,space,9870655,30,2020-09-04_10h17.03.623,CDT_GNG_IUS12,2020.1.2,Win32,60,,,,,,,,,,,,,,,,,,,0,1,space,1,0.068505,,,,,,0,43,43,37,1,,,,,,,,,,,,,,,,,,,,,,,,,
,,,,,,,,,,,,,,,,,,,,,,,,,,,,,,,,,,,,,,,,,,,space,9870655,30,2020-09-04_10h17.03.623,CDT_GNG_IUS12,2020.1.2,Win32,60,,,,,,,,,,,,,,,,,,,0,1,space,1,0.08618,,,,,,0,44,44,47,1,,,,,,,,,,,,,,,,,,,,,,,,,
,,,,,,,,,,,,,,,,,,,,,,,,,,,,,,,,,,,,,,,,,,,,9870655,30,2020-09-04_10h17.03.623,CDT_GNG_IUS12,2020.1.2,Win32,60,,,,,,,,,,,,,,,,,,,1,0,space,0,0.02351,,,,,,0,45,45,2,1,,,,,,,,,,,,,,,,,,,,,,,,,
,,,,,,,,,,,,,,,,,,,,,,,,,,,,,,,,,,,,,,,,,,,,9870655,30,2020-09-04_10h17.03.623,CDT_GNG_IUS12,2020.1.2,Win32,60,,,,,,,,,,,,,,,,,,,1,0,,1,,,,,,,0,46,46,5,1,,,,,,,,,,,,,,,,,,,,,,,,,
,,,,,,,,,,,,,,,,,,,,,,,,,,,,,,,,,,,,,,,,,,,space,9870655,30,2020-09-04_10h17.03.623,CDT_GNG_IUS12,2020.1.2,Win32,60,,,,,,,,,,,,,,,,,,,0,1,space,1,0.175,,,,,,0,47,47,41,1,,,,,,,,,,,,,,,,,,,,,,,,,
,,,,,,,,,,,,,,,,,,,,,,,,,,,,,,,,,,,,,,,,,,,space,9870655,30,2020-09-04_10h17.03.623,CDT_GNG_IUS12,2020.1.2,Win32,60,,,,,,,,,,,,,,,,,,,0,1,space,1,0.08769,,,,,,0,48,48,38,1,,,,,,,,,,,,,,,,,,,,,,,,,
,,,,,,,,,,,,,,,,,,,,,,,,,,,,,,,,,,,,,,,,,,,space,9870655,30,2020-09-04_10h17.03.623,CDT_GNG_IUS12,2020.1.2,Win32,60,,,,,,,,,,,,,,,,,,,0,1,space,1,0.119505,,,,,,0,49,49,17,1,,,,,,,,,,,,,,,,,,,,,,,,,
,,,,,,,,,,,,,,,,,,,,,,,,,,,,,,,,,,,,,,,,,,,space,9870655,30,2020-09-04_10h17.03.623,CDT_GNG_IUS12,2020.1.2,Win32,60,,,,,,,,,,,,,,,,,,,0,1,,0,,,,,,,,,,,,0,0,0,12,1,,,,,,,,,,,,,,,,,,,,
,,,,,,,,,,,,,,,,,,,,,,,,,,,,,,,,,,,,,,,,,,,space,9870655,30,2020-09-04_10h17.03.623,CDT_GNG_IUS12,2020.1.2,Win32,60,,,,,,,,,,,,,,,,,,,0,1,space,1,0.217875,,,,,,,,,,,0,1,1,28,1,,,,,,,,,,,,,,,,,,,,
,,,,,,,,,,,,,,,,,,,,,,,,,,,,,,,,,,,,,,,,,,,space,9870655,30,2020-09-04_10h17.03.623,CDT_GNG_IUS12,2020.1.2,Win32,60,,,,,,,,,,,,,,,,,,,0,1,space,1,0.251005,,,,,,,,,,,0,2,2,43,1,,,,,,,,,,,,,,,,,,,,
,,,,,,,,,,,,,,,,,,,,,,,,,,,,,,,,,,,,,,,,,,,space,9870655,30,2020-09-04_10h17.03.623,CDT_GNG_IUS12,2020.1.2,Win32,60,,,,,,,,,,,,,,,,,,,0,1,space,1,0.24186,,,,,,,,,,,0,3,3,17,1,,,,,,,,,,,,,,,,,,,,
,,,,,,,,,,,,,,,,,,,,,,,,,,,,,,,,,,,,,,,,,,,space,9870655,30,2020-09-04_10h17.03.623,CDT_GNG_IUS12,2020.1.2,Win32,60,,,,,,,,,,,,,,,,,,,0,1,space,1,0.147925,,,,,,,,,,,0,4,4,46,1,,,,,,,,,,,,,,,,,,,,
,,,,,,,,,,,,,,,,,,,,,,,,,,,,,,,,,,,,,,,,,,,space,9870655,30,2020-09-04_10h17.03.623,CDT_GNG_IUS12,2020.1.2,Win32,60,,,,,,,,,,,,,,,,,,,0,1,space,1,0.090115,,,,,,,,,,,0,5,5,27,1,,,,,,,,,,,,,,,,,,,,
,,,,,,,,,,,,,,,,,,,,,,,,,,,,,,,,,,,,,,,,,,,,9870655,30,2020-09-04_10h17.03.623,CDT_GNG_IUS12,2020.1.2,Win32,60,,,,,,,,,,,,,,,,,,,1,0,space,0,0.2607,,,,,,,,,,,0,6,6,8,1,,,,,,,,,,,,,,,,,,,,
,,,,,,,,,,,,,,,,,,,,,,,,,,,,,,,,,,,,,,,,,,,,9870655,30,2020-09-04_10h17.03.623,CDT_GNG_IUS12,2020.1.2,Win32,60,,,,,,,,,,,,,,,,,,,1,0,,1,,,,,,,,,,,,0,7,7,3,1,,,,,,,,,,,,,,,,,,,,
,,,,,,,,,,,,,,,,,,,,,,,,,,,,,,,,,,,,,,,,,,,space,9870655,30,2020-09-04_10h17.03.623,CDT_GNG_IUS12,2020.1.2,Win32,60,,,,,,,,,,,,,,,,,,,0,1,space,1,0.220725,,,,,,,,,,,0,8,8,31,1,,,,,,,,,,,,,,,,,,,,
,,,,,,,,,,,,,,,,,,,,,,,,,,,,,,,,,,,,,,,,,,,space,9870655,30,2020-09-04_10h17.03.623,CDT_GNG_IUS12,2020.1.2,Win32,60,,,,,,,,,,,,,,,,,,,0,1,space,1,0.40398,,,,,,,,,,,0,9,9,23,1,,,,,,,,,,,,,,,,,,,,
,,,,,,,,,,,,,,,,,,,,,,,,,,,,,,,,,,,,,,,,,,,space,9870655,30,2020-09-04_10h17.03.623,CDT_GNG_IUS12,2020.1.2,Win32,60,,,,,,,,,,,,,,,,,,,0,1,space,1,0.33805,,,,,,,,,,,0,10,10,13,1,,,,,,,,,,,,,,,,,,,,
,,,,,,,,,,,,,,,,,,,,,,,,,,,,,,,,,,,,,,,,,,,space,9870655,30,2020-09-04_10h17.03.623,CDT_GNG_IUS12,2020.1.2,Win32,60,,,,,,,,,,,,,,,,,,,0,1,space,1,0.23399,,,,,,,,,,,0,11,11,37,1,,,,,,,,,,,,,,,,,,,,
,,,,,,,,,,,,,,,,,,,,,,,,,,,,,,,,,,,,,,,,,,,space,9870655,30,2020-09-04_10h17.03.623,CDT_GNG_IUS12,2020.1.2,Win32,60,,,,,,,,,,,,,,,,,,,0,1,,0,,,,,,,,,,,,0,12,12,48,1,,,,,,,,,,,,,,,,,,,,
,,,,,,,,,,,,,,,,,,,,,,,,,,,,,,,,,,,,,,,,,,,,9870655,30,2020-09-04_10h17.03.623,CDT_GNG_IUS12,2020.1.2,Win32,60,,,,,,,,,,,,,,,,,,,1,0,space,0,0.18599,,,,,,,,,,,0,13,13,2,1,,,,,,,,,,,,,,,,,,,,
,,,,,,,,,,,,,,,,,,,,,,,,,,,,,,,,,,,,,,,,,,,space,9870655,30,2020-09-04_10h17.03.623,CDT_GNG_IUS12,2020.1.2,Win32,60,,,,,,,,,,,,,,,,,,,0,1,,0,,,,,,,,,,,,0,14,14,41,1,,,,,,,,,,,,,,,,,,,,
,,,,,,,,,,,,,,,,,,,,,,,,,,,,,,,,,,,,,,,,,,,space,9870655,30,2020-09-04_10h17.03.623,CDT_GNG_IUS12,2020.1.2,Win32,60,,,,,,,,,,,,,,,,,,,0,1,space,1,0.090655,,,,,,,,,,,0,15,15,36,1,,,,,,,,,,,,,,,,,,,,
,,,,,,,,,,,,,,,,,,,,,,,,,,,,,,,,,,,,,,,,,,,space,9870655,30,2020-09-04_10h17.03.623,CDT_GNG_IUS12,2020.1.2,Win32,60,,,,,,,,,,,,,,,,,,,0,1,space,1,0.103095,,,,,,,,,,,0,16,16,25,1,,,,,,,,,,,,,,,,,,,,
,,,,,,,,,,,,,,,,,,,,,,,,,,,,,,,,,,,,,,,,,,,space,9870655,30,2020-09-04_10h17.03.623,CDT_GNG_IUS12,2020.1.2,Win32,60,,,,,,,,,,,,,,,,,,,0,1,space,1,0.09837,,,,,,,,,,,0,17,17,20,1,,,,,,,,,,,,,,,,,,,,
,,,,,,,,,,,,,,,,,,,,,,,,,,,,,,,,,,,,,,,,,,,space,9870655,30,2020-09-04_10h17.03.623,CDT_GNG_IUS12,2020.1.2,Win32,60,,,,,,,,,,,,,,,,,,,0,1,space,1,0.066305,,,,,,,,,,,0,18,18,19,1,,,,,,,,,,,,,,,,,,,,
,,,,,,,,,,,,,,,,,,,,,,,,,,,,,,,,,,,,,,,,,,,space,9870655,30,2020-09-04_10h17.03.623,CDT_GNG_IUS12,2020.1.2,Win32,60,,,,,,,,,,,,,,,,,,,0,1,space,1,0.084115,,,,,,,,,,,0,19,19,34,1,,,,,,,,,,,,,,,,,,,,
,,,,,,,,,,,,,,,,,,,,,,,,,,,,,,,,,,,,,,,,,,,space,9870655,30,2020-09-04_10h17.03.623,CDT_GNG_IUS12,2020.1.2,Win32,60,,,,,,,,,,,,,,,,,,,0,1,space,1,0.09255,,,,,,,,,,,0,20,20,44,1,,,,,,,,,,,,,,,,,,,,
,,,,,,,,,,,,,,,,,,,,,,,,,,,,,,,,,,,,,,,,,,,space,9870655,30,2020-09-04_10h17.03.623,CDT_GNG_IUS12,2020.1.2,Win32,60,,,,,,,,,,,,,,,,,,,0,1,space,1,0.02879,,,,,,,,,,,0,21,21,16,1,,,,,,,,,,,,,,,,,,,,
,,,,,,,,,,,,,,,,,,,,,,,,,,,,,,,,,,,,,,,,,,,,9870655,30,2020-09-04_10h17.03.623,CDT_GNG_IUS12,2020.1.2,Win32,60,,,,,,,,,,,,,,,,,,,1,0,space,0,0.04224,,,,,,,,,,,0,22,22,4,1,,,,,,,,,,,,,,,,,,,,
,,,,,,,,,,,,,,,,,,,,,,,,,,,,,,,,,,,,,,,,,,,,9870655,30,2020-09-04_10h17.03.623,CDT_GNG_IUS12,2020.1.2,Win32,60,,,,,,,,,,,,,,,,,,,1,0,space,0,0.2898,,,,,,,,,,,0,23,23,6,1,,,,,,,,,,,,,,,,,,,,
,,,,,,,,,,,,,,,,,,,,,,,,,,,,,,,,,,,,,,,,,,,space,9870655,30,2020-09-04_10h17.03.623,CDT_GNG_IUS12,2020.1.2,Win32,60,,,,,,,,,,,,,,,,,,,0,1,,0,,,,,,,,,,,,0,24,24,30,1,,,,,,,,,,,,,,,,,,,,
,,,,,,,,,,,,,,,,,,,,,,,,,,,,,,,,,,,,,,,,,,,space,9870655,30,2020-09-04_10h17.03.623,CDT_GNG_IUS12,2020.1.2,Win32,60,,,,,,,,,,,,,,,,,,,0,1,space,1,0.18809,,,,,,,,,,,0,25,25,49,1,,,,,,,,,,,,,,,,,,,,
,,,,,,,,,,,,,,,,,,,,,,,,,,,,,,,,,,,,,,,,,,,space,9870655,30,2020-09-04_10h17.03.623,CDT_GNG_IUS12,2020.1.2,Win32,60,,,,,,,,,,,,,,,,,,,0,1,space,1,0.050675,,,,,,,,,,,0,26,26,33,1,,,,,,,,,,,,,,,,,,,,
,,,,,,,,,,,,,,,,,,,,,,,,,,,,,,,,,,,,,,,,,,,space,9870655,30,2020-09-04_10h17.03.623,CDT_GNG_IUS12,2020.1.2,Win32,60,,,,,,,,,,,,,,,,,,,0,1,space,1,0.09054,,,,,,,,,,,0,27,27,14,1,,,,,,,,,,,,,,,,,,,,
,,,,,,,,,,,,,,,,,,,,,,,,,,,,,,,,,,,,,,,,,,,space,9870655,30,2020-09-04_10h17.03.623,CDT_GNG_IUS12,2020.1.2,Win32,60,,,,,,,,,,,,,,,,,,,0,1,space,1,0.21532,,,,,,,,,,,0,28,28,39,1,,,,,,,,,,,,,,,,,,,,
,,,,,,,,,,,,,,,,,,,,,,,,,,,,,,,,,,,,,,,,,,,,9870655,30,2020-09-04_10h17.03.623,CDT_GNG_IUS12,2020.1.2,Win32,60,,,,,,,,,,,,,,,,,,,1,0,space,0,0.106065,,,,,,,,,,,0,29,29,1,1,,,,,,,,,,,,,,,,,,,,
,,,,,,,,,,,,,,,,,,,,,,,,,,,,,,,,,,,,,,,,,,,space,9870655,30,2020-09-04_10h17.03.623,CDT_GNG_IUS12,2020.1.2,Win32,60,,,,,,,,,,,,,,,,,,,0,1,,0,,,,,,,,,,,,0,30,30,11,1,,,,,,,,,,,,,,,,,,,,
,,,,,,,,,,,,,,,,,,,,,,,,,,,,,,,,,,,,,,,,,,,space,9870655,30,2020-09-04_10h17.03.623,CDT_GNG_IUS12,2020.1.2,Win32,60,,,,,,,,,,,,,,,,,,,0,1,space,1,0.189335,,,,,,,,,,,0,31,31,45,1,,,,,,,,,,,,,,,,,,,,
,,,,,,,,,,,,,,,,,,,,,,,,,,,,,,,,,,,,,,,,,,,space,9870655,30,2020-09-04_10h17.03.623,CDT_GNG_IUS12,2020.1.2,Win32,60,,,,,,,,,,,,,,,,,,,0,1,space,1,0.07857,,,,,,,,,,,0,32,32,38,1,,,,,,,,,,,,,,,,,,,,
,,,,,,,,,,,,,,,,,,,,,,,,,,,,,,,,,,,,,,,,,,,space,9870655,30,2020-09-04_10h17.03.623,CDT_GNG_IUS12,2020.1.2,Win32,60,,,,,,,,,,,,,,,,,,,0,1,space,1,0.03593,,,,,,,,,,,0,33,33,35,1,,,,,,,,,,,,,,,,,,,,
,,,,,,,,,,,,,,,,,,,,,,,,,,,,,,,,,,,,,,,,,,,space,9870655,30,2020-09-04_10h17.03.623,CDT_GNG_IUS12,2020.1.2,Win32,60,,,,,,,,,,,,,,,,,,,0,1,space,1,0.01783,,,,,,,,,,,0,34,34,10,1,,,,,,,,,,,,,,,,,,,,
,,,,,,,,,,,,,,,,,,,,,,,,,,,,,,,,,,,,,,,,,,,,9870655,30,2020-09-04_10h17.03.623,CDT_GNG_IUS12,2020.1.2,Win32,60,,,,,,,,,,,,,,,,,,,1,0,space,0,0.04477,,,,,,,,,,,0,35,35,9,1,,,,,,,,,,,,,,,,,,,,
,,,,,,,,,,,,,,,,,,,,,,,,,,,,,,,,,,,,,,,,,,,space,9870655,30,2020-09-04_10h17.03.623,CDT_GNG_IUS12,2020.1.2,Win32,60,,,,,,,,,,,,,,,,,,,0,1,,0,,,,,,,,,,,,0,36,36,32,1,,,,,,,,,,,,,,,,,,,,
,,,,,,,,,,,,,,,,,,,,,,,,,,,,,,,,,,,,,,,,,,,,9870655,30,2020-09-04_10h17.03.623,CDT_GNG_IUS12,2020.1.2,Win32,60,,,,,,,,,,,,,,,,,,,1,0,space,0,0.104035,,,,,,,,,,,0,37,37,7,1,,,,,,,,,,,,,,,,,,,,
,,,,,,,,,,,,,,,,,,,,,,,,,,,,,,,,,,,,,,,,,,,space,9870655,30,2020-09-04_10h17.03.623,CDT_GNG_IUS12,2020.1.2,Win32,60,,,,,,,,,,,,,,,,,,,0,1,,0,,,,,,,,,,,,0,38,38,18,1,,,,,,,,,,,,,,,,,,,,
,,,,,,,,,,,,,,,,,,,,,,,,,,,,,,,,,,,,,,,,,,,space,9870655,30,2020-09-04_10h17.03.623,CDT_GNG_IUS12,2020.1.2,Win32,60,,,,,,,,,,,,,,,,,,,0,1,space,1,0.0764,,,,,,,,,,,0,39,39,42,1,,,,,,,,,,,,,,,,,,,,
,,,,,,,,,,,,,,,,,,,,,,,,,,,,,,,,,,,,,,,,,,,space,9870655,30,2020-09-04_10h17.03.623,CDT_GNG_IUS12,2020.1.2,Win32,60,,,,,,,,,,,,,,,,,,,0,1,space,1,0.02931,,,,,,,,,,,0,40,40,21,1,,,,,,,,,,,,,,,,,,,,
,,,,,,,,,,,,,,,,,,,,,,,,,,,,,,,,,,,,,,,,,,,space,9870655,30,2020-09-04_10h17.03.623,CDT_GNG_IUS12,2020.1.2,Win32,60,,,,,,,,,,,,,,,,,,,0,1,,0,,,,,,,,,,,,0,41,41,26,1,,,,,,,,,,,,,,,,,,,,
,,,,,,,,,,,,,,,,,,,,,,,,,,,,,,,,,,,,,,,,,,,space,9870655,30,2020-09-04_10h17.03.623,CDT_GNG_IUS12,2020.1.2,Win32,60,,,,,,,,,,,,,,,,,,,0,1,space,1,0.000735,,,,,,,,,,,0,42,42,40,1,,,,,,,,,,,,,,,,,,,,
,,,,,,,,,,,,,,,,,,,,,,,,,,,,,,,,,,,,,,,,,,,space,9870655,30,2020-09-04_10h17.03.623,CDT_GNG_IUS12,2020.1.2,Win32,60,,,,,,,,,,,,,,,,,,,0,1,,0,,,,,,,,,,,,0,43,43,24,1,,,,,,,,,,,,,,,,,,,,
,,,,,,,,,,,,,,,,,,,,,,,,,,,,,,,,,,,,,,,,,,,space,9870655,30,2020-09-04_10h17.03.623,CDT_GNG_IUS12,2020.1.2,Win32,60,,,,,,,,,,,,,,,,,,,0,1,,0,,,,,,,,,,,,0,44,44,47,1,,,,,,,,,,,,,,,,,,,,
,,,,,,,,,,,,,,,,,,,,,,,,,,,,,,,,,,,,,,,,,,,,9870655,30,2020-09-04_10h17.03.623,CDT_GNG_IUS12,2020.1.2,Win32,60,,,,,,,,,,,,,,,,,,,1,0,space,0,0.000795,,,,,,,,,,,0,45,45,0,1,,,,,,,,,,,,,,,,,,,,
,,,,,,,,,,,,,,,,,,,,,,,,,,,,,,,,,,,,,,,,,,,space,9870655,30,2020-09-04_10h17.03.623,CDT_GNG_IUS12,2020.1.2,Win32,60,,,,,,,,,,,,,,,,,,,0,1,,0,,,,,,,,,,,,0,46,46,22,1,,,,,,,,,,,,,,,,,,,,
,,,,,,,,,,,,,,,,,,,,,,,,,,,,,,,,,,,,,,,,,,,space,9870655,30,2020-09-04_10h17.03.623,CDT_GNG_IUS12,2020.1.2,Win32,60,,,,,,,,,,,,,,,,,,,0,1,space,1,0.18584,,,,,,,,,,,0,47,47,15,1,,,,,,,,,,,,,,,,,,,,
,,,,,,,,,,,,,,,,,,,,,,,,,,,,,,,,,,,,,,,,,,,space,9870655,30,2020-09-04_10h17.03.623,CDT_GNG_IUS12,2020.1.2,Win32,60,,,,,,,,,,,,,,,,,,,0,1,space,1,0.148855,,,,,,,,,,,0,48,48,29,1,,,,,,,,,,,,,,,,,,,,
,,,,,,,,,,,,,,,,,,,,,,,,,,,,,,,,,,,,,,,,,,,,9870655,30,2020-09-04_10h17.03.623,CDT_GNG_IUS12,2020.1.2,Win32,60,,,,,,,,,,,,,,,,,,,1,0,space,0,0.033235,,,,,,,,,,,0,49,49,5,1,,,,,,,,,,,,,,,,,,,,
,,,,,,,,,,,,,,,,,,,,,,,,,,,,,,,,,,,,,,,,,,,,9870655,30,2020-09-04_10h17.03.623,CDT_GNG_IUS12,2020.1.2,Win32,60,,,,,,,,,,,,,,,,,,,,,,,,,,,,,,,,,,,,,,,9.953703704,17.191165,0,0,0,0,1,1,"On a scale from 0 to 10, indicate your personal perception of your proficiency level for English (10 being the highest score)",,,,,,,,,,,
,,,,,,,,,,,,,,,,,,,,,,,,,,,,,,,,,,,,,,,,,,,,9870655,30,2020-09-04_10h17.03.623,CDT_GNG_IUS12,2020.1.2,Win32,60,,,,,,,,,,,,,,,,,,,,,,,,,,,,,,,,,,,,,,,10,4.963325,0,1,1,1,1,2,"On a scale from 0 to 10, indicate how frequently you are exposed to English (10 being 'always', 0 being 'never')",,,,,,,,,,,
,,,,,,,,,,,,,,,,,,,,,,,,,,,,,,,,,,,,,,,,,,,,9870655,30,2020-09-04_10h17.03.623,CDT_GNG_IUS12,2020.1.2,Win32,60,,,,,,,,,,,,,,,,,,,,,,,,,,,,,,,,,,,,,,,,,,,,,,,"On a scale from 0 to 10, indicate your personal perception of your proficiency level for English (10 being the highest score)",3.003703704,11.824815,0,0,0,0,1,1,Unforeseen events upset me greatly.,,
,,,,,,,,,,,,,,,,,,,,,,,,,,,,,,,,,,,,,,,,,,,,9870655,30,2020-09-04_10h17.03.623,CDT_GNG_IUS12,2020.1.2,Win32,60,,,,,,,,,,,,,,,,,,,,,,,,,,,,,,,,,,,,,,,,,,,,,,,"On a scale from 0 to 10, indicate how frequently you are exposed to English (10 being 'always', 0 being 'never')",4.962962963,3.30508,0,1,1,1,1,2,It frustrates me not having all the information I need.,,
,,,,,,,,,,,,,,,,,,,,,,,,,,,,,,,,,,,,,,,,,,,,9870655,30,2020-09-04_10h17.03.623,CDT_GNG_IUS12,2020.1.2,Win32,60,,,,,,,,,,,,,,,,,,,,,,,,,,,,,,,,,,,,,,,,,,,,,,,,3.977777778,6.755875,0,2,2,2,1,3,One should always look ahead so as to avoid surprises.,,
,,,,,,,,,,,,,,,,,,,,,,,,,,,,,,,,,,,,,,,,,,,,9870655,30,2020-09-04_10h17.03.623,CDT_GNG_IUS12,2020.1.2,Win32,60,,,,,,,,,,,,,,,,,,,,,,,,,,,,,,,,,,,,,,,,,,,,,,,,3.018518519,7.873025,0,3,3,3,1,4,"A small, unforeseen event can spoil everything, even with the best of planning. ",,
,,,,,,,,,,,,,,,,,,,,,,,,,,,,,,,,,,,,,,,,,,,,9870655,30,2020-09-04_10h17.03.623,CDT_GNG_IUS12,2020.1.2,Win32,60,,,,,,,,,,,,,,,,,,,,,,,,,,,,,,,,,,,,,,,,,,,,,,,,4.044444444,9.493245,0,4,4,4,1,5,I always want to know what the future has in store for me.,,
,,,,,,,,,,,,,,,,,,,,,,,,,,,,,,,,,,,,,,,,,,,,9870655,30,2020-09-04_10h17.03.623,CDT_GNG_IUS12,2020.1.2,Win32,60,,,,,,,,,,,,,,,,,,,,,,,,,,,,,,,,,,,,,,,,,,,,,,,,2.014814815,4.14932,0,5,5,5,1,6,I can't stand being taken by surprise.,,
,,,,,,,,,,,,,,,,,,,,,,,,,,,,,,,,,,,,,,,,,,,,9870655,30,2020-09-04_10h17.03.623,CDT_GNG_IUS12,2020.1.2,Win32,60,,,,,,,,,,,,,,,,,,,,,,,,,,,,,,,,,,,,,,,,,,,,,,,,4.992592593,8.21111,0,6,6,6,1,7,I should be able to organize everything in advance,,
,,,,,,,,,,,,,,,,,,,,,,,,,,,,,,,,,,,,,,,,,,,,9870655,30,2020-09-04_10h17.03.623,CDT_GNG_IUS12,2020.1.2,Win32,60,,,,,,,,,,,,,,,,,,,,,,,,,,,,,,,,,,,,,,,,,,,,,,,,2.003703704,5.993795,0,7,7,7,1,8,Uncertainty keeps me from living a full life.,,
,,,,,,,,,,,,,,,,,,,,,,,,,,,,,,,,,,,,,,,,,,,,9870655,30,2020-09-04_10h17.03.623,CDT_GNG_IUS12,2020.1.2,Win32,60,,,,,,,,,,,,,,,,,,,,,,,,,,,,,,,,,,,,,,,,,,,,,,,,1,5.081625,0,8,8,8,1,9,"When it's time to act, uncertainty paralyses me. ",,
,,,,,,,,,,,,,,,,,,,,,,,,,,,,,,,,,,,,,,,,,,,,9870655,30,2020-09-04_10h17.03.623,CDT_GNG_IUS12,2020.1.2,Win32,60,,,,,,,,,,,,,,,,,,,,,,,,,,,,,,,,,,,,,,,,,,,,,,,,1.996296296,4.99098,0,9,9,9,1,10,"When I am uncertain, I can't function very well. ",,
,,,,,,,,,,,,,,,,,,,,,,,,,,,,,,,,,,,,,,,,,,,,9870655,30,2020-09-04_10h17.03.623,CDT_GNG_IUS12,2020.1.2,Win32,60,,,,,,,,,,,,,,,,,,,,,,,,,,,,,,,,,,,,,,,,,,,,,,,,2.003703704,8.678035,0,10,10,10,1,11,The smallest doubt can stop me from acting. ,,
,,,,,,,,,,,,,,,,,,,,,,,,,,,,,,,,,,,,,,,,,,,,9870655,30,2020-09-04_10h17.03.623,CDT_GNG_IUS12,2020.1.2,Win32,60,,,,,,,,,,,,,,,,,,,,,,,,,,,,,,,,,,,,,,,,,,,,,,,,2.988888889,3.546265,0,11,11,11,1,12,I must get away from all uncertain situations. ,,
,,,,,,,,,,,,,,,,,,,,,,,,,,,,,,,,,,,,,,,,,,,,9870655,30,2020-09-04_10h17.03.623,CDT_GNG_IUS12,2020.1.2,Win32,60,,,,,,,,,,,,,,,,,,,,,,,,,,,,,,,,,,,,,,,,,,,,,,,,,,,,,,,,,x,27.38366
