key_resp_6.keys,key_resp_6.rt,key_resp_2.keys,key_resp_2.corr,key_resp_2.rt,CDT_trials_train.thisRepN,CDT_trials_train.thisTrialN,CDT_trials_train.thisN,CDT_trials_train.thisIndex,CDT_trials_train.ran,trialnum,condit,stimamt,stim1posx,stim1posy,stim1col,stim1opa,stim2posx,stim2posy,stim2col,stim2opa,stim3posx,stim3posy,stim3col,stim3opa,stim4posx,stim4posy,stim4col,stim4opa,stim5posx,stim5posy,stim5col,stim5opa,stim6posx,stim6posy,stim6col,stim6opa,stimsizex,stimsizey,stimdur,targetposx,targetposy,targetcol,corrAns,participant,age,date,expName,psychopyVersion,OS,frameRate,key_resp_5.keys,key_resp.keys,key_resp.corr,key_resp.rt,CDT_trials.thisRepN,CDT_trials.thisTrialN,CDT_trials.thisN,CDT_trials.thisIndex,CDT_trials.ran,key_resp_5.rt,trialResp_Train.keys,trialResp_Train.corr,GNGtrials_train.thisRepN,GNGtrials_train.thisTrialN,GNGtrials_train.thisN,GNGtrials_train.thisIndex,GNGtrials_train.ran,orangeOpacity,blueOpacity,trialResp_Train.rt,trialResp.keys,trialResp.corr,trialResp.rt,GNG_trials_1.thisRepN,GNG_trials_1.thisTrialN,GNG_trials_1.thisN,GNG_trials_1.thisIndex,GNG_trials_1.ran,GNG_trials_2.thisRepN,GNG_trials_2.thisTrialN,GNG_trials_2.thisN,GNG_trials_2.thisIndex,GNG_trials_2.ran,GNG_trials_3.thisRepN,GNG_trials_3.thisTrialN,GNG_trials_3.thisN,GNG_trials_3.thisIndex,GNG_trials_3.ran,slider_2.response,slider_2.rt,engprof_trials.thisRepN,engprof_trials.thisTrialN,engprof_trials.thisN,engprof_trials.thisIndex,engprof_trials.ran,qpnumber,qproficiency,slider.response,slider.rt,IUS12_trials.thisRepN,IUS12_trials.thisTrialN,IUS12_trials.thisN,IUS12_trials.thisIndex,IUS12_trials.ran,qnumber,qenglish,key_resp_end.keys,key_resp_end.rt
y,17.167585,l,0,2.301995,0,0,0,0,1,1,same,4,0.273779233,-0.054755847,black,1,-0.16426754,-0.273779233,magenta,1,-0.16426754,0.16426754,orange,1,0.16426754,0.054755847,yellow,1,0.16426754,-0.054755847,cyan,0,-0.054755847,-0.16426754,blue,0,0.05,0.05,0.15,-0.16426754,0.16426754,orange,k,99042,20,2020-09-03_17h20.46.569,CDT_GNG_IUS12,2020.1.2,Win32,60,,,,,,,,,,,,,,,,,,,,,,,,,,,,,,,,,,,,,,,,,,,,,,,,,,,,,,,,,,
,,l,1,2.80397,0,1,1,1,1,2,different,4,0.054755847,-0.054755847,orange,1,-0.273779233,0.273779233,magenta,1,0.273779233,0.16426754,yellow,1,-0.273779233,-0.16426754,blue,1,0.273779233,-0.054755847,red,0,-0.273779233,0.054755847,cyan,0,0.05,0.05,0.15,-0.273779233,-0.16426754,black,l,99042,20,2020-09-03_17h20.46.569,CDT_GNG_IUS12,2020.1.2,Win32,60,,,,,,,,,,,,,,,,,,,,,,,,,,,,,,,,,,,,,,,,,,,,,,,,,,,,,,,,,,
,,l,0,2.25224,0,2,2,2,1,3,same,6,-0.054755847,0.273779233,green,1,0.273779233,-0.273779233,magenta,1,0.273779233,0.16426754,cyan,1,-0.054755847,-0.054755847,black,1,-0.273779233,0.16426754,orange,1,0.16426754,-0.054755847,blue,1,0.05,0.05,0.15,-0.054755847,0.273779233,green,k,99042,20,2020-09-03_17h20.46.569,CDT_GNG_IUS12,2020.1.2,Win32,60,,,,,,,,,,,,,,,,,,,,,,,,,,,,,,,,,,,,,,,,,,,,,,,,,,,,,,,,,,
,,l,1,2.00297,0,3,3,3,1,4,different,6,0.16426754,-0.054755847,orange,1,-0.054755847,0.273779233,red,1,0.273779233,0.273779233,green,1,-0.054755847,-0.273779233,yellow,1,0.273779233,-0.054755847,blue,1,-0.16426754,0.16426754,black,1,0.05,0.05,0.15,0.273779233,0.273779233,cyan,l,99042,20,2020-09-03_17h20.46.569,CDT_GNG_IUS12,2020.1.2,Win32,60,,,,,,,,,,,,,,,,,,,,,,,,,,,,,,,,,,,,,,,,,,,,,,,,,,,,,,,,,,
,,,,,,,,,,42,different,4,0.273779233,0.16426754,cyan,1,-0.054755847,0.16426754,magenta,1,0.16426754,-0.054755847,green,1,-0.16426754,-0.16426754,red,1,0.16426754,0.273779233,black,0,-0.054755847,0.273779233,yellow,0,0.05,0.05,0.15,0.273779233,0.16426754,blue,l,99042,20,2020-09-03_17h20.46.569,CDT_GNG_IUS12,2020.1.2,Win32,60,,l,1,1.20095,0,0,0,41,1,,,,,,,,,,,,,,,,,,,,,,,,,,,,,,,,,,,,,,,,,,,,,,,,,
,,,,,,,,,,12,same,4,0.054755847,0.054755847,blue,1,-0.273779233,-0.054755847,magenta,1,-0.054755847,0.273779233,black,1,0.16426754,-0.16426754,green,1,0.16426754,0.16426754,yellow,0,-0.16426754,-0.054755847,orange,0,0.05,0.05,0.15,0.054755847,0.054755847,blue,k,99042,20,2020-09-03_17h20.46.569,CDT_GNG_IUS12,2020.1.2,Win32,60,,k,1,1.404125,0,1,1,11,1,,,,,,,,,,,,,,,,,,,,,,,,,,,,,,,,,,,,,,,,,,,,,,,,,
,,,,,,,,,,1,same,4,-0.16426754,-0.273779233,orange,1,0.054755847,0.16426754,yellow,1,-0.16426754,0.16426754,green,1,0.054755847,-0.054755847,red,1,-0.273779233,-0.16426754,cyan,0,0.16426754,0.16426754,blue,0,0.05,0.05,0.15,0.054755847,0.16426754,yellow,k,99042,20,2020-09-03_17h20.46.569,CDT_GNG_IUS12,2020.1.2,Win32,60,,k,1,0.86995,0,2,2,0,1,,,,,,,,,,,,,,,,,,,,,,,,,,,,,,,,,,,,,,,,,,,,,,,,,
,,,,,,,,,,111,different,6,0.273779233,0.273779233,green,1,0.054755847,-0.16426754,red,1,-0.16426754,-0.16426754,black,1,-0.16426754,0.16426754,magenta,1,0.054755847,0.054755847,blue,1,0.273779233,-0.16426754,yellow,1,0.05,0.05,0.15,0.273779233,-0.16426754,green,l,99042,20,2020-09-03_17h20.46.569,CDT_GNG_IUS12,2020.1.2,Win32,60,,l,1,1.40894,0,3,3,110,1,,,,,,,,,,,,,,,,,,,,,,,,,,,,,,,,,,,,,,,,,,,,,,,,,
,,,,,,,,,,108,different,6,-0.273779233,-0.054755847,magenta,1,0.054755847,0.16426754,red,1,-0.16426754,0.054755847,cyan,1,0.054755847,-0.273779233,green,1,-0.273779233,-0.16426754,orange,1,0.273779233,0.273779233,black,1,0.05,0.05,0.15,-0.273779233,-0.054755847,blue,l,99042,20,2020-09-03_17h20.46.569,CDT_GNG_IUS12,2020.1.2,Win32,60,,l,1,1.433235,0,4,4,107,1,,,,,,,,,,,,,,,,,,,,,,,,,,,,,,,,,,,,,,,,,,,,,,,,,
,,,,,,,,,,77,same,6,0.273779233,0.273779233,black,1,-0.273779233,-0.16426754,red,1,0.16426754,-0.054755847,magenta,1,-0.054755847,0.16426754,cyan,1,0.16426754,0.273779233,orange,1,-0.16426754,-0.273779233,blue,1,0.05,0.05,0.15,-0.273779233,-0.16426754,red,k,99042,20,2020-09-03_17h20.46.569,CDT_GNG_IUS12,2020.1.2,Win32,60,,l,0,2.149615,0,5,5,76,1,,,,,,,,,,,,,,,,,,,,,,,,,,,,,,,,,,,,,,,,,,,,,,,,,
,,,,,,,,,,41,different,4,0.054755847,-0.273779233,orange,1,-0.273779233,0.054755847,blue,1,-0.054755847,-0.16426754,yellow,1,0.273779233,0.16426754,red,1,0.273779233,-0.273779233,black,0,-0.273779233,0.273779233,magenta,0,0.05,0.05,0.15,-0.054755847,-0.16426754,black,l,99042,20,2020-09-03_17h20.46.569,CDT_GNG_IUS12,2020.1.2,Win32,60,,l,1,1.134175,0,6,6,40,1,,,,,,,,,,,,,,,,,,,,,,,,,,,,,,,,,,,,,,,,,,,,,,,,,
,,,,,,,,,,91,different,6,-0.054755847,0.054755847,green,1,0.054755847,-0.16426754,cyan,1,-0.054755847,-0.054755847,black,1,0.16426754,0.273779233,yellow,1,-0.273779233,0.273779233,magenta,1,0.16426754,-0.054755847,red,1,0.05,0.05,0.15,0.16426754,-0.054755847,green,l,99042,20,2020-09-03_17h20.46.569,CDT_GNG_IUS12,2020.1.2,Win32,60,,l,1,0.83436,0,7,7,90,1,,,,,,,,,,,,,,,,,,,,,,,,,,,,,,,,,,,,,,,,,,,,,,,,,
,,,,,,,,,,110,different,6,-0.273779233,0.273779233,black,1,0.273779233,-0.16426754,red,1,0.054755847,0.273779233,cyan,1,-0.273779233,-0.16426754,orange,1,-0.054755847,0.054755847,magenta,1,0.16426754,-0.054755847,yellow,1,0.05,0.05,0.15,0.273779233,-0.16426754,yellow,l,99042,20,2020-09-03_17h20.46.569,CDT_GNG_IUS12,2020.1.2,Win32,60,,k,0,2.152875,0,8,8,109,1,,,,,,,,,,,,,,,,,,,,,,,,,,,,,,,,,,,,,,,,,,,,,,,,,
,,,,,,,,,,103,different,6,-0.273779233,-0.16426754,black,1,0.273779233,-0.054755847,cyan,1,0.054755847,0.273779233,magenta,1,-0.054755847,0.16426754,orange,1,-0.16426754,-0.16426754,green,1,0.273779233,-0.16426754,red,1,0.05,0.05,0.15,-0.273779233,-0.16426754,blue,l,99042,20,2020-09-03_17h20.46.569,CDT_GNG_IUS12,2020.1.2,Win32,60,,l,1,0.81539,0,9,9,102,1,,,,,,,,,,,,,,,,,,,,,,,,,,,,,,,,,,,,,,,,,,,,,,,,,
,,,,,,,,,,33,different,4,-0.273779233,0.273779233,yellow,1,0.16426754,-0.16426754,cyan,1,-0.273779233,-0.273779233,black,1,0.054755847,0.273779233,blue,1,-0.16426754,0.273779233,green,0,0.054755847,-0.273779233,orange,0,0.05,0.05,0.15,-0.273779233,-0.273779233,cyan,l,99042,20,2020-09-03_17h20.46.569,CDT_GNG_IUS12,2020.1.2,Win32,60,,l,1,0.70599,0,10,10,32,1,,,,,,,,,,,,,,,,,,,,,,,,,,,,,,,,,,,,,,,,,,,,,,,,,
,,,,,,,,,,81,same,6,-0.273779233,-0.273779233,green,1,-0.273779233,0.16426754,blue,1,0.054755847,-0.16426754,black,1,0.273779233,0.054755847,cyan,1,-0.16426754,-0.273779233,orange,1,-0.054755847,0.054755847,red,1,0.05,0.05,0.15,0.054755847,-0.16426754,black,k,99042,20,2020-09-03_17h20.46.569,CDT_GNG_IUS12,2020.1.2,Win32,60,,k,1,0.9844,0,11,11,80,1,,,,,,,,,,,,,,,,,,,,,,,,,,,,,,,,,,,,,,,,,,,,,,,,,
,,,,,,,,,,20,same,4,0.273779233,0.054755847,magenta,1,0.054755847,-0.273779233,black,1,-0.054755847,0.16426754,blue,1,-0.273779233,-0.054755847,orange,1,0.054755847,0.054755847,red,0,0.054755847,-0.054755847,cyan,0,0.05,0.05,0.15,-0.054755847,0.16426754,blue,k,99042,20,2020-09-03_17h20.46.569,CDT_GNG_IUS12,2020.1.2,Win32,60,,l,0,0.669995,0,12,12,19,1,,,,,,,,,,,,,,,,,,,,,,,,,,,,,,,,,,,,,,,,,,,,,,,,,
,,,,,,,,,,80,same,6,-0.273779233,0.16426754,orange,1,0.054755847,-0.273779233,yellow,1,0.054755847,0.273779233,green,1,-0.16426754,-0.273779233,red,1,-0.16426754,0.273779233,blue,1,0.273779233,-0.16426754,black,1,0.05,0.05,0.15,0.054755847,-0.273779233,yellow,k,99042,20,2020-09-03_17h20.46.569,CDT_GNG_IUS12,2020.1.2,Win32,60,,l,0,3.070545,0,13,13,79,1,,,,,,,,,,,,,,,,,,,,,,,,,,,,,,,,,,,,,,,,,,,,,,,,,
,,,,,,,,,,38,different,4,0.273779233,-0.16426754,red,1,-0.054755847,0.16426754,blue,1,-0.273779233,-0.054755847,green,1,0.273779233,0.054755847,cyan,1,0.16426754,-0.054755847,orange,0,-0.054755847,0.054755847,yellow,0,0.05,0.05,0.15,0.273779233,0.054755847,black,l,99042,20,2020-09-03_17h20.46.569,CDT_GNG_IUS12,2020.1.2,Win32,60,,l,1,0.93846,0,14,14,37,1,,,,,,,,,,,,,,,,,,,,,,,,,,,,,,,,,,,,,,,,,,,,,,,,,
,,,,,,,,,,23,same,4,0.273779233,-0.16426754,yellow,1,0.054755847,0.273779233,red,1,-0.054755847,0.054755847,black,1,-0.273779233,-0.054755847,orange,1,0.273779233,-0.054755847,green,0,0.273779233,0.054755847,magenta,0,0.05,0.05,0.15,-0.054755847,0.054755847,black,k,99042,20,2020-09-03_17h20.46.569,CDT_GNG_IUS12,2020.1.2,Win32,60,,k,1,0.73292,0,15,15,22,1,,,,,,,,,,,,,,,,,,,,,,,,,,,,,,,,,,,,,,,,,,,,,,,,,
,,,,,,,,,,109,different,6,-0.273779233,-0.16426754,blue,1,0.054755847,-0.16426754,black,1,-0.054755847,0.054755847,cyan,1,0.054755847,0.16426754,green,1,-0.054755847,-0.054755847,yellow,1,0.16426754,-0.273779233,orange,1,0.05,0.05,0.15,-0.273779233,-0.16426754,green,l,99042,20,2020-09-03_17h20.46.569,CDT_GNG_IUS12,2020.1.2,Win32,60,,l,1,1.085505,0,16,16,108,1,,,,,,,,,,,,,,,,,,,,,,,,,,,,,,,,,,,,,,,,,,,,,,,,,
,,,,,,,,,,78,same,6,0.054755847,0.054755847,black,1,-0.054755847,0.16426754,red,1,0.273779233,-0.273779233,blue,1,-0.054755847,-0.054755847,magenta,1,0.16426754,0.054755847,yellow,1,-0.273779233,0.16426754,cyan,1,0.05,0.05,0.15,-0.054755847,0.16426754,red,k,99042,20,2020-09-03_17h20.46.569,CDT_GNG_IUS12,2020.1.2,Win32,60,,k,1,2.2654,0,17,17,77,1,,,,,,,,,,,,,,,,,,,,,,,,,,,,,,,,,,,,,,,,,,,,,,,,,
,,,,,,,,,,43,different,4,-0.16426754,-0.054755847,red,1,0.273779233,0.054755847,cyan,1,-0.16426754,0.054755847,orange,1,0.054755847,-0.054755847,blue,1,-0.054755847,-0.273779233,magenta,0,0.273779233,0.273779233,yellow,0,0.05,0.05,0.15,-0.16426754,-0.054755847,yellow,l,99042,20,2020-09-03_17h20.46.569,CDT_GNG_IUS12,2020.1.2,Win32,60,,l,1,0.69106,0,18,18,42,1,,,,,,,,,,,,,,,,,,,,,,,,,,,,,,,,,,,,,,,,,,,,,,,,,
,,,,,,,,,,104,different,6,0.054755847,-0.16426754,magenta,1,0.273779233,0.273779233,yellow,1,-0.273779233,0.273779233,blue,1,-0.16426754,-0.054755847,cyan,1,0.16426754,-0.054755847,orange,1,0.273779233,0.16426754,green,1,0.05,0.05,0.15,0.054755847,-0.16426754,cyan,l,99042,20,2020-09-03_17h20.46.569,CDT_GNG_IUS12,2020.1.2,Win32,60,,l,1,0.70652,0,19,19,103,1,,,,,,,,,,,,,,,,,,,,,,,,,,,,,,,,,,,,,,,,,,,,,,,,,
,,,,,,,,,,76,same,6,0.16426754,0.054755847,cyan,1,0.273779233,-0.273779233,red,1,-0.054755847,-0.273779233,magenta,1,-0.054755847,0.16426754,yellow,1,0.054755847,0.273779233,blue,1,0.054755847,-0.273779233,green,1,0.05,0.05,0.15,0.16426754,0.054755847,cyan,k,99042,20,2020-09-03_17h20.46.569,CDT_GNG_IUS12,2020.1.2,Win32,60,,k,1,0.70219,0,20,20,75,1,,,,,,,,,,,,,,,,,,,,,,,,,,,,,,,,,,,,,,,,,,,,,,,,,
,,,,,,,,,,62,same,6,0.054755847,-0.054755847,yellow,1,-0.273779233,-0.16426754,green,1,0.273779233,0.054755847,orange,1,-0.16426754,0.054755847,cyan,1,0.054755847,-0.273779233,red,1,-0.054755847,-0.054755847,blue,1,0.05,0.05,0.15,0.054755847,-0.054755847,yellow,k,99042,20,2020-09-03_17h20.46.569,CDT_GNG_IUS12,2020.1.2,Win32,60,,l,0,1.44979,0,21,21,61,1,,,,,,,,,,,,,,,,,,,,,,,,,,,,,,,,,,,,,,,,,,,,,,,,,
,,,,,,,,,,106,different,6,0.054755847,-0.16426754,blue,1,-0.273779233,-0.273779233,magenta,1,0.273779233,0.273779233,yellow,1,-0.273779233,0.054755847,orange,1,0.054755847,-0.054755847,green,1,-0.054755847,-0.16426754,black,1,0.05,0.05,0.15,0.054755847,-0.054755847,cyan,l,99042,20,2020-09-03_17h20.46.569,CDT_GNG_IUS12,2020.1.2,Win32,60,,l,1,0.758365,0,22,22,105,1,,,,,,,,,,,,,,,,,,,,,,,,,,,,,,,,,,,,,,,,,,,,,,,,,
,,,,,,,,,,55,different,4,0.273779233,0.054755847,yellow,1,0.054755847,-0.16426754,green,1,-0.273779233,-0.16426754,orange,1,-0.273779233,0.273779233,blue,1,0.273779233,0.273779233,red,0,0.273779233,-0.16426754,cyan,0,0.05,0.05,0.15,0.054755847,-0.16426754,red,l,99042,20,2020-09-03_17h20.46.569,CDT_GNG_IUS12,2020.1.2,Win32,60,,l,1,0.699935,0,23,23,54,1,,,,,,,,,,,,,,,,,,,,,,,,,,,,,,,,,,,,,,,,,,,,,,,,,
,,,,,,,,,,32,different,4,-0.054755847,-0.273779233,green,1,-0.273779233,0.16426754,black,1,0.16426754,0.16426754,cyan,1,0.273779233,-0.16426754,yellow,1,-0.054755847,-0.054755847,blue,0,-0.054755847,0.273779233,orange,0,0.05,0.05,0.15,-0.054755847,-0.273779233,red,l,99042,20,2020-09-03_17h20.46.569,CDT_GNG_IUS12,2020.1.2,Win32,60,,l,1,0.96636,0,24,24,31,1,,,,,,,,,,,,,,,,,,,,,,,,,,,,,,,,,,,,,,,,,,,,,,,,,
,,,,,,,,,,63,same,6,-0.273779233,0.273779233,red,1,-0.273779233,-0.16426754,orange,1,0.054755847,-0.273779233,black,1,0.16426754,0.16426754,cyan,1,-0.054755847,0.054755847,blue,1,-0.273779233,-0.054755847,magenta,1,0.05,0.05,0.15,-0.273779233,-0.054755847,magenta,k,99042,20,2020-09-03_17h20.46.569,CDT_GNG_IUS12,2020.1.2,Win32,60,,k,1,1.18557,0,25,25,62,1,,,,,,,,,,,,,,,,,,,,,,,,,,,,,,,,,,,,,,,,,,,,,,,,,
,,,,,,,,,,44,different,4,0.16426754,0.16426754,green,1,0.16426754,-0.16426754,black,1,-0.16426754,-0.054755847,cyan,1,-0.16426754,0.054755847,magenta,1,0.16426754,0.054755847,blue,0,0.054755847,-0.273779233,yellow,0,0.05,0.05,0.15,0.16426754,0.16426754,red,l,99042,20,2020-09-03_17h20.46.569,CDT_GNG_IUS12,2020.1.2,Win32,60,,l,1,0.63324,0,26,26,43,1,,,,,,,,,,,,,,,,,,,,,,,,,,,,,,,,,,,,,,,,,,,,,,,,,
,,,,,,,,,,64,same,6,0.16426754,0.273779233,black,1,-0.16426754,-0.16426754,orange,1,0.16426754,-0.16426754,red,1,-0.273779233,0.054755847,magenta,1,0.054755847,0.16426754,cyan,1,-0.054755847,-0.16426754,yellow,1,0.05,0.05,0.15,0.16426754,0.273779233,black,k,99042,20,2020-09-03_17h20.46.569,CDT_GNG_IUS12,2020.1.2,Win32,60,,k,1,1.52617,0,27,27,63,1,,,,,,,,,,,,,,,,,,,,,,,,,,,,,,,,,,,,,,,,,,,,,,,,,
,,,,,,,,,,82,same,6,-0.054755847,-0.16426754,red,1,0.273779233,-0.054755847,cyan,1,0.16426754,0.273779233,blue,1,-0.054755847,0.054755847,black,1,-0.16426754,-0.16426754,yellow,1,0.273779233,-0.16426754,green,1,0.05,0.05,0.15,-0.16426754,-0.16426754,yellow,k,99042,20,2020-09-03_17h20.46.569,CDT_GNG_IUS12,2020.1.2,Win32,60,,l,0,1.08093,0,28,28,81,1,,,,,,,,,,,,,,,,,,,,,,,,,,,,,,,,,,,,,,,,,,,,,,,,,
,,,,,,,,,,79,same,6,0.054755847,-0.16426754,black,1,-0.054755847,-0.273779233,yellow,1,-0.273779233,0.273779233,red,1,0.054755847,0.054755847,magenta,1,0.16426754,-0.054755847,cyan,1,-0.16426754,-0.054755847,orange,1,0.05,0.05,0.15,0.054755847,0.054755847,magenta,k,99042,20,2020-09-03_17h20.46.569,CDT_GNG_IUS12,2020.1.2,Win32,60,,k,1,0.96611,0,29,29,78,1,,,,,,,,,,,,,,,,,,,,,,,,,,,,,,,,,,,,,,,,,,,,,,,,,
,,,,,,,,,,17,same,4,0.16426754,0.273779233,yellow,1,-0.054755847,0.16426754,orange,1,0.273779233,-0.054755847,cyan,1,-0.273779233,-0.054755847,green,1,0.16426754,0.16426754,blue,0,-0.054755847,0.273779233,magenta,0,0.05,0.05,0.15,0.16426754,0.273779233,yellow,k,99042,20,2020-09-03_17h20.46.569,CDT_GNG_IUS12,2020.1.2,Win32,60,,k,1,1.45333,0,30,30,16,1,,,,,,,,,,,,,,,,,,,,,,,,,,,,,,,,,,,,,,,,,,,,,,,,,
,,,,,,,,,,45,different,4,0.054755847,0.16426754,blue,1,-0.054755847,-0.273779233,magenta,1,-0.16426754,0.16426754,black,1,0.054755847,-0.16426754,orange,1,0.273779233,0.273779233,green,0,-0.273779233,-0.16426754,cyan,0,0.05,0.05,0.15,-0.16426754,0.16426754,magenta,l,99042,20,2020-09-03_17h20.46.569,CDT_GNG_IUS12,2020.1.2,Win32,60,,l,1,0.758655,0,31,31,44,1,,,,,,,,,,,,,,,,,,,,,,,,,,,,,,,,,,,,,,,,,,,,,,,,,
,,,,,,,,,,18,same,4,-0.054755847,0.273779233,black,1,-0.16426754,-0.16426754,cyan,1,0.054755847,0.16426754,red,1,0.273779233,-0.273779233,magenta,1,-0.16426754,0.273779233,orange,0,-0.054755847,-0.273779233,green,0,0.05,0.05,0.15,0.273779233,-0.273779233,magenta,k,99042,20,2020-09-03_17h20.46.569,CDT_GNG_IUS12,2020.1.2,Win32,60,,k,1,1.11612,0,32,32,17,1,,,,,,,,,,,,,,,,,,,,,,,,,,,,,,,,,,,,,,,,,,,,,,,,,
,,,,,,,,,,70,same,6,0.16426754,0.16426754,cyan,1,0.273779233,-0.273779233,red,1,-0.16426754,0.16426754,yellow,1,-0.273779233,-0.273779233,green,1,0.16426754,0.054755847,magenta,1,0.16426754,-0.054755847,blue,1,0.05,0.05,0.15,0.273779233,-0.273779233,red,k,99042,20,2020-09-03_17h20.46.569,CDT_GNG_IUS12,2020.1.2,Win32,60,,l,0,0.83329,0,33,33,69,1,,,,,,,,,,,,,,,,,,,,,,,,,,,,,,,,,,,,,,,,,,,,,,,,,
,,,,,,,,,,84,same,6,-0.273779233,-0.16426754,black,1,0.273779233,0.273779233,blue,1,-0.054755847,0.054755847,red,1,0.16426754,-0.054755847,orange,1,-0.16426754,-0.16426754,cyan,1,0.16426754,0.16426754,magenta,1,0.05,0.05,0.15,-0.16426754,-0.16426754,cyan,k,99042,20,2020-09-03_17h20.46.569,CDT_GNG_IUS12,2020.1.2,Win32,60,,l,0,0.949865,0,34,34,83,1,,,,,,,,,,,,,,,,,,,,,,,,,,,,,,,,,,,,,,,,,,,,,,,,,
,,,,,,,,,,57,different,4,-0.273779233,-0.054755847,yellow,1,0.16426754,-0.054755847,green,1,-0.273779233,0.16426754,red,1,0.273779233,0.054755847,black,1,-0.16426754,-0.054755847,orange,0,0.054755847,-0.16426754,magenta,0,0.05,0.05,0.15,0.16426754,-0.054755847,orange,l,99042,20,2020-09-03_17h20.46.569,CDT_GNG_IUS12,2020.1.2,Win32,60,,l,1,0.74576,0,35,35,56,1,,,,,,,,,,,,,,,,,,,,,,,,,,,,,,,,,,,,,,,,,,,,,,,,,
,,,,,,,,,,4,same,4,0.16426754,-0.16426754,black,1,-0.054755847,0.16426754,yellow,1,0.16426754,0.16426754,blue,1,-0.16426754,-0.16426754,green,1,0.054755847,-0.16426754,magenta,0,-0.054755847,0.273779233,orange,0,0.05,0.05,0.15,0.16426754,-0.16426754,black,k,99042,20,2020-09-03_17h20.46.569,CDT_GNG_IUS12,2020.1.2,Win32,60,,k,1,0.64378,0,36,36,3,1,,,,,,,,,,,,,,,,,,,,,,,,,,,,,,,,,,,,,,,,,,,,,,,,,
,,,,,,,,,,53,different,4,-0.16426754,0.054755847,green,1,0.273779233,0.054755847,cyan,1,-0.273779233,-0.273779233,magenta,1,0.054755847,-0.16426754,black,1,-0.054755847,0.16426754,red,0,0.273779233,0.273779233,blue,0,0.05,0.05,0.15,-0.273779233,-0.273779233,black,l,99042,20,2020-09-03_17h20.46.569,CDT_GNG_IUS12,2020.1.2,Win32,60,,l,1,0.67058,0,37,37,52,1,,,,,,,,,,,,,,,,,,,,,,,,,,,,,,,,,,,,,,,,,,,,,,,,,
,,,,,,,,,,102,different,6,-0.273779233,-0.273779233,magenta,1,0.054755847,0.16426754,green,1,0.16426754,-0.273779233,yellow,1,-0.16426754,0.054755847,orange,1,-0.16426754,-0.273779233,red,1,0.273779233,0.054755847,cyan,1,0.05,0.05,0.15,-0.273779233,-0.273779233,yellow,l,99042,20,2020-09-03_17h20.46.569,CDT_GNG_IUS12,2020.1.2,Win32,60,,l,1,1.00355,0,38,38,101,1,,,,,,,,,,,,,,,,,,,,,,,,,,,,,,,,,,,,,,,,,,,,,,,,,
,,,,,,,,,,119,different,6,-0.273779233,0.054755847,cyan,1,-0.273779233,-0.273779233,blue,1,0.16426754,0.054755847,orange,1,0.054755847,-0.16426754,yellow,1,-0.273779233,0.273779233,black,1,-0.054755847,-0.054755847,green,1,0.05,0.05,0.15,-0.273779233,-0.273779233,cyan,l,99042,20,2020-09-03_17h20.46.569,CDT_GNG_IUS12,2020.1.2,Win32,60,,l,1,1.22537,0,39,39,118,1,,,,,,,,,,,,,,,,,,,,,,,,,,,,,,,,,,,,,,,,,,,,,,,,,
,,,,,,,,,,74,same,6,-0.273779233,-0.273779233,magenta,1,0.16426754,0.054755847,cyan,1,-0.16426754,0.273779233,black,1,0.273779233,-0.054755847,yellow,1,-0.16426754,-0.16426754,red,1,0.054755847,0.273779233,green,1,0.05,0.05,0.15,-0.16426754,-0.16426754,red,k,99042,20,2020-09-03_17h20.46.569,CDT_GNG_IUS12,2020.1.2,Win32,60,,l,0,0.800315,0,40,40,73,1,,,,,,,,,,,,,,,,,,,,,,,,,,,,,,,,,,,,,,,,,,,,,,,,,
,,,,,,,,,,30,same,4,0.16426754,0.16426754,blue,1,0.054755847,-0.054755847,green,1,-0.273779233,-0.16426754,black,1,-0.054755847,0.273779233,yellow,1,0.16426754,0.273779233,red,0,0.16426754,-0.16426754,magenta,0,0.05,0.05,0.15,0.054755847,-0.054755847,green,k,99042,20,2020-09-03_17h20.46.569,CDT_GNG_IUS12,2020.1.2,Win32,60,,k,1,1.17183,0,41,41,29,1,,,,,,,,,,,,,,,,,,,,,,,,,,,,,,,,,,,,,,,,,,,,,,,,,
,,,,,,,,,,8,same,4,0.16426754,-0.16426754,blue,1,-0.16426754,-0.054755847,red,1,-0.273779233,0.16426754,green,1,0.054755847,0.054755847,cyan,1,0.16426754,-0.273779233,magenta,0,-0.054755847,-0.054755847,orange,0,0.05,0.05,0.15,-0.273779233,0.16426754,green,k,99042,20,2020-09-03_17h20.46.569,CDT_GNG_IUS12,2020.1.2,Win32,60,,l,0,1.246615,0,42,42,7,1,,,,,,,,,,,,,,,,,,,,,,,,,,,,,,,,,,,,,,,,,,,,,,,,,
,,,,,,,,,,66,same,6,0.273779233,-0.273779233,cyan,1,-0.273779233,-0.054755847,black,1,-0.273779233,0.054755847,yellow,1,0.273779233,0.16426754,green,1,0.054755847,-0.16426754,orange,1,-0.273779233,-0.16426754,magenta,1,0.05,0.05,0.15,0.273779233,0.16426754,green,k,99042,20,2020-09-03_17h20.46.569,CDT_GNG_IUS12,2020.1.2,Win32,60,,k,1,1.25395,0,43,43,65,1,,,,,,,,,,,,,,,,,,,,,,,,,,,,,,,,,,,,,,,,,,,,,,,,,
,,,,,,,,,,107,different,6,0.273779233,0.16426754,cyan,1,-0.16426754,-0.273779233,magenta,1,-0.054755847,0.054755847,black,1,0.16426754,-0.054755847,blue,1,0.16426754,0.054755847,green,1,-0.273779233,-0.16426754,yellow,1,0.05,0.05,0.15,0.16426754,0.054755847,blue,l,99042,20,2020-09-03_17h20.46.569,CDT_GNG_IUS12,2020.1.2,Win32,60,,l,1,0.723165,0,44,44,106,1,,,,,,,,,,,,,,,,,,,,,,,,,,,,,,,,,,,,,,,,,,,,,,,,,
,,,,,,,,,,5,same,4,0.273779233,-0.054755847,green,1,0.273779233,0.054755847,orange,1,-0.054755847,0.054755847,black,1,-0.054755847,-0.16426754,blue,1,0.054755847,-0.054755847,cyan,0,0.054755847,0.273779233,red,0,0.05,0.05,0.15,-0.054755847,-0.16426754,blue,k,99042,20,2020-09-03_17h20.46.569,CDT_GNG_IUS12,2020.1.2,Win32,60,,k,1,1.120065,0,45,45,4,1,,,,,,,,,,,,,,,,,,,,,,,,,,,,,,,,,,,,,,,,,,,,,,,,,
,,,,,,,,,,93,different,6,-0.16426754,0.16426754,red,1,0.054755847,-0.054755847,black,1,-0.054755847,-0.16426754,blue,1,0.054755847,0.273779233,magenta,1,-0.054755847,0.054755847,orange,1,0.16426754,-0.054755847,cyan,1,0.05,0.05,0.15,-0.054755847,-0.16426754,black,l,99042,20,2020-09-03_17h20.46.569,CDT_GNG_IUS12,2020.1.2,Win32,60,,l,1,0.846265,0,46,46,92,1,,,,,,,,,,,,,,,,,,,,,,,,,,,,,,,,,,,,,,,,,,,,,,,,,
,,,,,,,,,,98,different,6,-0.054755847,-0.16426754,magenta,1,0.273779233,0.273779233,green,1,0.273779233,-0.273779233,red,1,-0.16426754,0.273779233,blue,1,-0.273779233,-0.16426754,cyan,1,0.273779233,0.054755847,black,1,0.05,0.05,0.15,-0.16426754,0.273779233,cyan,l,99042,20,2020-09-03_17h20.46.569,CDT_GNG_IUS12,2020.1.2,Win32,60,,l,1,1.236235,0,47,47,97,1,,,,,,,,,,,,,,,,,,,,,,,,,,,,,,,,,,,,,,,,,,,,,,,,,
,,,,,,,,,,37,different,4,0.273779233,-0.273779233,cyan,1,-0.054755847,0.054755847,orange,1,-0.054755847,-0.16426754,yellow,1,0.16426754,0.054755847,blue,1,0.054755847,-0.273779233,red,0,-0.273779233,0.16426754,green,0,0.05,0.05,0.15,-0.054755847,0.054755847,green,l,99042,20,2020-09-03_17h20.46.569,CDT_GNG_IUS12,2020.1.2,Win32,60,,l,1,1.08642,0,48,48,36,1,,,,,,,,,,,,,,,,,,,,,,,,,,,,,,,,,,,,,,,,,,,,,,,,,
,,,,,,,,,,29,same,4,0.273779233,0.054755847,magenta,1,-0.054755847,0.273779233,cyan,1,0.16426754,-0.054755847,green,1,-0.16426754,-0.054755847,black,1,0.273779233,0.16426754,orange,0,-0.16426754,0.054755847,blue,0,0.05,0.05,0.15,0.16426754,-0.054755847,green,k,99042,20,2020-09-03_17h20.46.569,CDT_GNG_IUS12,2020.1.2,Win32,60,,l,0,4.384935,0,49,49,28,1,,,,,,,,,,,,,,,,,,,,,,,,,,,,,,,,,,,,,,,,,,,,,,,,,
,,,,,,,,,,118,different,6,-0.16426754,-0.16426754,red,1,0.273779233,0.16426754,orange,1,-0.16426754,0.273779233,cyan,1,0.16426754,-0.273779233,black,1,-0.054755847,-0.054755847,yellow,1,0.054755847,0.054755847,green,1,0.05,0.05,0.15,-0.054755847,-0.054755847,magenta,l,99042,20,2020-09-03_17h20.46.569,CDT_GNG_IUS12,2020.1.2,Win32,60,,l,1,0.939665,0,50,50,117,1,,,,,,,,,,,,,,,,,,,,,,,,,,,,,,,,,,,,,,,,,,,,,,,,,
,,,,,,,,,,49,different,4,-0.16426754,-0.273779233,black,1,0.16426754,0.16426754,red,1,-0.273779233,0.16426754,yellow,1,0.054755847,-0.273779233,green,1,-0.273779233,-0.273779233,magenta,0,0.054755847,0.273779233,blue,0,0.05,0.05,0.15,0.054755847,-0.273779233,orange,l,99042,20,2020-09-03_17h20.46.569,CDT_GNG_IUS12,2020.1.2,Win32,60,,l,1,0.8373,0,51,51,48,1,,,,,,,,,,,,,,,,,,,,,,,,,,,,,,,,,,,,,,,,,,,,,,,,,
,,,,,,,,,,25,same,4,0.16426754,-0.273779233,green,1,-0.16426754,-0.273779233,black,1,0.16426754,0.054755847,cyan,1,-0.273779233,0.273779233,blue,1,0.054755847,-0.273779233,yellow,0,-0.273779233,-0.273779233,red,0,0.05,0.05,0.15,-0.273779233,0.273779233,blue,k,99042,20,2020-09-03_17h20.46.569,CDT_GNG_IUS12,2020.1.2,Win32,60,,k,1,0.904965,0,52,52,24,1,,,,,,,,,,,,,,,,,,,,,,,,,,,,,,,,,,,,,,,,,,,,,,,,,
,,,,,,,,,,112,different,6,-0.273779233,-0.16426754,magenta,1,-0.054755847,0.054755847,orange,1,0.054755847,0.273779233,cyan,1,0.16426754,-0.273779233,yellow,1,-0.273779233,-0.273779233,black,1,-0.16426754,0.054755847,red,1,0.05,0.05,0.15,-0.16426754,0.054755847,orange,l,99042,20,2020-09-03_17h20.46.569,CDT_GNG_IUS12,2020.1.2,Win32,60,,l,1,0.669965,0,53,53,111,1,,,,,,,,,,,,,,,,,,,,,,,,,,,,,,,,,,,,,,,,,,,,,,,,,
,,,,,,,,,,56,different,4,0.16426754,0.054755847,red,1,-0.054755847,0.16426754,orange,1,0.16426754,-0.16426754,black,1,-0.273779233,-0.054755847,yellow,1,0.16426754,0.273779233,blue,0,-0.054755847,0.273779233,magenta,0,0.05,0.05,0.15,-0.273779233,-0.054755847,green,l,99042,20,2020-09-03_17h20.46.569,CDT_GNG_IUS12,2020.1.2,Win32,60,,l,1,0.75558,0,54,54,55,1,,,,,,,,,,,,,,,,,,,,,,,,,,,,,,,,,,,,,,,,,,,,,,,,,
,,,,,,,,,,28,same,4,0.16426754,-0.273779233,yellow,1,-0.054755847,0.16426754,black,1,0.16426754,0.054755847,cyan,1,-0.273779233,-0.16426754,blue,1,0.273779233,-0.273779233,orange,0,-0.054755847,0.054755847,magenta,0,0.05,0.05,0.15,-0.054755847,0.16426754,black,k,99042,20,2020-09-03_17h20.46.569,CDT_GNG_IUS12,2020.1.2,Win32,60,,l,0,0.753475,0,55,55,27,1,,,,,,,,,,,,,,,,,,,,,,,,,,,,,,,,,,,,,,,,,,,,,,,,,
,,,,,,,,,,113,different,6,-0.273779233,0.054755847,black,1,-0.16426754,-0.16426754,blue,1,0.054755847,-0.16426754,orange,1,0.16426754,0.16426754,red,1,-0.273779233,0.273779233,green,1,-0.273779233,-0.16426754,magenta,1,0.05,0.05,0.15,-0.273779233,-0.16426754,black,l,99042,20,2020-09-03_17h20.46.569,CDT_GNG_IUS12,2020.1.2,Win32,60,,l,1,1.05374,0,56,56,112,1,,,,,,,,,,,,,,,,,,,,,,,,,,,,,,,,,,,,,,,,,,,,,,,,,
,,,,,,,,,,83,same,6,0.054755847,-0.16426754,cyan,1,-0.16426754,-0.16426754,blue,1,0.273779233,0.054755847,magenta,1,-0.273779233,0.273779233,green,1,0.273779233,-0.16426754,orange,1,-0.054755847,-0.054755847,yellow,1,0.05,0.05,0.15,-0.054755847,-0.054755847,yellow,k,99042,20,2020-09-03_17h20.46.569,CDT_GNG_IUS12,2020.1.2,Win32,60,,k,1,0.836685,0,57,57,82,1,,,,,,,,,,,,,,,,,,,,,,,,,,,,,,,,,,,,,,,,,,,,,,,,,
,,,,,,,,,,36,different,4,-0.16426754,-0.054755847,cyan,1,0.16426754,0.054755847,red,1,0.16426754,-0.054755847,black,1,-0.273779233,0.273779233,orange,1,-0.054755847,-0.054755847,yellow,0,0.273779233,0.273779233,green,0,0.05,0.05,0.15,0.16426754,-0.054755847,orange,l,99042,20,2020-09-03_17h20.46.569,CDT_GNG_IUS12,2020.1.2,Win32,60,,l,1,0.680035,0,58,58,35,1,,,,,,,,,,,,,,,,,,,,,,,,,,,,,,,,,,,,,,,,,,,,,,,,,
,,,,,,,,,,13,same,4,0.16426754,0.273779233,orange,1,0.054755847,-0.273779233,blue,1,-0.054755847,0.054755847,magenta,1,-0.054755847,-0.16426754,black,1,0.054755847,0.16426754,yellow,0,0.16426754,-0.054755847,cyan,0,0.05,0.05,0.15,0.054755847,-0.273779233,blue,k,99042,20,2020-09-03_17h20.46.569,CDT_GNG_IUS12,2020.1.2,Win32,60,s,l,0,2.520805,0,59,59,12,1,3.7496,,,,,,,,,,,,,,,,,,,,,,,,,,,,,,,,,,,,,,,,,,,,,,,,
,,,,,,,,,,115,different,6,-0.16426754,0.273779233,magenta,1,-0.273779233,-0.054755847,blue,1,0.273779233,0.273779233,red,1,0.054755847,-0.273779233,cyan,1,-0.054755847,0.16426754,green,1,-0.273779233,-0.273779233,yellow,1,0.05,0.05,0.15,-0.273779233,-0.054755847,yellow,l,99042,20,2020-09-03_17h20.46.569,CDT_GNG_IUS12,2020.1.2,Win32,60,,l,1,0.82651,0,60,60,114,1,,,,,,,,,,,,,,,,,,,,,,,,,,,,,,,,,,,,,,,,,,,,,,,,,
,,,,,,,,,,86,same,6,0.054755847,0.273779233,green,1,-0.054755847,0.273779233,red,1,0.16426754,-0.16426754,yellow,1,-0.054755847,-0.273779233,black,1,0.273779233,0.273779233,cyan,1,-0.273779233,0.054755847,orange,1,0.05,0.05,0.15,-0.273779233,0.054755847,orange,k,99042,20,2020-09-03_17h20.46.569,CDT_GNG_IUS12,2020.1.2,Win32,60,,k,1,0.643715,0,61,61,85,1,,,,,,,,,,,,,,,,,,,,,,,,,,,,,,,,,,,,,,,,,,,,,,,,,
,,,,,,,,,,19,same,4,-0.054755847,-0.16426754,orange,1,-0.273779233,0.273779233,red,1,0.273779233,0.054755847,yellow,1,0.273779233,-0.16426754,magenta,1,-0.273779233,-0.054755847,black,0,-0.054755847,0.273779233,blue,0,0.05,0.05,0.15,0.273779233,-0.16426754,magenta,k,99042,20,2020-09-03_17h20.46.569,CDT_GNG_IUS12,2020.1.2,Win32,60,,k,1,0.80322,0,62,62,18,1,,,,,,,,,,,,,,,,,,,,,,,,,,,,,,,,,,,,,,,,,,,,,,,,,
,,,,,,,,,,94,different,6,0.273779233,-0.273779233,green,1,-0.16426754,-0.054755847,black,1,-0.273779233,0.16426754,blue,1,0.273779233,0.054755847,cyan,1,0.16426754,-0.16426754,magenta,1,-0.054755847,-0.054755847,orange,1,0.05,0.05,0.15,0.273779233,-0.273779233,magenta,l,99042,20,2020-09-03_17h20.46.569,CDT_GNG_IUS12,2020.1.2,Win32,60,,l,1,1.19596,0,63,63,93,1,,,,,,,,,,,,,,,,,,,,,,,,,,,,,,,,,,,,,,,,,,,,,,,,,
,,,,,,,,,,97,different,6,-0.273779233,-0.273779233,orange,1,0.054755847,-0.273779233,blue,1,0.16426754,0.16426754,green,1,-0.16426754,0.054755847,cyan,1,-0.16426754,-0.16426754,black,1,0.273779233,-0.16426754,yellow,1,0.05,0.05,0.15,-0.16426754,0.054755847,yellow,l,99042,20,2020-09-03_17h20.46.569,CDT_GNG_IUS12,2020.1.2,Win32,60,,l,1,0.710685,0,64,64,96,1,,,,,,,,,,,,,,,,,,,,,,,,,,,,,,,,,,,,,,,,,,,,,,,,,
,,,,,,,,,,68,same,6,0.16426754,-0.054755847,blue,1,-0.054755847,-0.16426754,orange,1,-0.16426754,0.054755847,red,1,0.16426754,0.273779233,magenta,1,0.054755847,-0.054755847,black,1,-0.273779233,-0.273779233,yellow,1,0.05,0.05,0.15,-0.054755847,-0.16426754,orange,k,99042,20,2020-09-03_17h20.46.569,CDT_GNG_IUS12,2020.1.2,Win32,60,,l,0,0.84527,0,65,65,67,1,,,,,,,,,,,,,,,,,,,,,,,,,,,,,,,,,,,,,,,,,,,,,,,,,
,,,,,,,,,,73,same,6,0.054755847,0.16426754,blue,1,-0.273779233,0.273779233,red,1,-0.273779233,-0.16426754,green,1,0.054755847,-0.054755847,orange,1,0.16426754,0.16426754,black,1,-0.054755847,0.16426754,magenta,1,0.05,0.05,0.15,-0.273779233,0.273779233,red,k,99042,20,2020-09-03_17h20.46.569,CDT_GNG_IUS12,2020.1.2,Win32,60,,l,0,1.27387,0,66,66,72,1,,,,,,,,,,,,,,,,,,,,,,,,,,,,,,,,,,,,,,,,,,,,,,,,,
,,,,,,,,,,11,same,4,0.273779233,0.16426754,black,1,-0.054755847,0.273779233,cyan,1,0.16426754,-0.054755847,blue,1,-0.273779233,-0.16426754,orange,1,0.054755847,0.273779233,magenta,0,-0.273779233,0.054755847,green,0,0.05,0.05,0.15,0.273779233,0.16426754,black,k,99042,20,2020-09-03_17h20.46.569,CDT_GNG_IUS12,2020.1.2,Win32,60,,k,1,0.68656,0,67,67,10,1,,,,,,,,,,,,,,,,,,,,,,,,,,,,,,,,,,,,,,,,,,,,,,,,,
,,,,,,,,,,26,same,4,0.16426754,-0.16426754,green,1,-0.054755847,0.16426754,yellow,1,-0.273779233,-0.16426754,black,1,0.054755847,0.054755847,red,1,0.16426754,-0.054755847,cyan,0,-0.273779233,0.273779233,magenta,0,0.05,0.05,0.15,-0.054755847,0.16426754,yellow,k,99042,20,2020-09-03_17h20.46.569,CDT_GNG_IUS12,2020.1.2,Win32,60,,k,1,0.97796,0,68,68,25,1,,,,,,,,,,,,,,,,,,,,,,,,,,,,,,,,,,,,,,,,,,,,,,,,,
,,,,,,,,,,88,same,6,0.054755847,0.054755847,orange,1,0.054755847,-0.273779233,red,1,-0.16426754,-0.16426754,magenta,1,-0.16426754,0.273779233,yellow,1,0.16426754,0.16426754,blue,1,0.273779233,-0.16426754,cyan,1,0.05,0.05,0.15,-0.16426754,0.273779233,yellow,k,99042,20,2020-09-03_17h20.46.569,CDT_GNG_IUS12,2020.1.2,Win32,60,,k,1,0.56768,0,69,69,87,1,,,,,,,,,,,,,,,,,,,,,,,,,,,,,,,,,,,,,,,,,,,,,,,,,
,,,,,,,,,,54,different,4,-0.054755847,-0.054755847,black,1,0.054755847,0.054755847,cyan,1,0.273779233,-0.16426754,green,1,-0.273779233,0.16426754,magenta,1,-0.054755847,-0.16426754,orange,0,0.054755847,0.16426754,blue,0,0.05,0.05,0.15,-0.273779233,0.16426754,orange,l,99042,20,2020-09-03_17h20.46.569,CDT_GNG_IUS12,2020.1.2,Win32,60,,l,1,0.61097,0,70,70,53,1,,,,,,,,,,,,,,,,,,,,,,,,,,,,,,,,,,,,,,,,,,,,,,,,,
,,,,,,,,,,116,different,6,-0.273779233,0.16426754,green,1,-0.054755847,-0.054755847,orange,1,0.273779233,-0.273779233,cyan,1,0.054755847,0.273779233,red,1,-0.054755847,0.16426754,blue,1,-0.16426754,-0.054755847,yellow,1,0.05,0.05,0.15,-0.054755847,-0.054755847,magenta,l,99042,20,2020-09-03_17h20.46.569,CDT_GNG_IUS12,2020.1.2,Win32,60,,l,1,0.79202,0,71,71,115,1,,,,,,,,,,,,,,,,,,,,,,,,,,,,,,,,,,,,,,,,,,,,,,,,,
,,,,,,,,,,22,same,4,-0.054755847,-0.16426754,green,1,-0.16426754,0.054755847,blue,1,0.16426754,0.16426754,yellow,1,0.273779233,-0.054755847,black,1,-0.273779233,-0.054755847,red,0,-0.054755847,0.16426754,cyan,0,0.05,0.05,0.15,0.273779233,-0.054755847,black,k,99042,20,2020-09-03_17h20.46.569,CDT_GNG_IUS12,2020.1.2,Win32,60,,k,1,0.96971,0,72,72,21,1,,,,,,,,,,,,,,,,,,,,,,,,,,,,,,,,,,,,,,,,,,,,,,,,,
,,,,,,,,,,96,different,6,-0.16426754,-0.16426754,green,1,-0.16426754,0.054755847,black,1,0.054755847,0.16426754,cyan,1,0.16426754,-0.273779233,yellow,1,-0.273779233,-0.273779233,blue,1,-0.054755847,0.054755847,red,1,0.05,0.05,0.15,-0.16426754,0.054755847,magenta,l,99042,20,2020-09-03_17h20.46.569,CDT_GNG_IUS12,2020.1.2,Win32,60,,l,1,0.555055,0,73,73,95,1,,,,,,,,,,,,,,,,,,,,,,,,,,,,,,,,,,,,,,,,,,,,,,,,,
,,,,,,,,,,47,different,4,-0.16426754,-0.054755847,orange,1,0.273779233,0.054755847,black,1,-0.16426754,0.16426754,red,1,0.273779233,-0.16426754,blue,1,-0.054755847,-0.273779233,green,0,0.16426754,0.16426754,yellow,0,0.05,0.05,0.15,0.273779233,0.054755847,red,l,99042,20,2020-09-03_17h20.46.569,CDT_GNG_IUS12,2020.1.2,Win32,60,,l,1,0.6626,0,74,74,46,1,,,,,,,,,,,,,,,,,,,,,,,,,,,,,,,,,,,,,,,,,,,,,,,,,
,,,,,,,,,,90,same,6,0.16426754,-0.054755847,black,1,-0.273779233,-0.054755847,orange,1,-0.16426754,0.16426754,cyan,1,0.273779233,0.273779233,blue,1,0.054755847,-0.054755847,magenta,1,-0.273779233,-0.273779233,yellow,1,0.05,0.05,0.15,-0.273779233,-0.054755847,orange,k,99042,20,2020-09-03_17h20.46.569,CDT_GNG_IUS12,2020.1.2,Win32,60,,k,1,0.820955,0,75,75,89,1,,,,,,,,,,,,,,,,,,,,,,,,,,,,,,,,,,,,,,,,,,,,,,,,,
,,,,,,,,,,72,same,6,0.273779233,-0.16426754,blue,1,0.16426754,0.273779233,yellow,1,-0.16426754,0.273779233,magenta,1,-0.273779233,-0.054755847,orange,1,0.054755847,-0.16426754,cyan,1,0.273779233,0.054755847,black,1,0.05,0.05,0.15,-0.16426754,0.273779233,magenta,k,99042,20,2020-09-03_17h20.46.569,CDT_GNG_IUS12,2020.1.2,Win32,60,,k,1,0.61915,0,76,76,71,1,,,,,,,,,,,,,,,,,,,,,,,,,,,,,,,,,,,,,,,,,,,,,,,,,
,,,,,,,,,,35,different,4,-0.054755847,-0.054755847,black,1,0.054755847,0.273779233,magenta,1,-0.273779233,0.054755847,blue,1,0.273779233,-0.054755847,red,1,-0.054755847,-0.16426754,cyan,0,0.054755847,0.054755847,yellow,0,0.05,0.05,0.15,0.054755847,0.273779233,cyan,l,99042,20,2020-09-03_17h20.46.569,CDT_GNG_IUS12,2020.1.2,Win32,60,,l,1,0.72659,0,77,77,34,1,,,,,,,,,,,,,,,,,,,,,,,,,,,,,,,,,,,,,,,,,,,,,,,,,
,,,,,,,,,,39,different,4,0.054755847,0.054755847,green,1,0.273779233,-0.16426754,yellow,1,-0.16426754,0.054755847,orange,1,-0.273779233,-0.054755847,red,1,0.273779233,0.054755847,blue,0,0.054755847,-0.16426754,cyan,0,0.05,0.05,0.15,-0.273779233,-0.054755847,cyan,l,99042,20,2020-09-03_17h20.46.569,CDT_GNG_IUS12,2020.1.2,Win32,60,,l,1,0.703475,0,78,78,38,1,,,,,,,,,,,,,,,,,,,,,,,,,,,,,,,,,,,,,,,,,,,,,,,,,
,,,,,,,,,,87,same,6,0.273779233,0.16426754,green,1,-0.16426754,-0.054755847,black,1,-0.054755847,0.054755847,cyan,1,0.273779233,-0.054755847,blue,1,0.054755847,0.054755847,yellow,1,-0.273779233,-0.273779233,red,1,0.05,0.05,0.15,-0.273779233,-0.273779233,red,k,99042,20,2020-09-03_17h20.46.569,CDT_GNG_IUS12,2020.1.2,Win32,60,,l,0,0.815925,0,79,79,86,1,,,,,,,,,,,,,,,,,,,,,,,,,,,,,,,,,,,,,,,,,,,,,,,,,
,,,,,,,,,,59,different,4,0.16426754,-0.16426754,red,1,-0.054755847,-0.16426754,cyan,1,0.054755847,0.16426754,yellow,1,-0.16426754,0.273779233,green,1,0.16426754,-0.054755847,orange,0,-0.16426754,-0.054755847,black,0,0.05,0.05,0.15,-0.16426754,0.273779233,black,l,99042,20,2020-09-03_17h20.46.569,CDT_GNG_IUS12,2020.1.2,Win32,60,,k,0,1.23659,0,80,80,58,1,,,,,,,,,,,,,,,,,,,,,,,,,,,,,,,,,,,,,,,,,,,,,,,,,
,,,,,,,,,,69,same,6,-0.054755847,-0.054755847,black,1,0.273779233,-0.054755847,orange,1,-0.273779233,0.16426754,blue,1,0.054755847,0.054755847,yellow,1,-0.16426754,-0.16426754,green,1,0.054755847,-0.16426754,magenta,1,0.05,0.05,0.15,-0.16426754,-0.16426754,green,k,99042,20,2020-09-03_17h20.46.569,CDT_GNG_IUS12,2020.1.2,Win32,60,,l,0,0.620095,0,81,81,68,1,,,,,,,,,,,,,,,,,,,,,,,,,,,,,,,,,,,,,,,,,,,,,,,,,
,,,,,,,,,,71,same,6,-0.054755847,-0.16426754,orange,1,0.273779233,0.054755847,green,1,0.16426754,-0.16426754,yellow,1,-0.054755847,0.054755847,blue,1,-0.054755847,-0.273779233,black,1,0.054755847,0.16426754,cyan,1,0.05,0.05,0.15,-0.054755847,0.054755847,blue,k,99042,20,2020-09-03_17h20.46.569,CDT_GNG_IUS12,2020.1.2,Win32,60,,l,0,0.762195,0,82,82,70,1,,,,,,,,,,,,,,,,,,,,,,,,,,,,,,,,,,,,,,,,,,,,,,,,,
,,,,,,,,,,2,same,4,0.273779233,0.054755847,magenta,1,-0.273779233,0.273779233,red,1,-0.054755847,-0.054755847,yellow,1,0.273779233,-0.273779233,blue,1,0.054755847,0.16426754,green,0,-0.16426754,0.054755847,cyan,0,0.05,0.05,0.15,0.273779233,-0.273779233,blue,k,99042,20,2020-09-03_17h20.46.569,CDT_GNG_IUS12,2020.1.2,Win32,60,,k,1,0.56128,0,83,83,1,1,,,,,,,,,,,,,,,,,,,,,,,,,,,,,,,,,,,,,,,,,,,,,,,,,
,,,,,,,,,,99,different,6,0.054755847,0.16426754,orange,1,0.16426754,-0.16426754,yellow,1,-0.16426754,0.273779233,red,1,-0.273779233,-0.054755847,magenta,1,0.16426754,0.054755847,black,1,0.054755847,-0.054755847,green,1,0.05,0.05,0.15,-0.16426754,0.273779233,blue,l,99042,20,2020-09-03_17h20.46.569,CDT_GNG_IUS12,2020.1.2,Win32,60,,l,1,0.992085,0,84,84,98,1,,,,,,,,,,,,,,,,,,,,,,,,,,,,,,,,,,,,,,,,,,,,,,,,,
,,,,,,,,,,48,different,4,0.16426754,0.273779233,cyan,1,-0.054755847,-0.273779233,magenta,1,0.16426754,-0.054755847,orange,1,-0.273779233,0.273779233,blue,1,0.273779233,0.16426754,red,0,-0.054755847,-0.16426754,green,0,0.05,0.05,0.15,0.16426754,-0.054755847,red,l,99042,20,2020-09-03_17h20.46.569,CDT_GNG_IUS12,2020.1.2,Win32,60,,l,1,0.545695,0,85,85,47,1,,,,,,,,,,,,,,,,,,,,,,,,,,,,,,,,,,,,,,,,,,,,,,,,,
,,,,,,,,,,58,different,4,-0.16426754,0.273779233,blue,1,0.16426754,0.273779233,yellow,1,0.273779233,-0.16426754,black,1,-0.16426754,-0.054755847,cyan,1,-0.16426754,0.16426754,green,0,0.16426754,0.054755847,orange,0,0.05,0.05,0.15,0.273779233,-0.16426754,magenta,l,99042,20,2020-09-03_17h20.46.569,CDT_GNG_IUS12,2020.1.2,Win32,60,,l,1,0.724675,0,86,86,57,1,,,,,,,,,,,,,,,,,,,,,,,,,,,,,,,,,,,,,,,,,,,,,,,,,
,,,,,,,,,,16,same,4,0.16426754,0.16426754,cyan,1,-0.16426754,-0.273779233,red,1,-0.16426754,0.16426754,black,1,0.273779233,-0.054755847,yellow,1,0.273779233,0.273779233,orange,0,-0.054755847,-0.273779233,blue,0,0.05,0.05,0.15,-0.16426754,-0.273779233,red,k,99042,20,2020-09-03_17h20.46.569,CDT_GNG_IUS12,2020.1.2,Win32,60,,k,1,0.723265,0,87,87,15,1,,,,,,,,,,,,,,,,,,,,,,,,,,,,,,,,,,,,,,,,,,,,,,,,,
,,,,,,,,,,6,same,4,0.273779233,0.273779233,blue,1,-0.273779233,-0.16426754,magenta,1,-0.054755847,0.054755847,green,1,0.054755847,-0.054755847,black,1,0.054755847,0.054755847,orange,0,-0.054755847,-0.054755847,red,0,0.05,0.05,0.15,-0.054755847,0.054755847,green,k,99042,20,2020-09-03_17h20.46.569,CDT_GNG_IUS12,2020.1.2,Win32,60,,k,1,1.12075,0,88,88,5,1,,,,,,,,,,,,,,,,,,,,,,,,,,,,,,,,,,,,,,,,,,,,,,,,,
,,,,,,,,,,60,different,4,0.273779233,0.273779233,red,1,-0.273779233,-0.054755847,blue,1,-0.273779233,0.054755847,magenta,1,0.054755847,-0.273779233,black,1,0.273779233,0.054755847,orange,0,-0.054755847,-0.16426754,yellow,0,0.05,0.05,0.15,-0.273779233,0.054755847,yellow,l,99042,20,2020-09-03_17h20.46.569,CDT_GNG_IUS12,2020.1.2,Win32,60,,l,1,0.55803,0,89,89,59,1,,,,,,,,,,,,,,,,,,,,,,,,,,,,,,,,,,,,,,,,,,,,,,,,,
,,,,,,,,,,61,same,6,0.273779233,0.16426754,cyan,1,0.273779233,-0.273779233,blue,1,-0.16426754,-0.16426754,green,1,-0.16426754,0.273779233,black,1,0.16426754,0.054755847,red,1,0.273779233,-0.16426754,yellow,1,0.05,0.05,0.15,0.273779233,-0.16426754,yellow,k,99042,20,2020-09-03_17h20.46.569,CDT_GNG_IUS12,2020.1.2,Win32,60,,k,1,0.7752,0,90,90,60,1,,,,,,,,,,,,,,,,,,,,,,,,,,,,,,,,,,,,,,,,,,,,,,,,,
,,,,,,,,,,27,same,4,-0.273779233,0.054755847,blue,1,-0.16426754,-0.16426754,black,1,0.16426754,-0.273779233,cyan,1,0.273779233,0.054755847,red,1,-0.054755847,0.273779233,magenta,0,-0.054755847,-0.273779233,yellow,0,0.05,0.05,0.15,0.273779233,0.054755847,red,k,99042,20,2020-09-03_17h20.46.569,CDT_GNG_IUS12,2020.1.2,Win32,60,,k,1,0.81034,0,91,91,26,1,,,,,,,,,,,,,,,,,,,,,,,,,,,,,,,,,,,,,,,,,,,,,,,,,
,,,,,,,,,,7,same,4,-0.16426754,-0.054755847,yellow,1,0.273779233,0.16426754,magenta,1,-0.16426754,0.054755847,cyan,1,0.054755847,-0.054755847,black,1,-0.054755847,-0.054755847,orange,0,0.273779233,0.273779233,blue,0,0.05,0.05,0.15,0.054755847,-0.054755847,black,k,99042,20,2020-09-03_17h20.46.569,CDT_GNG_IUS12,2020.1.2,Win32,60,,k,1,0.60384,0,92,92,6,1,,,,,,,,,,,,,,,,,,,,,,,,,,,,,,,,,,,,,,,,,,,,,,,,,
,,,,,,,,,,31,different,4,-0.16426754,0.16426754,blue,1,0.16426754,-0.054755847,magenta,1,-0.16426754,-0.054755847,yellow,1,0.054755847,0.273779233,black,1,-0.273779233,0.054755847,red,0,0.273779233,-0.273779233,cyan,0,0.05,0.05,0.15,-0.16426754,-0.054755847,black,l,99042,20,2020-09-03_17h20.46.569,CDT_GNG_IUS12,2020.1.2,Win32,60,,l,1,0.653535,0,93,93,30,1,,,,,,,,,,,,,,,,,,,,,,,,,,,,,,,,,,,,,,,,,,,,,,,,,
,,,,,,,,,,105,different,6,0.054755847,0.273779233,cyan,1,0.273779233,-0.16426754,magenta,1,-0.16426754,-0.054755847,yellow,1,-0.16426754,0.16426754,blue,1,0.273779233,0.16426754,orange,1,0.16426754,-0.273779233,green,1,0.05,0.05,0.15,0.16426754,-0.273779233,blue,l,99042,20,2020-09-03_17h20.46.569,CDT_GNG_IUS12,2020.1.2,Win32,60,,l,1,0.7207,0,94,94,104,1,,,,,,,,,,,,,,,,,,,,,,,,,,,,,,,,,,,,,,,,,,,,,,,,,
,,,,,,,,,,100,different,6,0.273779233,0.16426754,blue,1,-0.054755847,0.054755847,magenta,1,-0.273779233,-0.054755847,orange,1,0.273779233,-0.273779233,red,1,0.16426754,0.054755847,green,1,-0.273779233,0.054755847,yellow,1,0.05,0.05,0.15,0.273779233,0.16426754,orange,l,99042,20,2020-09-03_17h20.46.569,CDT_GNG_IUS12,2020.1.2,Win32,60,,l,1,1.09527,0,95,95,99,1,,,,,,,,,,,,,,,,,,,,,,,,,,,,,,,,,,,,,,,,,,,,,,,,,
,,,,,,,,,,34,different,4,0.16426754,0.16426754,yellow,1,0.273779233,-0.16426754,cyan,1,-0.273779233,-0.273779233,magenta,1,-0.273779233,0.16426754,green,1,0.054755847,0.054755847,black,0,0.273779233,-0.273779233,orange,0,0.05,0.05,0.15,0.16426754,0.16426754,cyan,l,99042,20,2020-09-03_17h20.46.569,CDT_GNG_IUS12,2020.1.2,Win32,60,,l,1,0.679515,0,96,96,33,1,,,,,,,,,,,,,,,,,,,,,,,,,,,,,,,,,,,,,,,,,,,,,,,,,
,,,,,,,,,,67,same,6,0.273779233,-0.054755847,magenta,1,0.16426754,0.273779233,orange,1,-0.273779233,0.273779233,cyan,1,-0.16426754,-0.054755847,yellow,1,0.16426754,-0.16426754,blue,1,0.16426754,0.16426754,red,1,0.05,0.05,0.15,-0.273779233,0.273779233,cyan,k,99042,20,2020-09-03_17h20.46.569,CDT_GNG_IUS12,2020.1.2,Win32,60,,l,0,2.296725,0,97,97,66,1,,,,,,,,,,,,,,,,,,,,,,,,,,,,,,,,,,,,,,,,,,,,,,,,,
,,,,,,,,,,101,different,6,0.273779233,0.273779233,yellow,1,0.054755847,-0.16426754,black,1,-0.054755847,0.054755847,cyan,1,-0.054755847,-0.16426754,magenta,1,0.273779233,0.054755847,green,1,0.16426754,-0.16426754,blue,1,0.05,0.05,0.15,0.273779233,0.273779233,green,l,99042,20,2020-09-03_17h20.46.569,CDT_GNG_IUS12,2020.1.2,Win32,60,,l,1,0.670015,0,98,98,100,1,,,,,,,,,,,,,,,,,,,,,,,,,,,,,,,,,,,,,,,,,,,,,,,,,
,,,,,,,,,,9,same,4,-0.16426754,0.054755847,cyan,1,0.16426754,-0.16426754,magenta,1,-0.273779233,-0.054755847,black,1,0.054755847,0.054755847,green,1,-0.273779233,0.16426754,orange,0,0.273779233,-0.273779233,red,0,0.05,0.05,0.15,-0.273779233,-0.054755847,black,k,99042,20,2020-09-03_17h20.46.569,CDT_GNG_IUS12,2020.1.2,Win32,60,,k,1,1.519605,0,99,99,8,1,,,,,,,,,,,,,,,,,,,,,,,,,,,,,,,,,,,,,,,,,,,,,,,,,
,,,,,,,,,,51,different,4,-0.16426754,-0.273779233,yellow,1,0.16426754,-0.273779233,cyan,1,0.273779233,0.054755847,blue,1,-0.054755847,0.273779233,green,1,-0.16426754,-0.054755847,black,0,0.273779233,-0.273779233,red,0,0.05,0.05,0.15,0.16426754,-0.273779233,red,l,99042,20,2020-09-03_17h20.46.569,CDT_GNG_IUS12,2020.1.2,Win32,60,,l,1,0.724315,0,100,100,50,1,,,,,,,,,,,,,,,,,,,,,,,,,,,,,,,,,,,,,,,,,,,,,,,,,
,,,,,,,,,,114,different,6,-0.16426754,0.16426754,black,1,-0.054755847,-0.273779233,orange,1,0.054755847,0.16426754,magenta,1,0.273779233,-0.16426754,green,1,-0.054755847,0.16426754,cyan,1,-0.273779233,-0.273779233,yellow,1,0.05,0.05,0.15,0.054755847,0.16426754,blue,l,99042,20,2020-09-03_17h20.46.569,CDT_GNG_IUS12,2020.1.2,Win32,60,,l,1,0.653445,0,101,101,113,1,,,,,,,,,,,,,,,,,,,,,,,,,,,,,,,,,,,,,,,,,,,,,,,,,
,,,,,,,,,,14,same,4,0.16426754,0.16426754,magenta,1,-0.16426754,0.16426754,blue,1,0.16426754,-0.16426754,green,1,-0.16426754,-0.16426754,red,1,0.16426754,0.273779233,cyan,0,-0.16426754,0.273779233,orange,0,0.05,0.05,0.15,-0.16426754,0.16426754,blue,k,99042,20,2020-09-03_17h20.46.569,CDT_GNG_IUS12,2020.1.2,Win32,60,,k,1,0.79592,0,102,102,13,1,,,,,,,,,,,,,,,,,,,,,,,,,,,,,,,,,,,,,,,,,,,,,,,,,
,,,,,,,,,,3,same,4,-0.054755847,-0.054755847,yellow,1,-0.054755847,0.054755847,cyan,1,0.16426754,-0.273779233,black,1,0.273779233,0.273779233,magenta,1,-0.054755847,-0.273779233,orange,0,-0.273779233,0.054755847,green,0,0.05,0.05,0.15,0.273779233,0.273779233,magenta,k,99042,20,2020-09-03_17h20.46.569,CDT_GNG_IUS12,2020.1.2,Win32,60,,k,1,1.24559,0,103,103,2,1,,,,,,,,,,,,,,,,,,,,,,,,,,,,,,,,,,,,,,,,,,,,,,,,,
,,,,,,,,,,95,different,6,-0.273779233,-0.16426754,magenta,1,0.16426754,0.273779233,green,1,-0.273779233,0.273779233,black,1,0.16426754,-0.273779233,orange,1,-0.054755847,-0.16426754,blue,1,0.16426754,0.054755847,cyan,1,0.05,0.05,0.15,0.16426754,0.273779233,black,l,99042,20,2020-09-03_17h20.46.569,CDT_GNG_IUS12,2020.1.2,Win32,60,,l,1,0.705165,0,104,104,94,1,,,,,,,,,,,,,,,,,,,,,,,,,,,,,,,,,,,,,,,,,,,,,,,,,
,,,,,,,,,,75,same,6,0.16426754,0.273779233,magenta,1,-0.273779233,-0.16426754,green,1,-0.273779233,0.16426754,yellow,1,0.054755847,-0.054755847,red,1,0.273779233,0.054755847,blue,1,-0.16426754,-0.054755847,cyan,1,0.05,0.05,0.15,0.054755847,-0.054755847,red,k,99042,20,2020-09-03_17h20.46.569,CDT_GNG_IUS12,2020.1.2,Win32,60,,k,1,0.71899,0,105,105,74,1,,,,,,,,,,,,,,,,,,,,,,,,,,,,,,,,,,,,,,,,,,,,,,,,,
,,,,,,,,,,46,different,4,-0.16426754,0.273779233,yellow,1,-0.16426754,-0.16426754,green,1,0.16426754,0.054755847,black,1,0.273779233,-0.054755847,red,1,-0.16426754,0.16426754,blue,0,-0.273779233,-0.054755847,cyan,0,0.05,0.05,0.15,0.16426754,0.054755847,cyan,l,99042,20,2020-09-03_17h20.46.569,CDT_GNG_IUS12,2020.1.2,Win32,60,,l,1,0.585625,0,106,106,45,1,,,,,,,,,,,,,,,,,,,,,,,,,,,,,,,,,,,,,,,,,,,,,,,,,
,,,,,,,,,,24,same,4,0.054755847,-0.16426754,red,1,0.054755847,0.054755847,yellow,1,-0.273779233,0.16426754,orange,1,-0.273779233,-0.16426754,magenta,1,0.273779233,-0.16426754,black,0,0.273779233,0.273779233,green,0,0.05,0.05,0.15,0.054755847,-0.16426754,red,k,99042,20,2020-09-03_17h20.46.569,CDT_GNG_IUS12,2020.1.2,Win32,60,,k,1,2.386085,0,107,107,23,1,,,,,,,,,,,,,,,,,,,,,,,,,,,,,,,,,,,,,,,,,,,,,,,,,
,,,,,,,,,,21,same,4,0.273779233,0.273779233,black,1,-0.273779233,-0.273779233,blue,1,0.054755847,-0.16426754,yellow,1,-0.273779233,0.054755847,cyan,1,0.16426754,0.273779233,magenta,0,-0.054755847,-0.054755847,green,0,0.05,0.05,0.15,0.273779233,0.273779233,black,k,99042,20,2020-09-03_17h20.46.569,CDT_GNG_IUS12,2020.1.2,Win32,60,,k,1,0.57752,0,108,108,20,1,,,,,,,,,,,,,,,,,,,,,,,,,,,,,,,,,,,,,,,,,,,,,,,,,
,,,,,,,,,,10,same,4,0.273779233,0.273779233,green,1,-0.16426754,-0.054755847,yellow,1,-0.16426754,0.16426754,cyan,1,0.273779233,-0.16426754,blue,1,0.273779233,0.054755847,orange,0,-0.273779233,-0.16426754,red,0,0.05,0.05,0.15,0.273779233,0.273779233,green,k,99042,20,2020-09-03_17h20.46.569,CDT_GNG_IUS12,2020.1.2,Win32,60,,l,0,0.59439,0,109,109,9,1,,,,,,,,,,,,,,,,,,,,,,,,,,,,,,,,,,,,,,,,,,,,,,,,,
,,,,,,,,,,52,different,4,-0.273779233,-0.16426754,magenta,1,-0.273779233,0.054755847,green,1,0.273779233,-0.054755847,cyan,1,0.273779233,0.054755847,black,1,-0.16426754,-0.16426754,orange,0,-0.054755847,0.054755847,red,0,0.05,0.05,0.15,-0.273779233,-0.16426754,black,l,99042,20,2020-09-03_17h20.46.569,CDT_GNG_IUS12,2020.1.2,Win32,60,,l,1,0.806065,0,110,110,51,1,,,,,,,,,,,,,,,,,,,,,,,,,,,,,,,,,,,,,,,,,,,,,,,,,
,,,,,,,,,,65,same,6,-0.273779233,-0.16426754,cyan,1,-0.054755847,0.054755847,blue,1,0.054755847,-0.054755847,red,1,0.273779233,0.054755847,green,1,-0.16426754,-0.054755847,orange,1,-0.273779233,0.273779233,yellow,1,0.05,0.05,0.15,-0.273779233,-0.16426754,cyan,k,99042,20,2020-09-03_17h20.46.569,CDT_GNG_IUS12,2020.1.2,Win32,60,,l,0,0.90684,0,111,111,64,1,,,,,,,,,,,,,,,,,,,,,,,,,,,,,,,,,,,,,,,,,,,,,,,,,
,,,,,,,,,,50,different,4,-0.16426754,0.054755847,black,1,-0.273779233,-0.16426754,magenta,1,0.054755847,0.054755847,cyan,1,0.273779233,-0.16426754,green,1,-0.273779233,0.273779233,yellow,0,-0.16426754,-0.054755847,orange,0,0.05,0.05,0.15,-0.273779233,-0.16426754,yellow,l,99042,20,2020-09-03_17h20.46.569,CDT_GNG_IUS12,2020.1.2,Win32,60,,l,1,0.753545,0,112,112,49,1,,,,,,,,,,,,,,,,,,,,,,,,,,,,,,,,,,,,,,,,,,,,,,,,,
,,,,,,,,,,120,different,6,0.16426754,-0.054755847,blue,1,-0.16426754,-0.273779233,cyan,1,0.16426754,0.16426754,magenta,1,-0.273779233,0.273779233,black,1,0.273779233,-0.16426754,green,1,-0.273779233,-0.16426754,orange,1,0.05,0.05,0.15,0.16426754,0.16426754,yellow,l,99042,20,2020-09-03_17h20.46.569,CDT_GNG_IUS12,2020.1.2,Win32,60,,l,1,0.612185,0,113,113,119,1,,,,,,,,,,,,,,,,,,,,,,,,,,,,,,,,,,,,,,,,,,,,,,,,,
,,,,,,,,,,15,same,4,0.054755847,-0.273779233,yellow,1,-0.273779233,-0.054755847,cyan,1,0.273779233,0.16426754,green,1,-0.16426754,0.16426754,blue,1,0.273779233,-0.054755847,magenta,0,-0.16426754,-0.054755847,orange,0,0.05,0.05,0.15,-0.273779233,-0.054755847,cyan,k,99042,20,2020-09-03_17h20.46.569,CDT_GNG_IUS12,2020.1.2,Win32,60,,k,1,1.038105,0,114,114,14,1,,,,,,,,,,,,,,,,,,,,,,,,,,,,,,,,,,,,,,,,,,,,,,,,,
,,,,,,,,,,92,different,6,0.16426754,0.16426754,green,1,-0.054755847,-0.054755847,cyan,1,-0.054755847,0.054755847,red,1,0.16426754,-0.054755847,magenta,1,0.054755847,0.16426754,orange,1,-0.273779233,-0.16426754,yellow,1,0.05,0.05,0.15,0.16426754,0.16426754,cyan,l,99042,20,2020-09-03_17h20.46.569,CDT_GNG_IUS12,2020.1.2,Win32,60,,l,1,1.10178,0,115,115,91,1,,,,,,,,,,,,,,,,,,,,,,,,,,,,,,,,,,,,,,,,,,,,,,,,,
,,,,,,,,,,40,different,4,-0.273779233,-0.273779233,magenta,1,0.054755847,-0.16426754,yellow,1,-0.16426754,0.054755847,red,1,0.273779233,0.273779233,orange,1,-0.054755847,-0.054755847,cyan,0,0.16426754,-0.16426754,green,0,0.05,0.05,0.15,0.273779233,0.273779233,black,l,99042,20,2020-09-03_17h20.46.569,CDT_GNG_IUS12,2020.1.2,Win32,60,,l,1,0.686785,0,116,116,39,1,,,,,,,,,,,,,,,,,,,,,,,,,,,,,,,,,,,,,,,,,,,,,,,,,
,,,,,,,,,,117,different,6,-0.054755847,0.054755847,black,1,0.054755847,0.273779233,magenta,1,-0.273779233,-0.273779233,yellow,1,0.054755847,-0.16426754,blue,1,-0.16426754,0.054755847,cyan,1,0.054755847,0.054755847,red,1,0.05,0.05,0.15,-0.16426754,0.054755847,black,l,99042,20,2020-09-03_17h20.46.569,CDT_GNG_IUS12,2020.1.2,Win32,60,,l,1,0.928365,0,117,117,116,1,,,,,,,,,,,,,,,,,,,,,,,,,,,,,,,,,,,,,,,,,,,,,,,,,
,,,,,,,,,,85,same,6,-0.16426754,-0.273779233,black,1,-0.16426754,0.16426754,green,1,0.16426754,-0.054755847,blue,1,0.054755847,0.054755847,magenta,1,-0.16426754,-0.054755847,red,1,-0.054755847,0.054755847,yellow,1,0.05,0.05,0.15,-0.16426754,-0.273779233,black,k,99042,20,2020-09-03_17h20.46.569,CDT_GNG_IUS12,2020.1.2,Win32,60,,k,1,0.89604,0,118,118,84,1,,,,,,,,,,,,,,,,,,,,,,,,,,,,,,,,,,,,,,,,,,,,,,,,,
,,,,,,,,,,89,same,6,-0.054755847,-0.273779233,cyan,1,-0.16426754,0.16426754,green,1,0.273779233,0.273779233,black,1,0.273779233,-0.273779233,orange,1,-0.273779233,-0.16426754,magenta,1,-0.16426754,0.273779233,yellow,1,0.05,0.05,0.15,-0.16426754,0.273779233,yellow,k,99042,20,2020-09-03_17h20.46.569,CDT_GNG_IUS12,2020.1.2,Win32,60,,l,0,0.80679,0,119,119,88,1,,,,,,,,,,,,,,,,,,,,,,,,,,,,,,,,,,,,,,,,,,,,,,,,,
,,,,,,,,,,,,,,,,,,,,,,,,,,,,,,,,,,,,,,,,,,,,99042,20,2020-09-03_17h20.46.569,CDT_GNG_IUS12,2020.1.2,Win32,60,,,,,,,,,,,,1,0,0,0,3,1,1,0,,,,,,,,,,,,,,,,,,,,,,,,,,,,,,,,,,,,,,,
,,,,,,,,,,,,,,,,,,,,,,,,,,,,,,,,,,,,,,,,,,,,99042,20,2020-09-03_17h20.46.569,CDT_GNG_IUS12,2020.1.2,Win32,60,,,,,,,,,,,,1,0,1,1,0,1,1,0,,,,,,,,,,,,,,,,,,,,,,,,,,,,,,,,,,,,,,,
,,,,,,,,,,,,,,,,,,,,,,,,,,,,,,,,,,,,,,,,,,,space,99042,20,2020-09-03_17h20.46.569,CDT_GNG_IUS12,2020.1.2,Win32,60,,,,,,,,,,,space,1,0,2,2,6,1,0,1,0.325095,,,,,,,,,,,,,,,,,,,,,,,,,,,,,,,,,,,,,,
,,,,,,,,,,,,,,,,,,,,,,,,,,,,,,,,,,,,,,,,,,,,99042,20,2020-09-03_17h20.46.569,CDT_GNG_IUS12,2020.1.2,Win32,60,,,,,,,,,,,,1,0,3,3,2,1,1,0,,,,,,,,,,,,,,,,,,,,,,,,,,,,,,,,,,,,,,,
,,,,,,,,,,,,,,,,,,,,,,,,,,,,,,,,,,,,,,,,,,,space,99042,20,2020-09-03_17h20.46.569,CDT_GNG_IUS12,2020.1.2,Win32,60,,,,,,,,,,,space,1,0,4,4,5,1,0,1,0.461305,,,,,,,,,,,,,,,,,,,,,,,,,,,,,,,,,,,,,,
,,,,,,,,,,,,,,,,,,,,,,,,,,,,,,,,,,,,,,,,,,,space,99042,20,2020-09-03_17h20.46.569,CDT_GNG_IUS12,2020.1.2,Win32,60,,,,,,,,,,,space,1,0,5,5,7,1,0,1,0.48691,,,,,,,,,,,,,,,,,,,,,,,,,,,,,,,,,,,,,,
,,,,,,,,,,,,,,,,,,,,,,,,,,,,,,,,,,,,,,,,,,,,99042,20,2020-09-03_17h20.46.569,CDT_GNG_IUS12,2020.1.2,Win32,60,,,,,,,,,,,,1,0,6,6,1,1,1,0,,,,,,,,,,,,,,,,,,,,,,,,,,,,,,,,,,,,,,,
,,,,,,,,,,,,,,,,,,,,,,,,,,,,,,,,,,,,,,,,,,,space,99042,20,2020-09-03_17h20.46.569,CDT_GNG_IUS12,2020.1.2,Win32,60,,,,,,,,,,,space,1,0,7,7,4,1,0,1,0.502485,,,,,,,,,,,,,,,,,,,,,,,,,,,,,,,,,,,,,,
,,,,,,,,,,,,,,,,,,,,,,,,,,,,,,,,,,,,,,,,,,,space,99042,20,2020-09-03_17h20.46.569,CDT_GNG_IUS12,2020.1.2,Win32,60,,,,,,,,,,,,,,,,,,0,1,,space,1,0.512465,0,0,0,44,1,,,,,,,,,,,,,,,,,,,,,,,,,,,,,,
,,,,,,,,,,,,,,,,,,,,,,,,,,,,,,,,,,,,,,,,,,,space,99042,20,2020-09-03_17h20.46.569,CDT_GNG_IUS12,2020.1.2,Win32,60,,,,,,,,,,,,,,,,,,0,1,,,0,,0,1,1,33,1,,,,,,,,,,,,,,,,,,,,,,,,,,,,,,
,,,,,,,,,,,,,,,,,,,,,,,,,,,,,,,,,,,,,,,,,,,,99042,20,2020-09-03_17h20.46.569,CDT_GNG_IUS12,2020.1.2,Win32,60,,,,,,,,,,,,,,,,,,1,0,,space,0,0.527495,0,2,2,0,1,,,,,,,,,,,,,,,,,,,,,,,,,,,,,,
,,,,,,,,,,,,,,,,,,,,,,,,,,,,,,,,,,,,,,,,,,,,99042,20,2020-09-03_17h20.46.569,CDT_GNG_IUS12,2020.1.2,Win32,60,,,,,,,,,,,,,,,,,,1,0,,,1,,0,3,3,8,1,,,,,,,,,,,,,,,,,,,,,,,,,,,,,,
,,,,,,,,,,,,,,,,,,,,,,,,,,,,,,,,,,,,,,,,,,,space,99042,20,2020-09-03_17h20.46.569,CDT_GNG_IUS12,2020.1.2,Win32,60,,,,,,,,,,,,,,,,,,0,1,,space,1,0.444065,0,4,4,27,1,,,,,,,,,,,,,,,,,,,,,,,,,,,,,,
,,,,,,,,,,,,,,,,,,,,,,,,,,,,,,,,,,,,,,,,,,,,99042,20,2020-09-03_17h20.46.569,CDT_GNG_IUS12,2020.1.2,Win32,60,,,,,,,,,,,,,,,,,,1,0,,,1,,0,5,5,6,1,,,,,,,,,,,,,,,,,,,,,,,,,,,,,,
,,,,,,,,,,,,,,,,,,,,,,,,,,,,,,,,,,,,,,,,,,,space,99042,20,2020-09-03_17h20.46.569,CDT_GNG_IUS12,2020.1.2,Win32,60,,,,,,,,,,,,,,,,,,0,1,,space,1,0.319475,0,6,6,14,1,,,,,,,,,,,,,,,,,,,,,,,,,,,,,,
,,,,,,,,,,,,,,,,,,,,,,,,,,,,,,,,,,,,,,,,,,,space,99042,20,2020-09-03_17h20.46.569,CDT_GNG_IUS12,2020.1.2,Win32,60,,,,,,,,,,,,,,,,,,0,1,,space,1,0.38625,0,7,7,37,1,,,,,,,,,,,,,,,,,,,,,,,,,,,,,,
,,,,,,,,,,,,,,,,,,,,,,,,,,,,,,,,,,,,,,,,,,,space,99042,20,2020-09-03_17h20.46.569,CDT_GNG_IUS12,2020.1.2,Win32,60,,,,,,,,,,,,,,,,,,0,1,,space,1,0.410635,0,8,8,13,1,,,,,,,,,,,,,,,,,,,,,,,,,,,,,,
,,,,,,,,,,,,,,,,,,,,,,,,,,,,,,,,,,,,,,,,,,,space,99042,20,2020-09-03_17h20.46.569,CDT_GNG_IUS12,2020.1.2,Win32,60,,,,,,,,,,,,,,,,,,0,1,,space,1,0.462345,0,9,9,36,1,,,,,,,,,,,,,,,,,,,,,,,,,,,,,,
,,,,,,,,,,,,,,,,,,,,,,,,,,,,,,,,,,,,,,,,,,,space,99042,20,2020-09-03_17h20.46.569,CDT_GNG_IUS12,2020.1.2,Win32,60,,,,,,,,,,,,,,,,,,0,1,,space,1,0.532095,0,10,10,15,1,,,,,,,,,,,,,,,,,,,,,,,,,,,,,,
,,,,,,,,,,,,,,,,,,,,,,,,,,,,,,,,,,,,,,,,,,,space,99042,20,2020-09-03_17h20.46.569,CDT_GNG_IUS12,2020.1.2,Win32,60,,,,,,,,,,,,,,,,,,0,1,,,0,,0,11,11,30,1,,,,,,,,,,,,,,,,,,,,,,,,,,,,,,
,,,,,,,,,,,,,,,,,,,,,,,,,,,,,,,,,,,,,,,,,,,space,99042,20,2020-09-03_17h20.46.569,CDT_GNG_IUS12,2020.1.2,Win32,60,,,,,,,,,,,,,,,,,,0,1,,space,1,0.265075,0,12,12,12,1,,,,,,,,,,,,,,,,,,,,,,,,,,,,,,
,,,,,,,,,,,,,,,,,,,,,,,,,,,,,,,,,,,,,,,,,,,space,99042,20,2020-09-03_17h20.46.569,CDT_GNG_IUS12,2020.1.2,Win32,60,,,,,,,,,,,,,,,,,,0,1,,space,1,0.28224,0,13,13,18,1,,,,,,,,,,,,,,,,,,,,,,,,,,,,,,
,,,,,,,,,,,,,,,,,,,,,,,,,,,,,,,,,,,,,,,,,,,space,99042,20,2020-09-03_17h20.46.569,CDT_GNG_IUS12,2020.1.2,Win32,60,,,,,,,,,,,,,,,,,,0,1,,space,1,0.35245,0,14,14,10,1,,,,,,,,,,,,,,,,,,,,,,,,,,,,,,
,,,,,,,,,,,,,,,,,,,,,,,,,,,,,,,,,,,,,,,,,,,space,99042,20,2020-09-03_17h20.46.569,CDT_GNG_IUS12,2020.1.2,Win32,60,,,,,,,,,,,,,,,,,,0,1,,space,1,0.46181,0,15,15,21,1,,,,,,,,,,,,,,,,,,,,,,,,,,,,,,
,,,,,,,,,,,,,,,,,,,,,,,,,,,,,,,,,,,,,,,,,,,space,99042,20,2020-09-03_17h20.46.569,CDT_GNG_IUS12,2020.1.2,Win32,60,,,,,,,,,,,,,,,,,,0,1,,,0,,0,16,16,22,1,,,,,,,,,,,,,,,,,,,,,,,,,,,,,,
,,,,,,,,,,,,,,,,,,,,,,,,,,,,,,,,,,,,,,,,,,,,99042,20,2020-09-03_17h20.46.569,CDT_GNG_IUS12,2020.1.2,Win32,60,,,,,,,,,,,,,,,,,,1,0,,,1,,0,17,17,3,1,,,,,,,,,,,,,,,,,,,,,,,,,,,,,,
,,,,,,,,,,,,,,,,,,,,,,,,,,,,,,,,,,,,,,,,,,,space,99042,20,2020-09-03_17h20.46.569,CDT_GNG_IUS12,2020.1.2,Win32,60,,,,,,,,,,,,,,,,,,0,1,,,0,,0,18,18,32,1,,,,,,,,,,,,,,,,,,,,,,,,,,,,,,
,,,,,,,,,,,,,,,,,,,,,,,,,,,,,,,,,,,,,,,,,,,space,99042,20,2020-09-03_17h20.46.569,CDT_GNG_IUS12,2020.1.2,Win32,60,,,,,,,,,,,,,,,,,,0,1,,space,1,0.28698,0,19,19,49,1,,,,,,,,,,,,,,,,,,,,,,,,,,,,,,
,,,,,,,,,,,,,,,,,,,,,,,,,,,,,,,,,,,,,,,,,,,space,99042,20,2020-09-03_17h20.46.569,CDT_GNG_IUS12,2020.1.2,Win32,60,,,,,,,,,,,,,,,,,,0,1,,space,1,0.2938,0,20,20,43,1,,,,,,,,,,,,,,,,,,,,,,,,,,,,,,
,,,,,,,,,,,,,,,,,,,,,,,,,,,,,,,,,,,,,,,,,,,,99042,20,2020-09-03_17h20.46.569,CDT_GNG_IUS12,2020.1.2,Win32,60,,,,,,,,,,,,,,,,,,1,0,,,1,,0,21,21,4,1,,,,,,,,,,,,,,,,,,,,,,,,,,,,,,
,,,,,,,,,,,,,,,,,,,,,,,,,,,,,,,,,,,,,,,,,,,space,99042,20,2020-09-03_17h20.46.569,CDT_GNG_IUS12,2020.1.2,Win32,60,,,,,,,,,,,,,,,,,,0,1,,space,1,0.017585,0,22,22,11,1,,,,,,,,,,,,,,,,,,,,,,,,,,,,,,
,,,,,,,,,,,,,,,,,,,,,,,,,,,,,,,,,,,,,,,,,,,space,99042,20,2020-09-03_17h20.46.569,CDT_GNG_IUS12,2020.1.2,Win32,60,,,,,,,,,,,,,,,,,,0,1,,space,1,0.46229,0,23,23,39,1,,,,,,,,,,,,,,,,,,,,,,,,,,,,,,
,,,,,,,,,,,,,,,,,,,,,,,,,,,,,,,,,,,,,,,,,,,space,99042,20,2020-09-03_17h20.46.569,CDT_GNG_IUS12,2020.1.2,Win32,60,,,,,,,,,,,,,,,,,,0,1,,,0,,0,24,24,28,1,,,,,,,,,,,,,,,,,,,,,,,,,,,,,,
,,,,,,,,,,,,,,,,,,,,,,,,,,,,,,,,,,,,,,,,,,,,99042,20,2020-09-03_17h20.46.569,CDT_GNG_IUS12,2020.1.2,Win32,60,,,,,,,,,,,,,,,,,,1,0,,,1,,0,25,25,7,1,,,,,,,,,,,,,,,,,,,,,,,,,,,,,,
,,,,,,,,,,,,,,,,,,,,,,,,,,,,,,,,,,,,,,,,,,,space,99042,20,2020-09-03_17h20.46.569,CDT_GNG_IUS12,2020.1.2,Win32,60,,,,,,,,,,,,,,,,,,0,1,,space,1,0.11422,0,26,26,34,1,,,,,,,,,,,,,,,,,,,,,,,,,,,,,,
,,,,,,,,,,,,,,,,,,,,,,,,,,,,,,,,,,,,,,,,,,,space,99042,20,2020-09-03_17h20.46.569,CDT_GNG_IUS12,2020.1.2,Win32,60,,,,,,,,,,,,,,,,,,0,1,,space,1,0.26719,0,27,27,29,1,,,,,,,,,,,,,,,,,,,,,,,,,,,,,,
,,,,,,,,,,,,,,,,,,,,,,,,,,,,,,,,,,,,,,,,,,,space,99042,20,2020-09-03_17h20.46.569,CDT_GNG_IUS12,2020.1.2,Win32,60,,,,,,,,,,,,,,,,,,0,1,,space,1,0.294665,0,28,28,23,1,,,,,,,,,,,,,,,,,,,,,,,,,,,,,,
,,,,,,,,,,,,,,,,,,,,,,,,,,,,,,,,,,,,,,,,,,,space,99042,20,2020-09-03_17h20.46.569,CDT_GNG_IUS12,2020.1.2,Win32,60,,,,,,,,,,,,,,,,,,0,1,,space,1,0.33668,0,29,29,40,1,,,,,,,,,,,,,,,,,,,,,,,,,,,,,,
,,,,,,,,,,,,,,,,,,,,,,,,,,,,,,,,,,,,,,,,,,,space,99042,20,2020-09-03_17h20.46.569,CDT_GNG_IUS12,2020.1.2,Win32,60,,,,,,,,,,,,,,,,,,0,1,,space,1,0.36779,0,30,30,42,1,,,,,,,,,,,,,,,,,,,,,,,,,,,,,,
,,,,,,,,,,,,,,,,,,,,,,,,,,,,,,,,,,,,,,,,,,,,99042,20,2020-09-03_17h20.46.569,CDT_GNG_IUS12,2020.1.2,Win32,60,,,,,,,,,,,,,,,,,,1,0,,,1,,0,31,31,2,1,,,,,,,,,,,,,,,,,,,,,,,,,,,,,,
,,,,,,,,,,,,,,,,,,,,,,,,,,,,,,,,,,,,,,,,,,,space,99042,20,2020-09-03_17h20.46.569,CDT_GNG_IUS12,2020.1.2,Win32,60,,,,,,,,,,,,,,,,,,0,1,,space,1,0.288315,0,32,32,16,1,,,,,,,,,,,,,,,,,,,,,,,,,,,,,,
,,,,,,,,,,,,,,,,,,,,,,,,,,,,,,,,,,,,,,,,,,,space,99042,20,2020-09-03_17h20.46.569,CDT_GNG_IUS12,2020.1.2,Win32,60,,,,,,,,,,,,,,,,,,0,1,,space,1,0.38544,0,33,33,31,1,,,,,,,,,,,,,,,,,,,,,,,,,,,,,,
,,,,,,,,,,,,,,,,,,,,,,,,,,,,,,,,,,,,,,,,,,,space,99042,20,2020-09-03_17h20.46.569,CDT_GNG_IUS12,2020.1.2,Win32,60,,,,,,,,,,,,,,,,,,0,1,,space,1,0.497235,0,34,34,45,1,,,,,,,,,,,,,,,,,,,,,,,,,,,,,,
,,,,,,,,,,,,,,,,,,,,,,,,,,,,,,,,,,,,,,,,,,,,99042,20,2020-09-03_17h20.46.569,CDT_GNG_IUS12,2020.1.2,Win32,60,,,,,,,,,,,,,,,,,,1,0,,,1,,0,35,35,1,1,,,,,,,,,,,,,,,,,,,,,,,,,,,,,,
,,,,,,,,,,,,,,,,,,,,,,,,,,,,,,,,,,,,,,,,,,,space,99042,20,2020-09-03_17h20.46.569,CDT_GNG_IUS12,2020.1.2,Win32,60,,,,,,,,,,,,,,,,,,0,1,,space,1,0.26184,0,36,36,24,1,,,,,,,,,,,,,,,,,,,,,,,,,,,,,,
,,,,,,,,,,,,,,,,,,,,,,,,,,,,,,,,,,,,,,,,,,,,99042,20,2020-09-03_17h20.46.569,CDT_GNG_IUS12,2020.1.2,Win32,60,,,,,,,,,,,,,,,,,,1,0,,,1,,0,37,37,9,1,,,,,,,,,,,,,,,,,,,,,,,,,,,,,,
,,,,,,,,,,,,,,,,,,,,,,,,,,,,,,,,,,,,,,,,,,,space,99042,20,2020-09-03_17h20.46.569,CDT_GNG_IUS12,2020.1.2,Win32,60,,,,,,,,,,,,,,,,,,0,1,,space,1,0.278865,0,38,38,38,1,,,,,,,,,,,,,,,,,,,,,,,,,,,,,,
,,,,,,,,,,,,,,,,,,,,,,,,,,,,,,,,,,,,,,,,,,,space,99042,20,2020-09-03_17h20.46.569,CDT_GNG_IUS12,2020.1.2,Win32,60,,,,,,,,,,,,,,,,,,0,1,,space,1,0.380405,0,39,39,26,1,,,,,,,,,,,,,,,,,,,,,,,,,,,,,,
,,,,,,,,,,,,,,,,,,,,,,,,,,,,,,,,,,,,,,,,,,,space,99042,20,2020-09-03_17h20.46.569,CDT_GNG_IUS12,2020.1.2,Win32,60,,,,,,,,,,,,,,,,,,0,1,,space,1,0.41417,0,40,40,35,1,,,,,,,,,,,,,,,,,,,,,,,,,,,,,,
,,,,,,,,,,,,,,,,,,,,,,,,,,,,,,,,,,,,,,,,,,,space,99042,20,2020-09-03_17h20.46.569,CDT_GNG_IUS12,2020.1.2,Win32,60,,,,,,,,,,,,,,,,,,0,1,,space,1,0.36345,0,41,41,47,1,,,,,,,,,,,,,,,,,,,,,,,,,,,,,,
,,,,,,,,,,,,,,,,,,,,,,,,,,,,,,,,,,,,,,,,,,,space,99042,20,2020-09-03_17h20.46.569,CDT_GNG_IUS12,2020.1.2,Win32,60,,,,,,,,,,,,,,,,,,0,1,,space,1,0.338015,0,42,42,25,1,,,,,,,,,,,,,,,,,,,,,,,,,,,,,,
,,,,,,,,,,,,,,,,,,,,,,,,,,,,,,,,,,,,,,,,,,,space,99042,20,2020-09-03_17h20.46.569,CDT_GNG_IUS12,2020.1.2,Win32,60,,,,,,,,,,,,,,,,,,0,1,,space,1,0.329635,0,43,43,46,1,,,,,,,,,,,,,,,,,,,,,,,,,,,,,,
,,,,,,,,,,,,,,,,,,,,,,,,,,,,,,,,,,,,,,,,,,,space,99042,20,2020-09-03_17h20.46.569,CDT_GNG_IUS12,2020.1.2,Win32,60,,,,,,,,,,,,,,,,,,0,1,,space,1,0.331045,0,44,44,17,1,,,,,,,,,,,,,,,,,,,,,,,,,,,,,,
,,,,,,,,,,,,,,,,,,,,,,,,,,,,,,,,,,,,,,,,,,,space,99042,20,2020-09-03_17h20.46.569,CDT_GNG_IUS12,2020.1.2,Win32,60,,,,,,,,,,,,,,,,,,0,1,,space,1,0.349545,0,45,45,19,1,,,,,,,,,,,,,,,,,,,,,,,,,,,,,,
,,,,,,,,,,,,,,,,,,,,,,,,,,,,,,,,,,,,,,,,,,,space,99042,20,2020-09-03_17h20.46.569,CDT_GNG_IUS12,2020.1.2,Win32,60,,,,,,,,,,,,,,,,,,0,1,,space,1,0.46286,0,46,46,20,1,,,,,,,,,,,,,,,,,,,,,,,,,,,,,,
,,,,,,,,,,,,,,,,,,,,,,,,,,,,,,,,,,,,,,,,,,,space,99042,20,2020-09-03_17h20.46.569,CDT_GNG_IUS12,2020.1.2,Win32,60,,,,,,,,,,,,,,,,,,0,1,,space,1,0.547165,0,47,47,48,1,,,,,,,,,,,,,,,,,,,,,,,,,,,,,,
,,,,,,,,,,,,,,,,,,,,,,,,,,,,,,,,,,,,,,,,,,,space,99042,20,2020-09-03_17h20.46.569,CDT_GNG_IUS12,2020.1.2,Win32,60,,,,,,,,,,,,,,,,,,0,1,,,0,,0,48,48,41,1,,,,,,,,,,,,,,,,,,,,,,,,,,,,,,
,,,,,,,,,,,,,,,,,,,,,,,,,,,,,,,,,,,,,,,,,,,,99042,20,2020-09-03_17h20.46.569,CDT_GNG_IUS12,2020.1.2,Win32,60,,,,,,,,,,,,,,,,,,1,0,,space,0,0.081315,0,49,49,5,1,,,,,,,,,,,,,,,,,,,,,,,,,,,,,,
,,,,,,,,,,,,,,,,,,,,,,,,,,,,,,,,,,,,,,,,,,,space,99042,20,2020-09-03_17h20.46.569,CDT_GNG_IUS12,2020.1.2,Win32,60,,,,,,,,,,,,,,,,,,0,1,,space,1,0.475735,,,,,,0,0,0,48,1,,,,,,,,,,,,,,,,,,,,,,,,,
,,,,,,,,,,,,,,,,,,,,,,,,,,,,,,,,,,,,,,,,,,,,99042,20,2020-09-03_17h20.46.569,CDT_GNG_IUS12,2020.1.2,Win32,60,,,,,,,,,,,,,,,,,,1,0,,,1,,,,,,,0,1,1,2,1,,,,,,,,,,,,,,,,,,,,,,,,,
,,,,,,,,,,,,,,,,,,,,,,,,,,,,,,,,,,,,,,,,,,,space,99042,20,2020-09-03_17h20.46.569,CDT_GNG_IUS12,2020.1.2,Win32,60,,,,,,,,,,,,,,,,,,0,1,,space,1,0.31517,,,,,,0,2,2,17,1,,,,,,,,,,,,,,,,,,,,,,,,,
,,,,,,,,,,,,,,,,,,,,,,,,,,,,,,,,,,,,,,,,,,,space,99042,20,2020-09-03_17h20.46.569,CDT_GNG_IUS12,2020.1.2,Win32,60,,,,,,,,,,,,,,,,,,0,1,,space,1,0.34915,,,,,,0,3,3,37,1,,,,,,,,,,,,,,,,,,,,,,,,,
,,,,,,,,,,,,,,,,,,,,,,,,,,,,,,,,,,,,,,,,,,,space,99042,20,2020-09-03_17h20.46.569,CDT_GNG_IUS12,2020.1.2,Win32,60,,,,,,,,,,,,,,,,,,0,1,,space,1,0.310665,,,,,,0,4,4,43,1,,,,,,,,,,,,,,,,,,,,,,,,,
,,,,,,,,,,,,,,,,,,,,,,,,,,,,,,,,,,,,,,,,,,,space,99042,20,2020-09-03_17h20.46.569,CDT_GNG_IUS12,2020.1.2,Win32,60,,,,,,,,,,,,,,,,,,0,1,,space,1,0.330745,,,,,,0,5,5,12,1,,,,,,,,,,,,,,,,,,,,,,,,,
,,,,,,,,,,,,,,,,,,,,,,,,,,,,,,,,,,,,,,,,,,,space,99042,20,2020-09-03_17h20.46.569,CDT_GNG_IUS12,2020.1.2,Win32,60,,,,,,,,,,,,,,,,,,0,1,,space,1,0.315365,,,,,,0,6,6,18,1,,,,,,,,,,,,,,,,,,,,,,,,,
,,,,,,,,,,,,,,,,,,,,,,,,,,,,,,,,,,,,,,,,,,,space,99042,20,2020-09-03_17h20.46.569,CDT_GNG_IUS12,2020.1.2,Win32,60,,,,,,,,,,,,,,,,,,0,1,,space,1,0.3477,,,,,,0,7,7,33,1,,,,,,,,,,,,,,,,,,,,,,,,,
,,,,,,,,,,,,,,,,,,,,,,,,,,,,,,,,,,,,,,,,,,,space,99042,20,2020-09-03_17h20.46.569,CDT_GNG_IUS12,2020.1.2,Win32,60,,,,,,,,,,,,,,,,,,0,1,,space,1,0.352825,,,,,,0,8,8,49,1,,,,,,,,,,,,,,,,,,,,,,,,,
,,,,,,,,,,,,,,,,,,,,,,,,,,,,,,,,,,,,,,,,,,,,99042,20,2020-09-03_17h20.46.569,CDT_GNG_IUS12,2020.1.2,Win32,60,,,,,,,,,,,,,,,,,,1,0,,,1,,,,,,,0,9,9,6,1,,,,,,,,,,,,,,,,,,,,,,,,,
,,,,,,,,,,,,,,,,,,,,,,,,,,,,,,,,,,,,,,,,,,,space,99042,20,2020-09-03_17h20.46.569,CDT_GNG_IUS12,2020.1.2,Win32,60,,,,,,,,,,,,,,,,,,0,1,,,0,,,,,,,0,10,10,46,1,,,,,,,,,,,,,,,,,,,,,,,,,
,,,,,,,,,,,,,,,,,,,,,,,,,,,,,,,,,,,,,,,,,,,space,99042,20,2020-09-03_17h20.46.569,CDT_GNG_IUS12,2020.1.2,Win32,60,,,,,,,,,,,,,,,,,,0,1,,space,1,0.10326,,,,,,0,11,11,16,1,,,,,,,,,,,,,,,,,,,,,,,,,
,,,,,,,,,,,,,,,,,,,,,,,,,,,,,,,,,,,,,,,,,,,space,99042,20,2020-09-03_17h20.46.569,CDT_GNG_IUS12,2020.1.2,Win32,60,,,,,,,,,,,,,,,,,,0,1,,space,1,0.13028,,,,,,0,12,12,35,1,,,,,,,,,,,,,,,,,,,,,,,,,
,,,,,,,,,,,,,,,,,,,,,,,,,,,,,,,,,,,,,,,,,,,space,99042,20,2020-09-03_17h20.46.569,CDT_GNG_IUS12,2020.1.2,Win32,60,,,,,,,,,,,,,,,,,,0,1,,space,1,0.2887,,,,,,0,13,13,42,1,,,,,,,,,,,,,,,,,,,,,,,,,
,,,,,,,,,,,,,,,,,,,,,,,,,,,,,,,,,,,,,,,,,,,,99042,20,2020-09-03_17h20.46.569,CDT_GNG_IUS12,2020.1.2,Win32,60,,,,,,,,,,,,,,,,,,1,0,,,1,,,,,,,0,14,14,1,1,,,,,,,,,,,,,,,,,,,,,,,,,
,,,,,,,,,,,,,,,,,,,,,,,,,,,,,,,,,,,,,,,,,,,space,99042,20,2020-09-03_17h20.46.569,CDT_GNG_IUS12,2020.1.2,Win32,60,,,,,,,,,,,,,,,,,,0,1,,space,1,0.086105,,,,,,0,15,15,38,1,,,,,,,,,,,,,,,,,,,,,,,,,
,,,,,,,,,,,,,,,,,,,,,,,,,,,,,,,,,,,,,,,,,,,space,99042,20,2020-09-03_17h20.46.569,CDT_GNG_IUS12,2020.1.2,Win32,60,,,,,,,,,,,,,,,,,,0,1,,space,1,0.25346,,,,,,0,16,16,41,1,,,,,,,,,,,,,,,,,,,,,,,,,
,,,,,,,,,,,,,,,,,,,,,,,,,,,,,,,,,,,,,,,,,,,space,99042,20,2020-09-03_17h20.46.569,CDT_GNG_IUS12,2020.1.2,Win32,60,,,,,,,,,,,,,,,,,,0,1,,space,1,0.35353,,,,,,0,17,17,15,1,,,,,,,,,,,,,,,,,,,,,,,,,
,,,,,,,,,,,,,,,,,,,,,,,,,,,,,,,,,,,,,,,,,,,space,99042,20,2020-09-03_17h20.46.569,CDT_GNG_IUS12,2020.1.2,Win32,60,,,,,,,,,,,,,,,,,,0,1,,space,1,0.357465,,,,,,0,18,18,27,1,,,,,,,,,,,,,,,,,,,,,,,,,
,,,,,,,,,,,,,,,,,,,,,,,,,,,,,,,,,,,,,,,,,,,space,99042,20,2020-09-03_17h20.46.569,CDT_GNG_IUS12,2020.1.2,Win32,60,,,,,,,,,,,,,,,,,,0,1,,space,1,0.477665,,,,,,0,19,19,21,1,,,,,,,,,,,,,,,,,,,,,,,,,
,,,,,,,,,,,,,,,,,,,,,,,,,,,,,,,,,,,,,,,,,,,space,99042,20,2020-09-03_17h20.46.569,CDT_GNG_IUS12,2020.1.2,Win32,60,,,,,,,,,,,,,,,,,,0,1,,space,1,0.557005,,,,,,0,20,20,19,1,,,,,,,,,,,,,,,,,,,,,,,,,
,,,,,,,,,,,,,,,,,,,,,,,,,,,,,,,,,,,,,,,,,,,space,99042,20,2020-09-03_17h20.46.569,CDT_GNG_IUS12,2020.1.2,Win32,60,,,,,,,,,,,,,,,,,,0,1,,,0,,,,,,,0,21,21,13,1,,,,,,,,,,,,,,,,,,,,,,,,,
,,,,,,,,,,,,,,,,,,,,,,,,,,,,,,,,,,,,,,,,,,,space,99042,20,2020-09-03_17h20.46.569,CDT_GNG_IUS12,2020.1.2,Win32,60,,,,,,,,,,,,,,,,,,0,1,,space,1,0.242675,,,,,,0,22,22,29,1,,,,,,,,,,,,,,,,,,,,,,,,,
,,,,,,,,,,,,,,,,,,,,,,,,,,,,,,,,,,,,,,,,,,,space,99042,20,2020-09-03_17h20.46.569,CDT_GNG_IUS12,2020.1.2,Win32,60,,,,,,,,,,,,,,,,,,0,1,,space,1,0.30704,,,,,,0,23,23,25,1,,,,,,,,,,,,,,,,,,,,,,,,,
,,,,,,,,,,,,,,,,,,,,,,,,,,,,,,,,,,,,,,,,,,,space,99042,20,2020-09-03_17h20.46.569,CDT_GNG_IUS12,2020.1.2,Win32,60,,,,,,,,,,,,,,,,,,0,1,,space,1,0.4064,,,,,,0,24,24,22,1,,,,,,,,,,,,,,,,,,,,,,,,,
,,,,,,,,,,,,,,,,,,,,,,,,,,,,,,,,,,,,,,,,,,,space,99042,20,2020-09-03_17h20.46.569,CDT_GNG_IUS12,2020.1.2,Win32,60,,,,,,,,,,,,,,,,,,0,1,,space,1,0.410465,,,,,,0,25,25,20,1,,,,,,,,,,,,,,,,,,,,,,,,,
,,,,,,,,,,,,,,,,,,,,,,,,,,,,,,,,,,,,,,,,,,,space,99042,20,2020-09-03_17h20.46.569,CDT_GNG_IUS12,2020.1.2,Win32,60,,,,,,,,,,,,,,,,,,0,1,,space,1,0.560735,,,,,,0,26,26,10,1,,,,,,,,,,,,,,,,,,,,,,,,,
,,,,,,,,,,,,,,,,,,,,,,,,,,,,,,,,,,,,,,,,,,,space,99042,20,2020-09-03_17h20.46.569,CDT_GNG_IUS12,2020.1.2,Win32,60,,,,,,,,,,,,,,,,,,0,1,,space,1,0.55216,,,,,,0,27,27,44,1,,,,,,,,,,,,,,,,,,,,,,,,,
,,,,,,,,,,,,,,,,,,,,,,,,,,,,,,,,,,,,,,,,,,,space,99042,20,2020-09-03_17h20.46.569,CDT_GNG_IUS12,2020.1.2,Win32,60,,,,,,,,,,,,,,,,,,0,1,,space,1,0.539575,,,,,,0,28,28,28,1,,,,,,,,,,,,,,,,,,,,,,,,,
,,,,,,,,,,,,,,,,,,,,,,,,,,,,,,,,,,,,,,,,,,,,99042,20,2020-09-03_17h20.46.569,CDT_GNG_IUS12,2020.1.2,Win32,60,,,,,,,,,,,,,,,,,,1,0,,,1,,,,,,,0,29,29,3,1,,,,,,,,,,,,,,,,,,,,,,,,,
,,,,,,,,,,,,,,,,,,,,,,,,,,,,,,,,,,,,,,,,,,,,99042,20,2020-09-03_17h20.46.569,CDT_GNG_IUS12,2020.1.2,Win32,60,,,,,,,,,,,,,,,,,,1,0,,space,0,0.123295,,,,,,0,30,30,0,1,,,,,,,,,,,,,,,,,,,,,,,,,
,,,,,,,,,,,,,,,,,,,,,,,,,,,,,,,,,,,,,,,,,,,space,99042,20,2020-09-03_17h20.46.569,CDT_GNG_IUS12,2020.1.2,Win32,60,,,,,,,,,,,,,,,,,,0,1,,space,1,0.39579,,,,,,0,31,31,47,1,,,,,,,,,,,,,,,,,,,,,,,,,
,,,,,,,,,,,,,,,,,,,,,,,,,,,,,,,,,,,,,,,,,,,space,99042,20,2020-09-03_17h20.46.569,CDT_GNG_IUS12,2020.1.2,Win32,60,,,,,,,,,,,,,,,,,,0,1,,space,1,0.46931,,,,,,0,32,32,32,1,,,,,,,,,,,,,,,,,,,,,,,,,
,,,,,,,,,,,,,,,,,,,,,,,,,,,,,,,,,,,,,,,,,,,,99042,20,2020-09-03_17h20.46.569,CDT_GNG_IUS12,2020.1.2,Win32,60,,,,,,,,,,,,,,,,,,1,0,,,1,,,,,,,0,33,33,8,1,,,,,,,,,,,,,,,,,,,,,,,,,
,,,,,,,,,,,,,,,,,,,,,,,,,,,,,,,,,,,,,,,,,,,,99042,20,2020-09-03_17h20.46.569,CDT_GNG_IUS12,2020.1.2,Win32,60,,,,,,,,,,,,,,,,,,1,0,,,1,,,,,,,0,34,34,9,1,,,,,,,,,,,,,,,,,,,,,,,,,
,,,,,,,,,,,,,,,,,,,,,,,,,,,,,,,,,,,,,,,,,,,space,99042,20,2020-09-03_17h20.46.569,CDT_GNG_IUS12,2020.1.2,Win32,60,,,,,,,,,,,,,,,,,,0,1,,space,1,0.369865,,,,,,0,35,35,14,1,,,,,,,,,,,,,,,,,,,,,,,,,
,,,,,,,,,,,,,,,,,,,,,,,,,,,,,,,,,,,,,,,,,,,,99042,20,2020-09-03_17h20.46.569,CDT_GNG_IUS12,2020.1.2,Win32,60,,,,,,,,,,,,,,,,,,1,0,,,1,,,,,,,0,36,36,4,1,,,,,,,,,,,,,,,,,,,,,,,,,
,,,,,,,,,,,,,,,,,,,,,,,,,,,,,,,,,,,,,,,,,,,space,99042,20,2020-09-03_17h20.46.569,CDT_GNG_IUS12,2020.1.2,Win32,60,,,,,,,,,,,,,,,,,,0,1,,space,1,0.31888,,,,,,0,37,37,11,1,,,,,,,,,,,,,,,,,,,,,,,,,
,,,,,,,,,,,,,,,,,,,,,,,,,,,,,,,,,,,,,,,,,,,space,99042,20,2020-09-03_17h20.46.569,CDT_GNG_IUS12,2020.1.2,Win32,60,,,,,,,,,,,,,,,,,,0,1,,space,1,0.44273,,,,,,0,38,38,39,1,,,,,,,,,,,,,,,,,,,,,,,,,
,,,,,,,,,,,,,,,,,,,,,,,,,,,,,,,,,,,,,,,,,,,space,99042,20,2020-09-03_17h20.46.569,CDT_GNG_IUS12,2020.1.2,Win32,60,,,,,,,,,,,,,,,,,,0,1,,space,1,0.51222,,,,,,0,39,39,34,1,,,,,,,,,,,,,,,,,,,,,,,,,
,,,,,,,,,,,,,,,,,,,,,,,,,,,,,,,,,,,,,,,,,,,space,99042,20,2020-09-03_17h20.46.569,CDT_GNG_IUS12,2020.1.2,Win32,60,,,,,,,,,,,,,,,,,,0,1,,,0,,,,,,,0,40,40,24,1,,,,,,,,,,,,,,,,,,,,,,,,,
,,,,,,,,,,,,,,,,,,,,,,,,,,,,,,,,,,,,,,,,,,,space,99042,20,2020-09-03_17h20.46.569,CDT_GNG_IUS12,2020.1.2,Win32,60,,,,,,,,,,,,,,,,,,0,1,,space,1,0.121795,,,,,,0,41,41,26,1,,,,,,,,,,,,,,,,,,,,,,,,,
,,,,,,,,,,,,,,,,,,,,,,,,,,,,,,,,,,,,,,,,,,,space,99042,20,2020-09-03_17h20.46.569,CDT_GNG_IUS12,2020.1.2,Win32,60,,,,,,,,,,,,,,,,,,0,1,,space,1,0.32265,,,,,,0,42,42,31,1,,,,,,,,,,,,,,,,,,,,,,,,,
,,,,,,,,,,,,,,,,,,,,,,,,,,,,,,,,,,,,,,,,,,,,99042,20,2020-09-03_17h20.46.569,CDT_GNG_IUS12,2020.1.2,Win32,60,,,,,,,,,,,,,,,,,,1,0,,,1,,,,,,,0,43,43,7,1,,,,,,,,,,,,,,,,,,,,,,,,,
,,,,,,,,,,,,,,,,,,,,,,,,,,,,,,,,,,,,,,,,,,,space,99042,20,2020-09-03_17h20.46.569,CDT_GNG_IUS12,2020.1.2,Win32,60,,,,,,,,,,,,,,,,,,0,1,,space,1,0.32623,,,,,,0,44,44,40,1,,,,,,,,,,,,,,,,,,,,,,,,,
,,,,,,,,,,,,,,,,,,,,,,,,,,,,,,,,,,,,,,,,,,,space,99042,20,2020-09-03_17h20.46.569,CDT_GNG_IUS12,2020.1.2,Win32,60,,,,,,,,,,,,,,,,,,0,1,,space,1,0.335965,,,,,,0,45,45,36,1,,,,,,,,,,,,,,,,,,,,,,,,,
,,,,,,,,,,,,,,,,,,,,,,,,,,,,,,,,,,,,,,,,,,,space,99042,20,2020-09-03_17h20.46.569,CDT_GNG_IUS12,2020.1.2,Win32,60,,,,,,,,,,,,,,,,,,0,1,,space,1,0.3742,,,,,,0,46,46,30,1,,,,,,,,,,,,,,,,,,,,,,,,,
,,,,,,,,,,,,,,,,,,,,,,,,,,,,,,,,,,,,,,,,,,,,99042,20,2020-09-03_17h20.46.569,CDT_GNG_IUS12,2020.1.2,Win32,60,,,,,,,,,,,,,,,,,,1,0,,,1,,,,,,,0,47,47,5,1,,,,,,,,,,,,,,,,,,,,,,,,,
,,,,,,,,,,,,,,,,,,,,,,,,,,,,,,,,,,,,,,,,,,,space,99042,20,2020-09-03_17h20.46.569,CDT_GNG_IUS12,2020.1.2,Win32,60,,,,,,,,,,,,,,,,,,0,1,,space,1,0.276245,,,,,,0,48,48,45,1,,,,,,,,,,,,,,,,,,,,,,,,,
,,,,,,,,,,,,,,,,,,,,,,,,,,,,,,,,,,,,,,,,,,,space,99042,20,2020-09-03_17h20.46.569,CDT_GNG_IUS12,2020.1.2,Win32,60,,,,,,,,,,,,,,,,,,0,1,,space,1,0.35196,,,,,,0,49,49,23,1,,,,,,,,,,,,,,,,,,,,,,,,,
,,,,,,,,,,,,,,,,,,,,,,,,,,,,,,,,,,,,,,,,,,,space,99042,20,2020-09-03_17h20.46.569,CDT_GNG_IUS12,2020.1.2,Win32,60,,,,,,,,,,,,,,,,,,0,1,,space,1,0.307965,,,,,,,,,,,0,0,0,34,1,,,,,,,,,,,,,,,,,,,,
,,,,,,,,,,,,,,,,,,,,,,,,,,,,,,,,,,,,,,,,,,,space,99042,20,2020-09-03_17h20.46.569,CDT_GNG_IUS12,2020.1.2,Win32,60,,,,,,,,,,,,,,,,,,0,1,,space,1,0.282075,,,,,,,,,,,0,1,1,47,1,,,,,,,,,,,,,,,,,,,,
,,,,,,,,,,,,,,,,,,,,,,,,,,,,,,,,,,,,,,,,,,,space,99042,20,2020-09-03_17h20.46.569,CDT_GNG_IUS12,2020.1.2,Win32,60,,,,,,,,,,,,,,,,,,0,1,,space,1,0.28047,,,,,,,,,,,0,2,2,33,1,,,,,,,,,,,,,,,,,,,,
,,,,,,,,,,,,,,,,,,,,,,,,,,,,,,,,,,,,,,,,,,,,99042,20,2020-09-03_17h20.46.569,CDT_GNG_IUS12,2020.1.2,Win32,60,,,,,,,,,,,,,,,,,,1,0,,,1,,,,,,,,,,,,0,3,3,4,1,,,,,,,,,,,,,,,,,,,,
,,,,,,,,,,,,,,,,,,,,,,,,,,,,,,,,,,,,,,,,,,,space,99042,20,2020-09-03_17h20.46.569,CDT_GNG_IUS12,2020.1.2,Win32,60,,,,,,,,,,,,,,,,,,0,1,,space,1,0.26464,,,,,,,,,,,0,4,4,39,1,,,,,,,,,,,,,,,,,,,,
,,,,,,,,,,,,,,,,,,,,,,,,,,,,,,,,,,,,,,,,,,,space,99042,20,2020-09-03_17h20.46.569,CDT_GNG_IUS12,2020.1.2,Win32,60,,,,,,,,,,,,,,,,,,0,1,,space,1,0.285565,,,,,,,,,,,0,5,5,30,1,,,,,,,,,,,,,,,,,,,,
,,,,,,,,,,,,,,,,,,,,,,,,,,,,,,,,,,,,,,,,,,,space,99042,20,2020-09-03_17h20.46.569,CDT_GNG_IUS12,2020.1.2,Win32,60,,,,,,,,,,,,,,,,,,0,1,,space,1,0.295375,,,,,,,,,,,0,6,6,12,1,,,,,,,,,,,,,,,,,,,,
,,,,,,,,,,,,,,,,,,,,,,,,,,,,,,,,,,,,,,,,,,,space,99042,20,2020-09-03_17h20.46.569,CDT_GNG_IUS12,2020.1.2,Win32,60,,,,,,,,,,,,,,,,,,0,1,,space,1,0.29843,,,,,,,,,,,0,7,7,49,1,,,,,,,,,,,,,,,,,,,,
,,,,,,,,,,,,,,,,,,,,,,,,,,,,,,,,,,,,,,,,,,,space,99042,20,2020-09-03_17h20.46.569,CDT_GNG_IUS12,2020.1.2,Win32,60,,,,,,,,,,,,,,,,,,0,1,,space,1,0.323505,,,,,,,,,,,0,8,8,28,1,,,,,,,,,,,,,,,,,,,,
,,,,,,,,,,,,,,,,,,,,,,,,,,,,,,,,,,,,,,,,,,,space,99042,20,2020-09-03_17h20.46.569,CDT_GNG_IUS12,2020.1.2,Win32,60,,,,,,,,,,,,,,,,,,0,1,,space,1,0.379015,,,,,,,,,,,0,9,9,17,1,,,,,,,,,,,,,,,,,,,,
,,,,,,,,,,,,,,,,,,,,,,,,,,,,,,,,,,,,,,,,,,,,99042,20,2020-09-03_17h20.46.569,CDT_GNG_IUS12,2020.1.2,Win32,60,,,,,,,,,,,,,,,,,,1,0,,,1,,,,,,,,,,,,0,10,10,5,1,,,,,,,,,,,,,,,,,,,,
,,,,,,,,,,,,,,,,,,,,,,,,,,,,,,,,,,,,,,,,,,,space,99042,20,2020-09-03_17h20.46.569,CDT_GNG_IUS12,2020.1.2,Win32,60,,,,,,,,,,,,,,,,,,0,1,,space,1,0.253025,,,,,,,,,,,0,11,11,37,1,,,,,,,,,,,,,,,,,,,,
,,,,,,,,,,,,,,,,,,,,,,,,,,,,,,,,,,,,,,,,,,,space,99042,20,2020-09-03_17h20.46.569,CDT_GNG_IUS12,2020.1.2,Win32,60,,,,,,,,,,,,,,,,,,0,1,,space,1,0.247235,,,,,,,,,,,0,12,12,45,1,,,,,,,,,,,,,,,,,,,,
,,,,,,,,,,,,,,,,,,,,,,,,,,,,,,,,,,,,,,,,,,,space,99042,20,2020-09-03_17h20.46.569,CDT_GNG_IUS12,2020.1.2,Win32,60,,,,,,,,,,,,,,,,,,0,1,,space,1,0.266995,,,,,,,,,,,0,13,13,46,1,,,,,,,,,,,,,,,,,,,,
,,,,,,,,,,,,,,,,,,,,,,,,,,,,,,,,,,,,,,,,,,,space,99042,20,2020-09-03_17h20.46.569,CDT_GNG_IUS12,2020.1.2,Win32,60,,,,,,,,,,,,,,,,,,0,1,,space,1,0.299385,,,,,,,,,,,0,14,14,48,1,,,,,,,,,,,,,,,,,,,,
,,,,,,,,,,,,,,,,,,,,,,,,,,,,,,,,,,,,,,,,,,,space,99042,20,2020-09-03_17h20.46.569,CDT_GNG_IUS12,2020.1.2,Win32,60,,,,,,,,,,,,,,,,,,0,1,,space,1,0.355705,,,,,,,,,,,0,15,15,25,1,,,,,,,,,,,,,,,,,,,,
,,,,,,,,,,,,,,,,,,,,,,,,,,,,,,,,,,,,,,,,,,,space,99042,20,2020-09-03_17h20.46.569,CDT_GNG_IUS12,2020.1.2,Win32,60,,,,,,,,,,,,,,,,,,0,1,,space,1,0.38084,,,,,,,,,,,0,16,16,41,1,,,,,,,,,,,,,,,,,,,,
,,,,,,,,,,,,,,,,,,,,,,,,,,,,,,,,,,,,,,,,,,,,99042,20,2020-09-03_17h20.46.569,CDT_GNG_IUS12,2020.1.2,Win32,60,,,,,,,,,,,,,,,,,,1,0,,,1,,,,,,,,,,,,0,17,17,3,1,,,,,,,,,,,,,,,,,,,,
,,,,,,,,,,,,,,,,,,,,,,,,,,,,,,,,,,,,,,,,,,,,99042,20,2020-09-03_17h20.46.569,CDT_GNG_IUS12,2020.1.2,Win32,60,,,,,,,,,,,,,,,,,,1,0,,,1,,,,,,,,,,,,0,18,18,6,1,,,,,,,,,,,,,,,,,,,,
,,,,,,,,,,,,,,,,,,,,,,,,,,,,,,,,,,,,,,,,,,,space,99042,20,2020-09-03_17h20.46.569,CDT_GNG_IUS12,2020.1.2,Win32,60,,,,,,,,,,,,,,,,,,0,1,,space,1,0.330885,,,,,,,,,,,0,19,19,32,1,,,,,,,,,,,,,,,,,,,,
,,,,,,,,,,,,,,,,,,,,,,,,,,,,,,,,,,,,,,,,,,,space,99042,20,2020-09-03_17h20.46.569,CDT_GNG_IUS12,2020.1.2,Win32,60,,,,,,,,,,,,,,,,,,0,1,,space,1,0.27873,,,,,,,,,,,0,20,20,22,1,,,,,,,,,,,,,,,,,,,,
,,,,,,,,,,,,,,,,,,,,,,,,,,,,,,,,,,,,,,,,,,,space,99042,20,2020-09-03_17h20.46.569,CDT_GNG_IUS12,2020.1.2,Win32,60,,,,,,,,,,,,,,,,,,0,1,,space,1,0.262665,,,,,,,,,,,0,21,21,31,1,,,,,,,,,,,,,,,,,,,,
,,,,,,,,,,,,,,,,,,,,,,,,,,,,,,,,,,,,,,,,,,,space,99042,20,2020-09-03_17h20.46.569,CDT_GNG_IUS12,2020.1.2,Win32,60,,,,,,,,,,,,,,,,,,0,1,,space,1,0.329545,,,,,,,,,,,0,22,22,29,1,,,,,,,,,,,,,,,,,,,,
,,,,,,,,,,,,,,,,,,,,,,,,,,,,,,,,,,,,,,,,,,,space,99042,20,2020-09-03_17h20.46.569,CDT_GNG_IUS12,2020.1.2,Win32,60,,,,,,,,,,,,,,,,,,0,1,,space,1,0.34479,,,,,,,,,,,0,23,23,40,1,,,,,,,,,,,,,,,,,,,,
,,,,,,,,,,,,,,,,,,,,,,,,,,,,,,,,,,,,,,,,,,,,99042,20,2020-09-03_17h20.46.569,CDT_GNG_IUS12,2020.1.2,Win32,60,,,,,,,,,,,,,,,,,,1,0,,,1,,,,,,,,,,,,0,24,24,0,1,,,,,,,,,,,,,,,,,,,,
,,,,,,,,,,,,,,,,,,,,,,,,,,,,,,,,,,,,,,,,,,,space,99042,20,2020-09-03_17h20.46.569,CDT_GNG_IUS12,2020.1.2,Win32,60,,,,,,,,,,,,,,,,,,0,1,,space,1,0.33632,,,,,,,,,,,0,25,25,19,1,,,,,,,,,,,,,,,,,,,,
,,,,,,,,,,,,,,,,,,,,,,,,,,,,,,,,,,,,,,,,,,,space,99042,20,2020-09-03_17h20.46.569,CDT_GNG_IUS12,2020.1.2,Win32,60,,,,,,,,,,,,,,,,,,0,1,,space,1,0.29778,,,,,,,,,,,0,26,26,13,1,,,,,,,,,,,,,,,,,,,,
,,,,,,,,,,,,,,,,,,,,,,,,,,,,,,,,,,,,,,,,,,,space,99042,20,2020-09-03_17h20.46.569,CDT_GNG_IUS12,2020.1.2,Win32,60,,,,,,,,,,,,,,,,,,0,1,,space,1,0.30405,,,,,,,,,,,0,27,27,15,1,,,,,,,,,,,,,,,,,,,,
,,,,,,,,,,,,,,,,,,,,,,,,,,,,,,,,,,,,,,,,,,,space,99042,20,2020-09-03_17h20.46.569,CDT_GNG_IUS12,2020.1.2,Win32,60,,,,,,,,,,,,,,,,,,0,1,,space,1,0.313575,,,,,,,,,,,0,28,28,24,1,,,,,,,,,,,,,,,,,,,,
,,,,,,,,,,,,,,,,,,,,,,,,,,,,,,,,,,,,,,,,,,,,99042,20,2020-09-03_17h20.46.569,CDT_GNG_IUS12,2020.1.2,Win32,60,,,,,,,,,,,,,,,,,,1,0,,,1,,,,,,,,,,,,0,29,29,2,1,,,,,,,,,,,,,,,,,,,,
,,,,,,,,,,,,,,,,,,,,,,,,,,,,,,,,,,,,,,,,,,,space,99042,20,2020-09-03_17h20.46.569,CDT_GNG_IUS12,2020.1.2,Win32,60,,,,,,,,,,,,,,,,,,0,1,,space,1,0.314015,,,,,,,,,,,0,30,30,16,1,,,,,,,,,,,,,,,,,,,,
,,,,,,,,,,,,,,,,,,,,,,,,,,,,,,,,,,,,,,,,,,,space,99042,20,2020-09-03_17h20.46.569,CDT_GNG_IUS12,2020.1.2,Win32,60,,,,,,,,,,,,,,,,,,0,1,,space,1,0.285055,,,,,,,,,,,0,31,31,36,1,,,,,,,,,,,,,,,,,,,,
,,,,,,,,,,,,,,,,,,,,,,,,,,,,,,,,,,,,,,,,,,,space,99042,20,2020-09-03_17h20.46.569,CDT_GNG_IUS12,2020.1.2,Win32,60,,,,,,,,,,,,,,,,,,0,1,,space,1,0.26529,,,,,,,,,,,0,32,32,21,1,,,,,,,,,,,,,,,,,,,,
,,,,,,,,,,,,,,,,,,,,,,,,,,,,,,,,,,,,,,,,,,,,99042,20,2020-09-03_17h20.46.569,CDT_GNG_IUS12,2020.1.2,Win32,60,,,,,,,,,,,,,,,,,,1,0,,,1,,,,,,,,,,,,0,33,33,8,1,,,,,,,,,,,,,,,,,,,,
,,,,,,,,,,,,,,,,,,,,,,,,,,,,,,,,,,,,,,,,,,,,99042,20,2020-09-03_17h20.46.569,CDT_GNG_IUS12,2020.1.2,Win32,60,,,,,,,,,,,,,,,,,,1,0,,space,0,0.250665,,,,,,,,,,,0,34,34,7,1,,,,,,,,,,,,,,,,,,,,
,,,,,,,,,,,,,,,,,,,,,,,,,,,,,,,,,,,,,,,,,,,space,99042,20,2020-09-03_17h20.46.569,CDT_GNG_IUS12,2020.1.2,Win32,60,,,,,,,,,,,,,,,,,,0,1,,,0,,,,,,,,,,,,0,35,35,43,1,,,,,,,,,,,,,,,,,,,,
,,,,,,,,,,,,,,,,,,,,,,,,,,,,,,,,,,,,,,,,,,,space,99042,20,2020-09-03_17h20.46.569,CDT_GNG_IUS12,2020.1.2,Win32,60,,,,,,,,,,,,,,,,,,0,1,,,0,,,,,,,,,,,,0,36,36,20,1,,,,,,,,,,,,,,,,,,,,
,,,,,,,,,,,,,,,,,,,,,,,,,,,,,,,,,,,,,,,,,,,space,99042,20,2020-09-03_17h20.46.569,CDT_GNG_IUS12,2020.1.2,Win32,60,,,,,,,,,,,,,,,,,,0,1,,space,1,0.05717,,,,,,,,,,,0,37,37,27,1,,,,,,,,,,,,,,,,,,,,
,,,,,,,,,,,,,,,,,,,,,,,,,,,,,,,,,,,,,,,,,,,space,99042,20,2020-09-03_17h20.46.569,CDT_GNG_IUS12,2020.1.2,Win32,60,,,,,,,,,,,,,,,,,,0,1,,space,1,0.28025,,,,,,,,,,,0,38,38,35,1,,,,,,,,,,,,,,,,,,,,
,,,,,,,,,,,,,,,,,,,,,,,,,,,,,,,,,,,,,,,,,,,space,99042,20,2020-09-03_17h20.46.569,CDT_GNG_IUS12,2020.1.2,Win32,60,,,,,,,,,,,,,,,,,,0,1,,space,1,0.363255,,,,,,,,,,,0,39,39,10,1,,,,,,,,,,,,,,,,,,,,
,,,,,,,,,,,,,,,,,,,,,,,,,,,,,,,,,,,,,,,,,,,space,99042,20,2020-09-03_17h20.46.569,CDT_GNG_IUS12,2020.1.2,Win32,60,,,,,,,,,,,,,,,,,,0,1,,space,1,0.39689,,,,,,,,,,,0,40,40,26,1,,,,,,,,,,,,,,,,,,,,
,,,,,,,,,,,,,,,,,,,,,,,,,,,,,,,,,,,,,,,,,,,,99042,20,2020-09-03_17h20.46.569,CDT_GNG_IUS12,2020.1.2,Win32,60,,,,,,,,,,,,,,,,,,1,0,,,1,,,,,,,,,,,,0,41,41,9,1,,,,,,,,,,,,,,,,,,,,
,,,,,,,,,,,,,,,,,,,,,,,,,,,,,,,,,,,,,,,,,,,space,99042,20,2020-09-03_17h20.46.569,CDT_GNG_IUS12,2020.1.2,Win32,60,,,,,,,,,,,,,,,,,,0,1,,space,1,0.312905,,,,,,,,,,,0,42,42,18,1,,,,,,,,,,,,,,,,,,,,
,,,,,,,,,,,,,,,,,,,,,,,,,,,,,,,,,,,,,,,,,,,space,99042,20,2020-09-03_17h20.46.569,CDT_GNG_IUS12,2020.1.2,Win32,60,,,,,,,,,,,,,,,,,,0,1,,space,1,0.29743,,,,,,,,,,,0,43,43,38,1,,,,,,,,,,,,,,,,,,,,
,,,,,,,,,,,,,,,,,,,,,,,,,,,,,,,,,,,,,,,,,,,space,99042,20,2020-09-03_17h20.46.569,CDT_GNG_IUS12,2020.1.2,Win32,60,,,,,,,,,,,,,,,,,,0,1,,space,1,0.27969,,,,,,,,,,,0,44,44,11,1,,,,,,,,,,,,,,,,,,,,
,,,,,,,,,,,,,,,,,,,,,,,,,,,,,,,,,,,,,,,,,,,space,99042,20,2020-09-03_17h20.46.569,CDT_GNG_IUS12,2020.1.2,Win32,60,,,,,,,,,,,,,,,,,,0,1,,space,1,0.313085,,,,,,,,,,,0,45,45,14,1,,,,,,,,,,,,,,,,,,,,
,,,,,,,,,,,,,,,,,,,,,,,,,,,,,,,,,,,,,,,,,,,space,99042,20,2020-09-03_17h20.46.569,CDT_GNG_IUS12,2020.1.2,Win32,60,,,,,,,,,,,,,,,,,,0,1,,space,1,0.31908,,,,,,,,,,,0,46,46,42,1,,,,,,,,,,,,,,,,,,,,
,,,,,,,,,,,,,,,,,,,,,,,,,,,,,,,,,,,,,,,,,,,,99042,20,2020-09-03_17h20.46.569,CDT_GNG_IUS12,2020.1.2,Win32,60,,,,,,,,,,,,,,,,,,1,0,,,1,,,,,,,,,,,,0,47,47,1,1,,,,,,,,,,,,,,,,,,,,
,,,,,,,,,,,,,,,,,,,,,,,,,,,,,,,,,,,,,,,,,,,space,99042,20,2020-09-03_17h20.46.569,CDT_GNG_IUS12,2020.1.2,Win32,60,,,,,,,,,,,,,,,,,,0,1,,space,1,0.31401,,,,,,,,,,,0,48,48,23,1,,,,,,,,,,,,,,,,,,,,
,,,,,,,,,,,,,,,,,,,,,,,,,,,,,,,,,,,,,,,,,,,space,99042,20,2020-09-03_17h20.46.569,CDT_GNG_IUS12,2020.1.2,Win32,60,,,,,,,,,,,,,,,,,,0,1,,space,1,0.296495,,,,,,,,,,,0,49,49,44,1,,,,,,,,,,,,,,,,,,,,
,,,,,,,,,,,,,,,,,,,,,,,,,,,,,,,,,,,,,,,,,,,,99042,20,2020-09-03_17h20.46.569,CDT_GNG_IUS12,2020.1.2,Win32,60,,,,,,,,,,,,,,,,,,,,,,,,,,,,,,,,,,,,,,,7.101852276,23.595555,0,0,0,0,1,1,"On a scale from 0 to 10, indicate your personal perception of your proficiency level for English (10 being the highest score)",,,,,,,,,,,
,,,,,,,,,,,,,,,,,,,,,,,,,,,,,,,,,,,,,,,,,,,,99042,20,2020-09-03_17h20.46.569,CDT_GNG_IUS12,2020.1.2,Win32,60,,,,,,,,,,,,,,,,,,,,,,,,,,,,,,,,,,,,,,,6.953703562,15.427915,0,1,1,1,1,2,"On a scale from 0 to 10, indicate how frequently you are exposed to English (10 being 'always', 0 being 'never')",,,,,,,,,,,
,,,,,,,,,,,,,,,,,,,,,,,,,,,,,,,,,,,,,,,,,,,,99042,20,2020-09-03_17h20.46.569,CDT_GNG_IUS12,2020.1.2,Win32,60,,,,,,,,,,,,,,,,,,,,,,,,,,,,,,,,,,,,,,,,,,,,,,,"On a scale from 0 to 10, indicate your personal perception of your proficiency level for English (10 being the highest score)",3.96666661,25.7055,0,0,0,0,1,1,Unforeseen events upset me greatly.,,
,,,,,,,,,,,,,,,,,,,,,,,,,,,,,,,,,,,,,,,,,,,,99042,20,2020-09-03_17h20.46.569,CDT_GNG_IUS12,2020.1.2,Win32,60,,,,,,,,,,,,,,,,,,,,,,,,,,,,,,,,,,,,,,,,,,,,,,,"On a scale from 0 to 10, indicate how frequently you are exposed to English (10 being 'always', 0 being 'never')",4.903704043,12.144265,0,1,1,1,1,2,It frustrates me not having all the information I need.,,
,,,,,,,,,,,,,,,,,,,,,,,,,,,,,,,,,,,,,,,,,,,,99042,20,2020-09-03_17h20.46.569,CDT_GNG_IUS12,2020.1.2,Win32,60,,,,,,,,,,,,,,,,,,,,,,,,,,,,,,,,,,,,,,,,,,,,,,,,3.018518519,7.727845,0,2,2,2,1,3,One should always look ahead so as to avoid surprises.,,
,,,,,,,,,,,,,,,,,,,,,,,,,,,,,,,,,,,,,,,,,,,,99042,20,2020-09-03_17h20.46.569,CDT_GNG_IUS12,2020.1.2,Win32,60,,,,,,,,,,,,,,,,,,,,,,,,,,,,,,,,,,,,,,,,,,,,,,,,2.96666661,9.861415,0,3,3,3,1,4,"A small, unforeseen event can spoil everything, even with the best of planning. ",,
,,,,,,,,,,,,,,,,,,,,,,,,,,,,,,,,,,,,,,,,,,,,99042,20,2020-09-03_17h20.46.569,CDT_GNG_IUS12,2020.1.2,Win32,60,,,,,,,,,,,,,,,,,,,,,,,,,,,,,,,,,,,,,,,,,,,,,,,,4.974074187,6.34882,0,4,4,4,1,5,I always want to know what the future has in store for me.,,
,,,,,,,,,,,,,,,,,,,,,,,,,,,,,,,,,,,,,,,,,,,,99042,20,2020-09-03_17h20.46.569,CDT_GNG_IUS12,2020.1.2,Win32,60,,,,,,,,,,,,,,,,,,,,,,,,,,,,,,,,,,,,,,,,,,,,,,,,2.974074187,9.044975,0,5,5,5,1,6,I can't stand being taken by surprise.,,
,,,,,,,,,,,,,,,,,,,,,,,,,,,,,,,,,,,,,,,,,,,,99042,20,2020-09-03_17h20.46.569,CDT_GNG_IUS12,2020.1.2,Win32,60,,,,,,,,,,,,,,,,,,,,,,,,,,,,,,,,,,,,,,,,,,,,,,,,3.044444614,5.225285,0,6,6,6,1,7,I should be able to organize everything in advance,,
,,,,,,,,,,,,,,,,,,,,,,,,,,,,,,,,,,,,,,,,,,,,99042,20,2020-09-03_17h20.46.569,CDT_GNG_IUS12,2020.1.2,Win32,60,,,,,,,,,,,,,,,,,,,,,,,,,,,,,,,,,,,,,,,,,,,,,,,,3.93703715,5.4272,0,7,7,7,1,8,Uncertainty keeps me from living a full life.,,
,,,,,,,,,,,,,,,,,,,,,,,,,,,,,,,,,,,,,,,,,,,,99042,20,2020-09-03_17h20.46.569,CDT_GNG_IUS12,2020.1.2,Win32,60,,,,,,,,,,,,,,,,,,,,,,,,,,,,,,,,,,,,,,,,,,,,,,,,2.03333339,7.70914,0,8,8,8,1,9,"When it's time to act, uncertainty paralyses me. ",,
,,,,,,,,,,,,,,,,,,,,,,,,,,,,,,,,,,,,,,,,,,,,99042,20,2020-09-03_17h20.46.569,CDT_GNG_IUS12,2020.1.2,Win32,60,,,,,,,,,,,,,,,,,,,,,,,,,,,,,,,,,,,,,,,,,,,,,,,,4.044444614,9.125975,0,9,9,9,1,10,"When I am uncertain, I can't function very well. ",,
,,,,,,,,,,,,,,,,,,,,,,,,,,,,,,,,,,,,,,,,,,,,99042,20,2020-09-03_17h20.46.569,CDT_GNG_IUS12,2020.1.2,Win32,60,,,,,,,,,,,,,,,,,,,,,,,,,,,,,,,,,,,,,,,,,,,,,,,,3.014814871,7.326835,0,10,10,10,1,11,The smallest doubt can stop me from acting. ,,
,,,,,,,,,,,,,,,,,,,,,,,,,,,,,,,,,,,,,,,,,,,,99042,20,2020-09-03_17h20.46.569,CDT_GNG_IUS12,2020.1.2,Win32,60,,,,,,,,,,,,,,,,,,,,,,,,,,,,,,,,,,,,,,,,,,,,,,,,2.974074187,5.19078,0,11,11,11,1,12,I must get away from all uncertain situations. ,,
,,,,,,,,,,,,,,,,,,,,,,,,,,,,,,,,,,,,,,,,,,,,99042,20,2020-09-03_17h20.46.569,CDT_GNG_IUS12,2020.1.2,Win32,60,,,,,,,,,,,,,,,,,,,,,,,,,,,,,,,,,,,,,,,,,,,,,,,,,,,,,,,,,x,27.86832
