key_resp_6.keys,key_resp_6.rt,key_resp_2.keys,key_resp_2.corr,key_resp_2.rt,CDT_trials_train.thisRepN,CDT_trials_train.thisTrialN,CDT_trials_train.thisN,CDT_trials_train.thisIndex,CDT_trials_train.ran,trialnum,condit,stimamt,stim1posx,stim1posy,stim1col,stim1opa,stim2posx,stim2posy,stim2col,stim2opa,stim3posx,stim3posy,stim3col,stim3opa,stim4posx,stim4posy,stim4col,stim4opa,stim5posx,stim5posy,stim5col,stim5opa,stim6posx,stim6posy,stim6col,stim6opa,stimsizex,stimsizey,stimdur,targetposx,targetposy,targetcol,corrAns,participant,age,date,expName,psychopyVersion,OS,frameRate,key_resp_5.keys,key_resp.keys,key_resp.corr,key_resp.rt,CDT_trials.thisRepN,CDT_trials.thisTrialN,CDT_trials.thisN,CDT_trials.thisIndex,CDT_trials.ran,trialResp_Train.keys,trialResp_Train.corr,GNGtrials_train.thisRepN,GNGtrials_train.thisTrialN,GNGtrials_train.thisN,GNGtrials_train.thisIndex,GNGtrials_train.ran,orangeOpacity,blueOpacity,trialResp_Train.rt,trialResp.keys,trialResp.corr,GNG_trials_1.thisRepN,GNG_trials_1.thisTrialN,GNG_trials_1.thisN,GNG_trials_1.thisIndex,GNG_trials_1.ran,trialResp.rt,GNG_trials_2.thisRepN,GNG_trials_2.thisTrialN,GNG_trials_2.thisN,GNG_trials_2.thisIndex,GNG_trials_2.ran,GNG_trials_3.thisRepN,GNG_trials_3.thisTrialN,GNG_trials_3.thisN,GNG_trials_3.thisIndex,GNG_trials_3.ran,slider_2.response,slider_2.rt,engprof_trials.thisRepN,engprof_trials.thisTrialN,engprof_trials.thisN,engprof_trials.thisIndex,engprof_trials.ran,qpnumber,qproficiency,slider.response,slider.rt,IUS12_trials.thisRepN,IUS12_trials.thisTrialN,IUS12_trials.thisN,IUS12_trials.thisIndex,IUS12_trials.ran,qnumber,qenglish,key_resp_end.keys,key_resp_end.rt
y,6.320275,l,0,3.82178,0,0,0,0,1,1,same,4,0.273779233,-0.054755847,black,1,-0.16426754,-0.273779233,magenta,1,-0.16426754,0.16426754,orange,1,0.16426754,0.054755847,yellow,1,0.16426754,-0.054755847,cyan,0,-0.054755847,-0.16426754,blue,0,0.05,0.05,0.15,-0.16426754,0.16426754,orange,k,99077,25,2020-09-03_23h48.16.072,CDT_GNG_IUS12,2020.1.2,Win32,60,,,,,,,,,,,,,,,,,,,,,,,,,,,,,,,,,,,,,,,,,,,,,,,,,,,,,,,,,
,,l,1,2.220875,0,1,1,1,1,2,different,4,0.054755847,-0.054755847,orange,1,-0.273779233,0.273779233,magenta,1,0.273779233,0.16426754,yellow,1,-0.273779233,-0.16426754,blue,1,0.273779233,-0.054755847,red,0,-0.273779233,0.054755847,cyan,0,0.05,0.05,0.15,-0.273779233,-0.16426754,black,l,99077,25,2020-09-03_23h48.16.072,CDT_GNG_IUS12,2020.1.2,Win32,60,,,,,,,,,,,,,,,,,,,,,,,,,,,,,,,,,,,,,,,,,,,,,,,,,,,,,,,,,
,,k,1,1.502575,0,2,2,2,1,3,same,6,-0.054755847,0.273779233,green,1,0.273779233,-0.273779233,magenta,1,0.273779233,0.16426754,cyan,1,-0.054755847,-0.054755847,black,1,-0.273779233,0.16426754,orange,1,0.16426754,-0.054755847,blue,1,0.05,0.05,0.15,-0.054755847,0.273779233,green,k,99077,25,2020-09-03_23h48.16.072,CDT_GNG_IUS12,2020.1.2,Win32,60,,,,,,,,,,,,,,,,,,,,,,,,,,,,,,,,,,,,,,,,,,,,,,,,,,,,,,,,,
,,l,1,4.19288,0,3,3,3,1,4,different,6,0.16426754,-0.054755847,orange,1,-0.054755847,0.273779233,red,1,0.273779233,0.273779233,green,1,-0.054755847,-0.273779233,yellow,1,0.273779233,-0.054755847,blue,1,-0.16426754,0.16426754,black,1,0.05,0.05,0.15,0.273779233,0.273779233,cyan,l,99077,25,2020-09-03_23h48.16.072,CDT_GNG_IUS12,2020.1.2,Win32,60,,,,,,,,,,,,,,,,,,,,,,,,,,,,,,,,,,,,,,,,,,,,,,,,,,,,,,,,,
,,,,,,,,,,77,same,6,0.273779233,0.273779233,black,1,-0.273779233,-0.16426754,red,1,0.16426754,-0.054755847,magenta,1,-0.054755847,0.16426754,cyan,1,0.16426754,0.273779233,orange,1,-0.16426754,-0.273779233,blue,1,0.05,0.05,0.15,-0.273779233,-0.16426754,red,k,99077,25,2020-09-03_23h48.16.072,CDT_GNG_IUS12,2020.1.2,Win32,60,,l,0,3.700125,0,0,0,76,1,,,,,,,,,,,,,,,,,,,,,,,,,,,,,,,,,,,,,,,,,,,,,,,,
,,,,,,,,,,20,same,4,0.273779233,0.054755847,magenta,1,0.054755847,-0.273779233,black,1,-0.054755847,0.16426754,blue,1,-0.273779233,-0.054755847,orange,1,0.054755847,0.054755847,red,0,0.054755847,-0.054755847,cyan,0,0.05,0.05,0.15,-0.054755847,0.16426754,blue,k,99077,25,2020-09-03_23h48.16.072,CDT_GNG_IUS12,2020.1.2,Win32,60,,k,1,1.60705,0,1,1,19,1,,,,,,,,,,,,,,,,,,,,,,,,,,,,,,,,,,,,,,,,,,,,,,,,
,,,,,,,,,,55,different,4,0.273779233,0.054755847,yellow,1,0.054755847,-0.16426754,green,1,-0.273779233,-0.16426754,orange,1,-0.273779233,0.273779233,blue,1,0.273779233,0.273779233,red,0,0.273779233,-0.16426754,cyan,0,0.05,0.05,0.15,0.054755847,-0.16426754,red,l,99077,25,2020-09-03_23h48.16.072,CDT_GNG_IUS12,2020.1.2,Win32,60,,l,1,1.53947,0,2,2,54,1,,,,,,,,,,,,,,,,,,,,,,,,,,,,,,,,,,,,,,,,,,,,,,,,
,,,,,,,,,,14,same,4,0.16426754,0.16426754,magenta,1,-0.16426754,0.16426754,blue,1,0.16426754,-0.16426754,green,1,-0.16426754,-0.16426754,red,1,0.16426754,0.273779233,cyan,0,-0.16426754,0.273779233,orange,0,0.05,0.05,0.15,-0.16426754,0.16426754,blue,k,99077,25,2020-09-03_23h48.16.072,CDT_GNG_IUS12,2020.1.2,Win32,60,,k,1,1.159135,0,3,3,13,1,,,,,,,,,,,,,,,,,,,,,,,,,,,,,,,,,,,,,,,,,,,,,,,,
,,,,,,,,,,100,different,6,0.273779233,0.16426754,blue,1,-0.054755847,0.054755847,magenta,1,-0.273779233,-0.054755847,orange,1,0.273779233,-0.273779233,red,1,0.16426754,0.054755847,green,1,-0.273779233,0.054755847,yellow,1,0.05,0.05,0.15,0.273779233,0.16426754,orange,l,99077,25,2020-09-03_23h48.16.072,CDT_GNG_IUS12,2020.1.2,Win32,60,,l,1,3.267075,0,4,4,99,1,,,,,,,,,,,,,,,,,,,,,,,,,,,,,,,,,,,,,,,,,,,,,,,,
,,,,,,,,,,48,different,4,0.16426754,0.273779233,cyan,1,-0.054755847,-0.273779233,magenta,1,0.16426754,-0.054755847,orange,1,-0.273779233,0.273779233,blue,1,0.273779233,0.16426754,red,0,-0.054755847,-0.16426754,green,0,0.05,0.05,0.15,0.16426754,-0.054755847,red,l,99077,25,2020-09-03_23h48.16.072,CDT_GNG_IUS12,2020.1.2,Win32,60,,l,1,1.3768,0,5,5,47,1,,,,,,,,,,,,,,,,,,,,,,,,,,,,,,,,,,,,,,,,,,,,,,,,
,,,,,,,,,,92,different,6,0.16426754,0.16426754,green,1,-0.054755847,-0.054755847,cyan,1,-0.054755847,0.054755847,red,1,0.16426754,-0.054755847,magenta,1,0.054755847,0.16426754,orange,1,-0.273779233,-0.16426754,yellow,1,0.05,0.05,0.15,0.16426754,0.16426754,cyan,l,99077,25,2020-09-03_23h48.16.072,CDT_GNG_IUS12,2020.1.2,Win32,60,,k,0,1.8834,0,6,6,91,1,,,,,,,,,,,,,,,,,,,,,,,,,,,,,,,,,,,,,,,,,,,,,,,,
,,,,,,,,,,66,same,6,0.273779233,-0.273779233,cyan,1,-0.273779233,-0.054755847,black,1,-0.273779233,0.054755847,yellow,1,0.273779233,0.16426754,green,1,0.054755847,-0.16426754,orange,1,-0.273779233,-0.16426754,magenta,1,0.05,0.05,0.15,0.273779233,0.16426754,green,k,99077,25,2020-09-03_23h48.16.072,CDT_GNG_IUS12,2020.1.2,Win32,60,,k,1,1.45026,0,7,7,65,1,,,,,,,,,,,,,,,,,,,,,,,,,,,,,,,,,,,,,,,,,,,,,,,,
,,,,,,,,,,9,same,4,-0.16426754,0.054755847,cyan,1,0.16426754,-0.16426754,magenta,1,-0.273779233,-0.054755847,black,1,0.054755847,0.054755847,green,1,-0.273779233,0.16426754,orange,0,0.273779233,-0.273779233,red,0,0.05,0.05,0.15,-0.273779233,-0.054755847,black,k,99077,25,2020-09-03_23h48.16.072,CDT_GNG_IUS12,2020.1.2,Win32,60,,k,1,1.40645,0,8,8,8,1,,,,,,,,,,,,,,,,,,,,,,,,,,,,,,,,,,,,,,,,,,,,,,,,
,,,,,,,,,,12,same,4,0.054755847,0.054755847,blue,1,-0.273779233,-0.054755847,magenta,1,-0.054755847,0.273779233,black,1,0.16426754,-0.16426754,green,1,0.16426754,0.16426754,yellow,0,-0.16426754,-0.054755847,orange,0,0.05,0.05,0.15,0.054755847,0.054755847,blue,k,99077,25,2020-09-03_23h48.16.072,CDT_GNG_IUS12,2020.1.2,Win32,60,,l,0,1.309425,0,9,9,11,1,,,,,,,,,,,,,,,,,,,,,,,,,,,,,,,,,,,,,,,,,,,,,,,,
,,,,,,,,,,84,same,6,-0.273779233,-0.16426754,black,1,0.273779233,0.273779233,blue,1,-0.054755847,0.054755847,red,1,0.16426754,-0.054755847,orange,1,-0.16426754,-0.16426754,cyan,1,0.16426754,0.16426754,magenta,1,0.05,0.05,0.15,-0.16426754,-0.16426754,cyan,k,99077,25,2020-09-03_23h48.16.072,CDT_GNG_IUS12,2020.1.2,Win32,60,,k,1,1.800025,0,10,10,83,1,,,,,,,,,,,,,,,,,,,,,,,,,,,,,,,,,,,,,,,,,,,,,,,,
,,,,,,,,,,69,same,6,-0.054755847,-0.054755847,black,1,0.273779233,-0.054755847,orange,1,-0.273779233,0.16426754,blue,1,0.054755847,0.054755847,yellow,1,-0.16426754,-0.16426754,green,1,0.054755847,-0.16426754,magenta,1,0.05,0.05,0.15,-0.16426754,-0.16426754,green,k,99077,25,2020-09-03_23h48.16.072,CDT_GNG_IUS12,2020.1.2,Win32,60,,l,0,1.10642,0,11,11,68,1,,,,,,,,,,,,,,,,,,,,,,,,,,,,,,,,,,,,,,,,,,,,,,,,
,,,,,,,,,,46,different,4,-0.16426754,0.273779233,yellow,1,-0.16426754,-0.16426754,green,1,0.16426754,0.054755847,black,1,0.273779233,-0.054755847,red,1,-0.16426754,0.16426754,blue,0,-0.273779233,-0.054755847,cyan,0,0.05,0.05,0.15,0.16426754,0.054755847,cyan,l,99077,25,2020-09-03_23h48.16.072,CDT_GNG_IUS12,2020.1.2,Win32,60,,l,1,1.52389,0,12,12,45,1,,,,,,,,,,,,,,,,,,,,,,,,,,,,,,,,,,,,,,,,,,,,,,,,
,,,,,,,,,,83,same,6,0.054755847,-0.16426754,cyan,1,-0.16426754,-0.16426754,blue,1,0.273779233,0.054755847,magenta,1,-0.273779233,0.273779233,green,1,0.273779233,-0.16426754,orange,1,-0.054755847,-0.054755847,yellow,1,0.05,0.05,0.15,-0.054755847,-0.054755847,yellow,k,99077,25,2020-09-03_23h48.16.072,CDT_GNG_IUS12,2020.1.2,Win32,60,,k,1,1.633595,0,13,13,82,1,,,,,,,,,,,,,,,,,,,,,,,,,,,,,,,,,,,,,,,,,,,,,,,,
,,,,,,,,,,53,different,4,-0.16426754,0.054755847,green,1,0.273779233,0.054755847,cyan,1,-0.273779233,-0.273779233,magenta,1,0.054755847,-0.16426754,black,1,-0.054755847,0.16426754,red,0,0.273779233,0.273779233,blue,0,0.05,0.05,0.15,-0.273779233,-0.273779233,black,l,99077,25,2020-09-03_23h48.16.072,CDT_GNG_IUS12,2020.1.2,Win32,60,,l,1,1.434915,0,14,14,52,1,,,,,,,,,,,,,,,,,,,,,,,,,,,,,,,,,,,,,,,,,,,,,,,,
,,,,,,,,,,89,same,6,-0.054755847,-0.273779233,cyan,1,-0.16426754,0.16426754,green,1,0.273779233,0.273779233,black,1,0.273779233,-0.273779233,orange,1,-0.273779233,-0.16426754,magenta,1,-0.16426754,0.273779233,yellow,1,0.05,0.05,0.15,-0.16426754,0.273779233,yellow,k,99077,25,2020-09-03_23h48.16.072,CDT_GNG_IUS12,2020.1.2,Win32,60,,l,0,1.41152,0,15,15,88,1,,,,,,,,,,,,,,,,,,,,,,,,,,,,,,,,,,,,,,,,,,,,,,,,
,,,,,,,,,,87,same,6,0.273779233,0.16426754,green,1,-0.16426754,-0.054755847,black,1,-0.054755847,0.054755847,cyan,1,0.273779233,-0.054755847,blue,1,0.054755847,0.054755847,yellow,1,-0.273779233,-0.273779233,red,1,0.05,0.05,0.15,-0.273779233,-0.273779233,red,k,99077,25,2020-09-03_23h48.16.072,CDT_GNG_IUS12,2020.1.2,Win32,60,,k,1,1.040805,0,16,16,86,1,,,,,,,,,,,,,,,,,,,,,,,,,,,,,,,,,,,,,,,,,,,,,,,,
,,,,,,,,,,16,same,4,0.16426754,0.16426754,cyan,1,-0.16426754,-0.273779233,red,1,-0.16426754,0.16426754,black,1,0.273779233,-0.054755847,yellow,1,0.273779233,0.273779233,orange,0,-0.054755847,-0.273779233,blue,0,0.05,0.05,0.15,-0.16426754,-0.273779233,red,k,99077,25,2020-09-03_23h48.16.072,CDT_GNG_IUS12,2020.1.2,Win32,60,,k,1,0.87738,0,17,17,15,1,,,,,,,,,,,,,,,,,,,,,,,,,,,,,,,,,,,,,,,,,,,,,,,,
,,,,,,,,,,30,same,4,0.16426754,0.16426754,blue,1,0.054755847,-0.054755847,green,1,-0.273779233,-0.16426754,black,1,-0.054755847,0.273779233,yellow,1,0.16426754,0.273779233,red,0,0.16426754,-0.16426754,magenta,0,0.05,0.05,0.15,0.054755847,-0.054755847,green,k,99077,25,2020-09-03_23h48.16.072,CDT_GNG_IUS12,2020.1.2,Win32,60,,k,1,1.63572,0,18,18,29,1,,,,,,,,,,,,,,,,,,,,,,,,,,,,,,,,,,,,,,,,,,,,,,,,
,,,,,,,,,,96,different,6,-0.16426754,-0.16426754,green,1,-0.16426754,0.054755847,black,1,0.054755847,0.16426754,cyan,1,0.16426754,-0.273779233,yellow,1,-0.273779233,-0.273779233,blue,1,-0.054755847,0.054755847,red,1,0.05,0.05,0.15,-0.16426754,0.054755847,magenta,l,99077,25,2020-09-03_23h48.16.072,CDT_GNG_IUS12,2020.1.2,Win32,60,,l,1,1.038885,0,19,19,95,1,,,,,,,,,,,,,,,,,,,,,,,,,,,,,,,,,,,,,,,,,,,,,,,,
,,,,,,,,,,113,different,6,-0.273779233,0.054755847,black,1,-0.16426754,-0.16426754,blue,1,0.054755847,-0.16426754,orange,1,0.16426754,0.16426754,red,1,-0.273779233,0.273779233,green,1,-0.273779233,-0.16426754,magenta,1,0.05,0.05,0.15,-0.273779233,-0.16426754,black,l,99077,25,2020-09-03_23h48.16.072,CDT_GNG_IUS12,2020.1.2,Win32,60,,k,0,0.94143,0,20,20,112,1,,,,,,,,,,,,,,,,,,,,,,,,,,,,,,,,,,,,,,,,,,,,,,,,
,,,,,,,,,,81,same,6,-0.273779233,-0.273779233,green,1,-0.273779233,0.16426754,blue,1,0.054755847,-0.16426754,black,1,0.273779233,0.054755847,cyan,1,-0.16426754,-0.273779233,orange,1,-0.054755847,0.054755847,red,1,0.05,0.05,0.15,0.054755847,-0.16426754,black,k,99077,25,2020-09-03_23h48.16.072,CDT_GNG_IUS12,2020.1.2,Win32,60,,l,0,1.18382,0,21,21,80,1,,,,,,,,,,,,,,,,,,,,,,,,,,,,,,,,,,,,,,,,,,,,,,,,
,,,,,,,,,,107,different,6,0.273779233,0.16426754,cyan,1,-0.16426754,-0.273779233,magenta,1,-0.054755847,0.054755847,black,1,0.16426754,-0.054755847,blue,1,0.16426754,0.054755847,green,1,-0.273779233,-0.16426754,yellow,1,0.05,0.05,0.15,0.16426754,0.054755847,blue,l,99077,25,2020-09-03_23h48.16.072,CDT_GNG_IUS12,2020.1.2,Win32,60,,l,1,2.25021,0,22,22,106,1,,,,,,,,,,,,,,,,,,,,,,,,,,,,,,,,,,,,,,,,,,,,,,,,
,,,,,,,,,,62,same,6,0.054755847,-0.054755847,yellow,1,-0.273779233,-0.16426754,green,1,0.273779233,0.054755847,orange,1,-0.16426754,0.054755847,cyan,1,0.054755847,-0.273779233,red,1,-0.054755847,-0.054755847,blue,1,0.05,0.05,0.15,0.054755847,-0.054755847,yellow,k,99077,25,2020-09-03_23h48.16.072,CDT_GNG_IUS12,2020.1.2,Win32,60,,k,1,1.29518,0,23,23,61,1,,,,,,,,,,,,,,,,,,,,,,,,,,,,,,,,,,,,,,,,,,,,,,,,
,,,,,,,,,,19,same,4,-0.054755847,-0.16426754,orange,1,-0.273779233,0.273779233,red,1,0.273779233,0.054755847,yellow,1,0.273779233,-0.16426754,magenta,1,-0.273779233,-0.054755847,black,0,-0.054755847,0.273779233,blue,0,0.05,0.05,0.15,0.273779233,-0.16426754,magenta,k,99077,25,2020-09-03_23h48.16.072,CDT_GNG_IUS12,2020.1.2,Win32,60,,l,0,1.261095,0,24,24,18,1,,,,,,,,,,,,,,,,,,,,,,,,,,,,,,,,,,,,,,,,,,,,,,,,
,,,,,,,,,,27,same,4,-0.273779233,0.054755847,blue,1,-0.16426754,-0.16426754,black,1,0.16426754,-0.273779233,cyan,1,0.273779233,0.054755847,red,1,-0.054755847,0.273779233,magenta,0,-0.054755847,-0.273779233,yellow,0,0.05,0.05,0.15,0.273779233,0.054755847,red,k,99077,25,2020-09-03_23h48.16.072,CDT_GNG_IUS12,2020.1.2,Win32,60,,k,1,1.605905,0,25,25,26,1,,,,,,,,,,,,,,,,,,,,,,,,,,,,,,,,,,,,,,,,,,,,,,,,
,,,,,,,,,,103,different,6,-0.273779233,-0.16426754,black,1,0.273779233,-0.054755847,cyan,1,0.054755847,0.273779233,magenta,1,-0.054755847,0.16426754,orange,1,-0.16426754,-0.16426754,green,1,0.273779233,-0.16426754,red,1,0.05,0.05,0.15,-0.273779233,-0.16426754,blue,l,99077,25,2020-09-03_23h48.16.072,CDT_GNG_IUS12,2020.1.2,Win32,60,,l,1,0.982815,0,26,26,102,1,,,,,,,,,,,,,,,,,,,,,,,,,,,,,,,,,,,,,,,,,,,,,,,,
,,,,,,,,,,64,same,6,0.16426754,0.273779233,black,1,-0.16426754,-0.16426754,orange,1,0.16426754,-0.16426754,red,1,-0.273779233,0.054755847,magenta,1,0.054755847,0.16426754,cyan,1,-0.054755847,-0.16426754,yellow,1,0.05,0.05,0.15,0.16426754,0.273779233,black,k,99077,25,2020-09-03_23h48.16.072,CDT_GNG_IUS12,2020.1.2,Win32,60,,l,0,2.31922,0,27,27,63,1,,,,,,,,,,,,,,,,,,,,,,,,,,,,,,,,,,,,,,,,,,,,,,,,
,,,,,,,,,,120,different,6,0.16426754,-0.054755847,blue,1,-0.16426754,-0.273779233,cyan,1,0.16426754,0.16426754,magenta,1,-0.273779233,0.273779233,black,1,0.273779233,-0.16426754,green,1,-0.273779233,-0.16426754,orange,1,0.05,0.05,0.15,0.16426754,0.16426754,yellow,l,99077,25,2020-09-03_23h48.16.072,CDT_GNG_IUS12,2020.1.2,Win32,60,,l,1,1.09997,0,28,28,119,1,,,,,,,,,,,,,,,,,,,,,,,,,,,,,,,,,,,,,,,,,,,,,,,,
,,,,,,,,,,104,different,6,0.054755847,-0.16426754,magenta,1,0.273779233,0.273779233,yellow,1,-0.273779233,0.273779233,blue,1,-0.16426754,-0.054755847,cyan,1,0.16426754,-0.054755847,orange,1,0.273779233,0.16426754,green,1,0.05,0.05,0.15,0.054755847,-0.16426754,cyan,l,99077,25,2020-09-03_23h48.16.072,CDT_GNG_IUS12,2020.1.2,Win32,60,,l,1,1.270855,0,29,29,103,1,,,,,,,,,,,,,,,,,,,,,,,,,,,,,,,,,,,,,,,,,,,,,,,,
,,,,,,,,,,63,same,6,-0.273779233,0.273779233,red,1,-0.273779233,-0.16426754,orange,1,0.054755847,-0.273779233,black,1,0.16426754,0.16426754,cyan,1,-0.054755847,0.054755847,blue,1,-0.273779233,-0.054755847,magenta,1,0.05,0.05,0.15,-0.273779233,-0.054755847,magenta,k,99077,25,2020-09-03_23h48.16.072,CDT_GNG_IUS12,2020.1.2,Win32,60,,l,0,1.206355,0,30,30,62,1,,,,,,,,,,,,,,,,,,,,,,,,,,,,,,,,,,,,,,,,,,,,,,,,
,,,,,,,,,,22,same,4,-0.054755847,-0.16426754,green,1,-0.16426754,0.054755847,blue,1,0.16426754,0.16426754,yellow,1,0.273779233,-0.054755847,black,1,-0.273779233,-0.054755847,red,0,-0.054755847,0.16426754,cyan,0,0.05,0.05,0.15,0.273779233,-0.054755847,black,k,99077,25,2020-09-03_23h48.16.072,CDT_GNG_IUS12,2020.1.2,Win32,60,,k,1,1.284115,0,31,31,21,1,,,,,,,,,,,,,,,,,,,,,,,,,,,,,,,,,,,,,,,,,,,,,,,,
,,,,,,,,,,38,different,4,0.273779233,-0.16426754,red,1,-0.054755847,0.16426754,blue,1,-0.273779233,-0.054755847,green,1,0.273779233,0.054755847,cyan,1,0.16426754,-0.054755847,orange,0,-0.054755847,0.054755847,yellow,0,0.05,0.05,0.15,0.273779233,0.054755847,black,l,99077,25,2020-09-03_23h48.16.072,CDT_GNG_IUS12,2020.1.2,Win32,60,,l,1,1.050085,0,32,32,37,1,,,,,,,,,,,,,,,,,,,,,,,,,,,,,,,,,,,,,,,,,,,,,,,,
,,,,,,,,,,112,different,6,-0.273779233,-0.16426754,magenta,1,-0.054755847,0.054755847,orange,1,0.054755847,0.273779233,cyan,1,0.16426754,-0.273779233,yellow,1,-0.273779233,-0.273779233,black,1,-0.16426754,0.054755847,red,1,0.05,0.05,0.15,-0.16426754,0.054755847,orange,l,99077,25,2020-09-03_23h48.16.072,CDT_GNG_IUS12,2020.1.2,Win32,60,,k,0,1.04984,0,33,33,111,1,,,,,,,,,,,,,,,,,,,,,,,,,,,,,,,,,,,,,,,,,,,,,,,,
,,,,,,,,,,8,same,4,0.16426754,-0.16426754,blue,1,-0.16426754,-0.054755847,red,1,-0.273779233,0.16426754,green,1,0.054755847,0.054755847,cyan,1,0.16426754,-0.273779233,magenta,0,-0.054755847,-0.054755847,orange,0,0.05,0.05,0.15,-0.273779233,0.16426754,green,k,99077,25,2020-09-03_23h48.16.072,CDT_GNG_IUS12,2020.1.2,Win32,60,,l,0,0.955525,0,34,34,7,1,,,,,,,,,,,,,,,,,,,,,,,,,,,,,,,,,,,,,,,,,,,,,,,,
,,,,,,,,,,82,same,6,-0.054755847,-0.16426754,red,1,0.273779233,-0.054755847,cyan,1,0.16426754,0.273779233,blue,1,-0.054755847,0.054755847,black,1,-0.16426754,-0.16426754,yellow,1,0.273779233,-0.16426754,green,1,0.05,0.05,0.15,-0.16426754,-0.16426754,yellow,k,99077,25,2020-09-03_23h48.16.072,CDT_GNG_IUS12,2020.1.2,Win32,60,,l,0,1.017815,0,35,35,81,1,,,,,,,,,,,,,,,,,,,,,,,,,,,,,,,,,,,,,,,,,,,,,,,,
,,,,,,,,,,52,different,4,-0.273779233,-0.16426754,magenta,1,-0.273779233,0.054755847,green,1,0.273779233,-0.054755847,cyan,1,0.273779233,0.054755847,black,1,-0.16426754,-0.16426754,orange,0,-0.054755847,0.054755847,red,0,0.05,0.05,0.15,-0.273779233,-0.16426754,black,l,99077,25,2020-09-03_23h48.16.072,CDT_GNG_IUS12,2020.1.2,Win32,60,,l,1,1.1434,0,36,36,51,1,,,,,,,,,,,,,,,,,,,,,,,,,,,,,,,,,,,,,,,,,,,,,,,,
,,,,,,,,,,58,different,4,-0.16426754,0.273779233,blue,1,0.16426754,0.273779233,yellow,1,0.273779233,-0.16426754,black,1,-0.16426754,-0.054755847,cyan,1,-0.16426754,0.16426754,green,0,0.16426754,0.054755847,orange,0,0.05,0.05,0.15,0.273779233,-0.16426754,magenta,l,99077,25,2020-09-03_23h48.16.072,CDT_GNG_IUS12,2020.1.2,Win32,60,,l,1,0.985185,0,37,37,57,1,,,,,,,,,,,,,,,,,,,,,,,,,,,,,,,,,,,,,,,,,,,,,,,,
,,,,,,,,,,17,same,4,0.16426754,0.273779233,yellow,1,-0.054755847,0.16426754,orange,1,0.273779233,-0.054755847,cyan,1,-0.273779233,-0.054755847,green,1,0.16426754,0.16426754,blue,0,-0.054755847,0.273779233,magenta,0,0.05,0.05,0.15,0.16426754,0.273779233,yellow,k,99077,25,2020-09-03_23h48.16.072,CDT_GNG_IUS12,2020.1.2,Win32,60,,k,1,1.055105,0,38,38,16,1,,,,,,,,,,,,,,,,,,,,,,,,,,,,,,,,,,,,,,,,,,,,,,,,
,,,,,,,,,,11,same,4,0.273779233,0.16426754,black,1,-0.054755847,0.273779233,cyan,1,0.16426754,-0.054755847,blue,1,-0.273779233,-0.16426754,orange,1,0.054755847,0.273779233,magenta,0,-0.273779233,0.054755847,green,0,0.05,0.05,0.15,0.273779233,0.16426754,black,k,99077,25,2020-09-03_23h48.16.072,CDT_GNG_IUS12,2020.1.2,Win32,60,,k,1,1.73481,0,39,39,10,1,,,,,,,,,,,,,,,,,,,,,,,,,,,,,,,,,,,,,,,,,,,,,,,,
,,,,,,,,,,91,different,6,-0.054755847,0.054755847,green,1,0.054755847,-0.16426754,cyan,1,-0.054755847,-0.054755847,black,1,0.16426754,0.273779233,yellow,1,-0.273779233,0.273779233,magenta,1,0.16426754,-0.054755847,red,1,0.05,0.05,0.15,0.16426754,-0.054755847,green,l,99077,25,2020-09-03_23h48.16.072,CDT_GNG_IUS12,2020.1.2,Win32,60,,l,1,1.121975,0,40,40,90,1,,,,,,,,,,,,,,,,,,,,,,,,,,,,,,,,,,,,,,,,,,,,,,,,
,,,,,,,,,,47,different,4,-0.16426754,-0.054755847,orange,1,0.273779233,0.054755847,black,1,-0.16426754,0.16426754,red,1,0.273779233,-0.16426754,blue,1,-0.054755847,-0.273779233,green,0,0.16426754,0.16426754,yellow,0,0.05,0.05,0.15,0.273779233,0.054755847,red,l,99077,25,2020-09-03_23h48.16.072,CDT_GNG_IUS12,2020.1.2,Win32,60,,l,1,0.90037,0,41,41,46,1,,,,,,,,,,,,,,,,,,,,,,,,,,,,,,,,,,,,,,,,,,,,,,,,
,,,,,,,,,,36,different,4,-0.16426754,-0.054755847,cyan,1,0.16426754,0.054755847,red,1,0.16426754,-0.054755847,black,1,-0.273779233,0.273779233,orange,1,-0.054755847,-0.054755847,yellow,0,0.273779233,0.273779233,green,0,0.05,0.05,0.15,0.16426754,-0.054755847,orange,l,99077,25,2020-09-03_23h48.16.072,CDT_GNG_IUS12,2020.1.2,Win32,60,,l,1,0.972285,0,42,42,35,1,,,,,,,,,,,,,,,,,,,,,,,,,,,,,,,,,,,,,,,,,,,,,,,,
,,,,,,,,,,101,different,6,0.273779233,0.273779233,yellow,1,0.054755847,-0.16426754,black,1,-0.054755847,0.054755847,cyan,1,-0.054755847,-0.16426754,magenta,1,0.273779233,0.054755847,green,1,0.16426754,-0.16426754,blue,1,0.05,0.05,0.15,0.273779233,0.273779233,green,l,99077,25,2020-09-03_23h48.16.072,CDT_GNG_IUS12,2020.1.2,Win32,60,,k,0,1.100305,0,43,43,100,1,,,,,,,,,,,,,,,,,,,,,,,,,,,,,,,,,,,,,,,,,,,,,,,,
,,,,,,,,,,97,different,6,-0.273779233,-0.273779233,orange,1,0.054755847,-0.273779233,blue,1,0.16426754,0.16426754,green,1,-0.16426754,0.054755847,cyan,1,-0.16426754,-0.16426754,black,1,0.273779233,-0.16426754,yellow,1,0.05,0.05,0.15,-0.16426754,0.054755847,yellow,l,99077,25,2020-09-03_23h48.16.072,CDT_GNG_IUS12,2020.1.2,Win32,60,,l,1,0.96717,0,44,44,96,1,,,,,,,,,,,,,,,,,,,,,,,,,,,,,,,,,,,,,,,,,,,,,,,,
,,,,,,,,,,35,different,4,-0.054755847,-0.054755847,black,1,0.054755847,0.273779233,magenta,1,-0.273779233,0.054755847,blue,1,0.273779233,-0.054755847,red,1,-0.054755847,-0.16426754,cyan,0,0.054755847,0.054755847,yellow,0,0.05,0.05,0.15,0.054755847,0.273779233,cyan,l,99077,25,2020-09-03_23h48.16.072,CDT_GNG_IUS12,2020.1.2,Win32,60,,l,1,1.01813,0,45,45,34,1,,,,,,,,,,,,,,,,,,,,,,,,,,,,,,,,,,,,,,,,,,,,,,,,
,,,,,,,,,,40,different,4,-0.273779233,-0.273779233,magenta,1,0.054755847,-0.16426754,yellow,1,-0.16426754,0.054755847,red,1,0.273779233,0.273779233,orange,1,-0.054755847,-0.054755847,cyan,0,0.16426754,-0.16426754,green,0,0.05,0.05,0.15,0.273779233,0.273779233,black,l,99077,25,2020-09-03_23h48.16.072,CDT_GNG_IUS12,2020.1.2,Win32,60,,l,1,1.20053,0,46,46,39,1,,,,,,,,,,,,,,,,,,,,,,,,,,,,,,,,,,,,,,,,,,,,,,,,
,,,,,,,,,,71,same,6,-0.054755847,-0.16426754,orange,1,0.273779233,0.054755847,green,1,0.16426754,-0.16426754,yellow,1,-0.054755847,0.054755847,blue,1,-0.054755847,-0.273779233,black,1,0.054755847,0.16426754,cyan,1,0.05,0.05,0.15,-0.054755847,0.054755847,blue,k,99077,25,2020-09-03_23h48.16.072,CDT_GNG_IUS12,2020.1.2,Win32,60,,k,1,0.81694,0,47,47,70,1,,,,,,,,,,,,,,,,,,,,,,,,,,,,,,,,,,,,,,,,,,,,,,,,
,,,,,,,,,,43,different,4,-0.16426754,-0.054755847,red,1,0.273779233,0.054755847,cyan,1,-0.16426754,0.054755847,orange,1,0.054755847,-0.054755847,blue,1,-0.054755847,-0.273779233,magenta,0,0.273779233,0.273779233,yellow,0,0.05,0.05,0.15,-0.16426754,-0.054755847,yellow,l,99077,25,2020-09-03_23h48.16.072,CDT_GNG_IUS12,2020.1.2,Win32,60,,l,1,0.93483,0,48,48,42,1,,,,,,,,,,,,,,,,,,,,,,,,,,,,,,,,,,,,,,,,,,,,,,,,
,,,,,,,,,,95,different,6,-0.273779233,-0.16426754,magenta,1,0.16426754,0.273779233,green,1,-0.273779233,0.273779233,black,1,0.16426754,-0.273779233,orange,1,-0.054755847,-0.16426754,blue,1,0.16426754,0.054755847,cyan,1,0.05,0.05,0.15,0.16426754,0.273779233,black,l,99077,25,2020-09-03_23h48.16.072,CDT_GNG_IUS12,2020.1.2,Win32,60,,l,1,2.133115,0,49,49,94,1,,,,,,,,,,,,,,,,,,,,,,,,,,,,,,,,,,,,,,,,,,,,,,,,
,,,,,,,,,,88,same,6,0.054755847,0.054755847,orange,1,0.054755847,-0.273779233,red,1,-0.16426754,-0.16426754,magenta,1,-0.16426754,0.273779233,yellow,1,0.16426754,0.16426754,blue,1,0.273779233,-0.16426754,cyan,1,0.05,0.05,0.15,-0.16426754,0.273779233,yellow,k,99077,25,2020-09-03_23h48.16.072,CDT_GNG_IUS12,2020.1.2,Win32,60,,k,1,0.84119,0,50,50,87,1,,,,,,,,,,,,,,,,,,,,,,,,,,,,,,,,,,,,,,,,,,,,,,,,
,,,,,,,,,,54,different,4,-0.054755847,-0.054755847,black,1,0.054755847,0.054755847,cyan,1,0.273779233,-0.16426754,green,1,-0.273779233,0.16426754,magenta,1,-0.054755847,-0.16426754,orange,0,0.054755847,0.16426754,blue,0,0.05,0.05,0.15,-0.273779233,0.16426754,orange,l,99077,25,2020-09-03_23h48.16.072,CDT_GNG_IUS12,2020.1.2,Win32,60,,l,1,1.000525,0,51,51,53,1,,,,,,,,,,,,,,,,,,,,,,,,,,,,,,,,,,,,,,,,,,,,,,,,
,,,,,,,,,,18,same,4,-0.054755847,0.273779233,black,1,-0.16426754,-0.16426754,cyan,1,0.054755847,0.16426754,red,1,0.273779233,-0.273779233,magenta,1,-0.16426754,0.273779233,orange,0,-0.054755847,-0.273779233,green,0,0.05,0.05,0.15,0.273779233,-0.273779233,magenta,k,99077,25,2020-09-03_23h48.16.072,CDT_GNG_IUS12,2020.1.2,Win32,60,,l,0,0.944035,0,52,52,17,1,,,,,,,,,,,,,,,,,,,,,,,,,,,,,,,,,,,,,,,,,,,,,,,,
,,,,,,,,,,93,different,6,-0.16426754,0.16426754,red,1,0.054755847,-0.054755847,black,1,-0.054755847,-0.16426754,blue,1,0.054755847,0.273779233,magenta,1,-0.054755847,0.054755847,orange,1,0.16426754,-0.054755847,cyan,1,0.05,0.05,0.15,-0.054755847,-0.16426754,black,l,99077,25,2020-09-03_23h48.16.072,CDT_GNG_IUS12,2020.1.2,Win32,60,,l,1,1.36756,0,53,53,92,1,,,,,,,,,,,,,,,,,,,,,,,,,,,,,,,,,,,,,,,,,,,,,,,,
,,,,,,,,,,105,different,6,0.054755847,0.273779233,cyan,1,0.273779233,-0.16426754,magenta,1,-0.16426754,-0.054755847,yellow,1,-0.16426754,0.16426754,blue,1,0.273779233,0.16426754,orange,1,0.16426754,-0.273779233,green,1,0.05,0.05,0.15,0.16426754,-0.273779233,blue,l,99077,25,2020-09-03_23h48.16.072,CDT_GNG_IUS12,2020.1.2,Win32,60,,l,1,1.028865,0,54,54,104,1,,,,,,,,,,,,,,,,,,,,,,,,,,,,,,,,,,,,,,,,,,,,,,,,
,,,,,,,,,,98,different,6,-0.054755847,-0.16426754,magenta,1,0.273779233,0.273779233,green,1,0.273779233,-0.273779233,red,1,-0.16426754,0.273779233,blue,1,-0.273779233,-0.16426754,cyan,1,0.273779233,0.054755847,black,1,0.05,0.05,0.15,-0.16426754,0.273779233,cyan,l,99077,25,2020-09-03_23h48.16.072,CDT_GNG_IUS12,2020.1.2,Win32,60,,l,1,1.027235,0,55,55,97,1,,,,,,,,,,,,,,,,,,,,,,,,,,,,,,,,,,,,,,,,,,,,,,,,
,,,,,,,,,,60,different,4,0.273779233,0.273779233,red,1,-0.273779233,-0.054755847,blue,1,-0.273779233,0.054755847,magenta,1,0.054755847,-0.273779233,black,1,0.273779233,0.054755847,orange,0,-0.054755847,-0.16426754,yellow,0,0.05,0.05,0.15,-0.273779233,0.054755847,yellow,l,99077,25,2020-09-03_23h48.16.072,CDT_GNG_IUS12,2020.1.2,Win32,60,,l,1,1.088985,0,56,56,59,1,,,,,,,,,,,,,,,,,,,,,,,,,,,,,,,,,,,,,,,,,,,,,,,,
,,,,,,,,,,23,same,4,0.273779233,-0.16426754,yellow,1,0.054755847,0.273779233,red,1,-0.054755847,0.054755847,black,1,-0.273779233,-0.054755847,orange,1,0.273779233,-0.054755847,green,0,0.273779233,0.054755847,magenta,0,0.05,0.05,0.15,-0.054755847,0.054755847,black,k,99077,25,2020-09-03_23h48.16.072,CDT_GNG_IUS12,2020.1.2,Win32,60,,k,1,2.200925,0,57,57,22,1,,,,,,,,,,,,,,,,,,,,,,,,,,,,,,,,,,,,,,,,,,,,,,,,
,,,,,,,,,,102,different,6,-0.273779233,-0.273779233,magenta,1,0.054755847,0.16426754,green,1,0.16426754,-0.273779233,yellow,1,-0.16426754,0.054755847,orange,1,-0.16426754,-0.273779233,red,1,0.273779233,0.054755847,cyan,1,0.05,0.05,0.15,-0.273779233,-0.273779233,yellow,l,99077,25,2020-09-03_23h48.16.072,CDT_GNG_IUS12,2020.1.2,Win32,60,,l,1,1.076655,0,58,58,101,1,,,,,,,,,,,,,,,,,,,,,,,,,,,,,,,,,,,,,,,,,,,,,,,,
,,,,,,,,,,72,same,6,0.273779233,-0.16426754,blue,1,0.16426754,0.273779233,yellow,1,-0.16426754,0.273779233,magenta,1,-0.273779233,-0.054755847,orange,1,0.054755847,-0.16426754,cyan,1,0.273779233,0.054755847,black,1,0.05,0.05,0.15,-0.16426754,0.273779233,magenta,k,99077,25,2020-09-03_23h48.16.072,CDT_GNG_IUS12,2020.1.2,Win32,60,,k,1,0.93453,0,59,59,71,1,,,,,,,,,,,,,,,,,,,,,,,,,,,,,,,,,,,,,,,,,,,,,,,,
,,,,,,,,,,106,different,6,0.054755847,-0.16426754,blue,1,-0.273779233,-0.273779233,magenta,1,0.273779233,0.273779233,yellow,1,-0.273779233,0.054755847,orange,1,0.054755847,-0.054755847,green,1,-0.054755847,-0.16426754,black,1,0.05,0.05,0.15,0.054755847,-0.054755847,cyan,l,99077,25,2020-09-03_23h48.16.072,CDT_GNG_IUS12,2020.1.2,Win32,60,,l,1,2.254865,0,60,60,105,1,,,,,,,,,,,,,,,,,,,,,,,,,,,,,,,,,,,,,,,,,,,,,,,,
,,,,,,,,,,79,same,6,0.054755847,-0.16426754,black,1,-0.054755847,-0.273779233,yellow,1,-0.273779233,0.273779233,red,1,0.054755847,0.054755847,magenta,1,0.16426754,-0.054755847,cyan,1,-0.16426754,-0.054755847,orange,1,0.05,0.05,0.15,0.054755847,0.054755847,magenta,k,99077,25,2020-09-03_23h48.16.072,CDT_GNG_IUS12,2020.1.2,Win32,60,,k,1,1.138025,0,61,61,78,1,,,,,,,,,,,,,,,,,,,,,,,,,,,,,,,,,,,,,,,,,,,,,,,,
,,,,,,,,,,78,same,6,0.054755847,0.054755847,black,1,-0.054755847,0.16426754,red,1,0.273779233,-0.273779233,blue,1,-0.054755847,-0.054755847,magenta,1,0.16426754,0.054755847,yellow,1,-0.273779233,0.16426754,cyan,1,0.05,0.05,0.15,-0.054755847,0.16426754,red,k,99077,25,2020-09-03_23h48.16.072,CDT_GNG_IUS12,2020.1.2,Win32,60,,l,0,0.95257,0,62,62,77,1,,,,,,,,,,,,,,,,,,,,,,,,,,,,,,,,,,,,,,,,,,,,,,,,
,,,,,,,,,,44,different,4,0.16426754,0.16426754,green,1,0.16426754,-0.16426754,black,1,-0.16426754,-0.054755847,cyan,1,-0.16426754,0.054755847,magenta,1,0.16426754,0.054755847,blue,0,0.054755847,-0.273779233,yellow,0,0.05,0.05,0.15,0.16426754,0.16426754,red,l,99077,25,2020-09-03_23h48.16.072,CDT_GNG_IUS12,2020.1.2,Win32,60,,k,0,1.48449,0,63,63,43,1,,,,,,,,,,,,,,,,,,,,,,,,,,,,,,,,,,,,,,,,,,,,,,,,
,,,,,,,,,,6,same,4,0.273779233,0.273779233,blue,1,-0.273779233,-0.16426754,magenta,1,-0.054755847,0.054755847,green,1,0.054755847,-0.054755847,black,1,0.054755847,0.054755847,orange,0,-0.054755847,-0.054755847,red,0,0.05,0.05,0.15,-0.054755847,0.054755847,green,k,99077,25,2020-09-03_23h48.16.072,CDT_GNG_IUS12,2020.1.2,Win32,60,,k,1,0.7511,0,64,64,5,1,,,,,,,,,,,,,,,,,,,,,,,,,,,,,,,,,,,,,,,,,,,,,,,,
,,,,,,,,,,41,different,4,0.054755847,-0.273779233,orange,1,-0.273779233,0.054755847,blue,1,-0.054755847,-0.16426754,yellow,1,0.273779233,0.16426754,red,1,0.273779233,-0.273779233,black,0,-0.273779233,0.273779233,magenta,0,0.05,0.05,0.15,-0.054755847,-0.16426754,black,l,99077,25,2020-09-03_23h48.16.072,CDT_GNG_IUS12,2020.1.2,Win32,60,,l,1,3.04262,0,65,65,40,1,,,,,,,,,,,,,,,,,,,,,,,,,,,,,,,,,,,,,,,,,,,,,,,,
,,,,,,,,,,50,different,4,-0.16426754,0.054755847,black,1,-0.273779233,-0.16426754,magenta,1,0.054755847,0.054755847,cyan,1,0.273779233,-0.16426754,green,1,-0.273779233,0.273779233,yellow,0,-0.16426754,-0.054755847,orange,0,0.05,0.05,0.15,-0.273779233,-0.16426754,yellow,l,99077,25,2020-09-03_23h48.16.072,CDT_GNG_IUS12,2020.1.2,Win32,60,,l,1,0.84178,0,66,66,49,1,,,,,,,,,,,,,,,,,,,,,,,,,,,,,,,,,,,,,,,,,,,,,,,,
,,,,,,,,,,34,different,4,0.16426754,0.16426754,yellow,1,0.273779233,-0.16426754,cyan,1,-0.273779233,-0.273779233,magenta,1,-0.273779233,0.16426754,green,1,0.054755847,0.054755847,black,0,0.273779233,-0.273779233,orange,0,0.05,0.05,0.15,0.16426754,0.16426754,cyan,l,99077,25,2020-09-03_23h48.16.072,CDT_GNG_IUS12,2020.1.2,Win32,60,,l,1,1.036,0,67,67,33,1,,,,,,,,,,,,,,,,,,,,,,,,,,,,,,,,,,,,,,,,,,,,,,,,
,,,,,,,,,,68,same,6,0.16426754,-0.054755847,blue,1,-0.054755847,-0.16426754,orange,1,-0.16426754,0.054755847,red,1,0.16426754,0.273779233,magenta,1,0.054755847,-0.054755847,black,1,-0.273779233,-0.273779233,yellow,1,0.05,0.05,0.15,-0.054755847,-0.16426754,orange,k,99077,25,2020-09-03_23h48.16.072,CDT_GNG_IUS12,2020.1.2,Win32,60,,l,0,0.834625,0,68,68,67,1,,,,,,,,,,,,,,,,,,,,,,,,,,,,,,,,,,,,,,,,,,,,,,,,
,,,,,,,,,,15,same,4,0.054755847,-0.273779233,yellow,1,-0.273779233,-0.054755847,cyan,1,0.273779233,0.16426754,green,1,-0.16426754,0.16426754,blue,1,0.273779233,-0.054755847,magenta,0,-0.16426754,-0.054755847,orange,0,0.05,0.05,0.15,-0.273779233,-0.054755847,cyan,k,99077,25,2020-09-03_23h48.16.072,CDT_GNG_IUS12,2020.1.2,Win32,60,,l,0,1.00246,0,69,69,14,1,,,,,,,,,,,,,,,,,,,,,,,,,,,,,,,,,,,,,,,,,,,,,,,,
,,,,,,,,,,65,same,6,-0.273779233,-0.16426754,cyan,1,-0.054755847,0.054755847,blue,1,0.054755847,-0.054755847,red,1,0.273779233,0.054755847,green,1,-0.16426754,-0.054755847,orange,1,-0.273779233,0.273779233,yellow,1,0.05,0.05,0.15,-0.273779233,-0.16426754,cyan,k,99077,25,2020-09-03_23h48.16.072,CDT_GNG_IUS12,2020.1.2,Win32,60,,k,1,1.05224,0,70,70,64,1,,,,,,,,,,,,,,,,,,,,,,,,,,,,,,,,,,,,,,,,,,,,,,,,
,,,,,,,,,,85,same,6,-0.16426754,-0.273779233,black,1,-0.16426754,0.16426754,green,1,0.16426754,-0.054755847,blue,1,0.054755847,0.054755847,magenta,1,-0.16426754,-0.054755847,red,1,-0.054755847,0.054755847,yellow,1,0.05,0.05,0.15,-0.16426754,-0.273779233,black,k,99077,25,2020-09-03_23h48.16.072,CDT_GNG_IUS12,2020.1.2,Win32,60,,k,1,0.95259,0,71,71,84,1,,,,,,,,,,,,,,,,,,,,,,,,,,,,,,,,,,,,,,,,,,,,,,,,
,,,,,,,,,,76,same,6,0.16426754,0.054755847,cyan,1,0.273779233,-0.273779233,red,1,-0.054755847,-0.273779233,magenta,1,-0.054755847,0.16426754,yellow,1,0.054755847,0.273779233,blue,1,0.054755847,-0.273779233,green,1,0.05,0.05,0.15,0.16426754,0.054755847,cyan,k,99077,25,2020-09-03_23h48.16.072,CDT_GNG_IUS12,2020.1.2,Win32,60,,k,1,1.340515,0,72,72,75,1,,,,,,,,,,,,,,,,,,,,,,,,,,,,,,,,,,,,,,,,,,,,,,,,
,,,,,,,,,,37,different,4,0.273779233,-0.273779233,cyan,1,-0.054755847,0.054755847,orange,1,-0.054755847,-0.16426754,yellow,1,0.16426754,0.054755847,blue,1,0.054755847,-0.273779233,red,0,-0.273779233,0.16426754,green,0,0.05,0.05,0.15,-0.054755847,0.054755847,green,l,99077,25,2020-09-03_23h48.16.072,CDT_GNG_IUS12,2020.1.2,Win32,60,,l,1,0.86796,0,73,73,36,1,,,,,,,,,,,,,,,,,,,,,,,,,,,,,,,,,,,,,,,,,,,,,,,,
,,,,,,,,,,80,same,6,-0.273779233,0.16426754,orange,1,0.054755847,-0.273779233,yellow,1,0.054755847,0.273779233,green,1,-0.16426754,-0.273779233,red,1,-0.16426754,0.273779233,blue,1,0.273779233,-0.16426754,black,1,0.05,0.05,0.15,0.054755847,-0.273779233,yellow,k,99077,25,2020-09-03_23h48.16.072,CDT_GNG_IUS12,2020.1.2,Win32,60,,k,1,1.301265,0,74,74,79,1,,,,,,,,,,,,,,,,,,,,,,,,,,,,,,,,,,,,,,,,,,,,,,,,
,,,,,,,,,,3,same,4,-0.054755847,-0.054755847,yellow,1,-0.054755847,0.054755847,cyan,1,0.16426754,-0.273779233,black,1,0.273779233,0.273779233,magenta,1,-0.054755847,-0.273779233,orange,0,-0.273779233,0.054755847,green,0,0.05,0.05,0.15,0.273779233,0.273779233,magenta,k,99077,25,2020-09-03_23h48.16.072,CDT_GNG_IUS12,2020.1.2,Win32,60,,k,1,1.08483,0,75,75,2,1,,,,,,,,,,,,,,,,,,,,,,,,,,,,,,,,,,,,,,,,,,,,,,,,
,,,,,,,,,,111,different,6,0.273779233,0.273779233,green,1,0.054755847,-0.16426754,red,1,-0.16426754,-0.16426754,black,1,-0.16426754,0.16426754,magenta,1,0.054755847,0.054755847,blue,1,0.273779233,-0.16426754,yellow,1,0.05,0.05,0.15,0.273779233,-0.16426754,green,l,99077,25,2020-09-03_23h48.16.072,CDT_GNG_IUS12,2020.1.2,Win32,60,,l,1,1.90382,0,76,76,110,1,,,,,,,,,,,,,,,,,,,,,,,,,,,,,,,,,,,,,,,,,,,,,,,,
,,,,,,,,,,32,different,4,-0.054755847,-0.273779233,green,1,-0.273779233,0.16426754,black,1,0.16426754,0.16426754,cyan,1,0.273779233,-0.16426754,yellow,1,-0.054755847,-0.054755847,blue,0,-0.054755847,0.273779233,orange,0,0.05,0.05,0.15,-0.054755847,-0.273779233,red,l,99077,25,2020-09-03_23h48.16.072,CDT_GNG_IUS12,2020.1.2,Win32,60,,l,1,0.96834,0,77,77,31,1,,,,,,,,,,,,,,,,,,,,,,,,,,,,,,,,,,,,,,,,,,,,,,,,
,,,,,,,,,,33,different,4,-0.273779233,0.273779233,yellow,1,0.16426754,-0.16426754,cyan,1,-0.273779233,-0.273779233,black,1,0.054755847,0.273779233,blue,1,-0.16426754,0.273779233,green,0,0.054755847,-0.273779233,orange,0,0.05,0.05,0.15,-0.273779233,-0.273779233,cyan,l,99077,25,2020-09-03_23h48.16.072,CDT_GNG_IUS12,2020.1.2,Win32,60,,k,0,1.063195,0,78,78,32,1,,,,,,,,,,,,,,,,,,,,,,,,,,,,,,,,,,,,,,,,,,,,,,,,
,,,,,,,,,,110,different,6,-0.273779233,0.273779233,black,1,0.273779233,-0.16426754,red,1,0.054755847,0.273779233,cyan,1,-0.273779233,-0.16426754,orange,1,-0.054755847,0.054755847,magenta,1,0.16426754,-0.054755847,yellow,1,0.05,0.05,0.15,0.273779233,-0.16426754,yellow,l,99077,25,2020-09-03_23h48.16.072,CDT_GNG_IUS12,2020.1.2,Win32,60,,k,0,1.069175,0,79,79,109,1,,,,,,,,,,,,,,,,,,,,,,,,,,,,,,,,,,,,,,,,,,,,,,,,
,,,,,,,,,,115,different,6,-0.16426754,0.273779233,magenta,1,-0.273779233,-0.054755847,blue,1,0.273779233,0.273779233,red,1,0.054755847,-0.273779233,cyan,1,-0.054755847,0.16426754,green,1,-0.273779233,-0.273779233,yellow,1,0.05,0.05,0.15,-0.273779233,-0.054755847,yellow,l,99077,25,2020-09-03_23h48.16.072,CDT_GNG_IUS12,2020.1.2,Win32,60,,l,1,0.993695,0,80,80,114,1,,,,,,,,,,,,,,,,,,,,,,,,,,,,,,,,,,,,,,,,,,,,,,,,
,,,,,,,,,,31,different,4,-0.16426754,0.16426754,blue,1,0.16426754,-0.054755847,magenta,1,-0.16426754,-0.054755847,yellow,1,0.054755847,0.273779233,black,1,-0.273779233,0.054755847,red,0,0.273779233,-0.273779233,cyan,0,0.05,0.05,0.15,-0.16426754,-0.054755847,black,l,99077,25,2020-09-03_23h48.16.072,CDT_GNG_IUS12,2020.1.2,Win32,60,,l,1,0.96014,0,81,81,30,1,,,,,,,,,,,,,,,,,,,,,,,,,,,,,,,,,,,,,,,,,,,,,,,,
,,,,,,,,,,59,different,4,0.16426754,-0.16426754,red,1,-0.054755847,-0.16426754,cyan,1,0.054755847,0.16426754,yellow,1,-0.16426754,0.273779233,green,1,0.16426754,-0.054755847,orange,0,-0.16426754,-0.054755847,black,0,0.05,0.05,0.15,-0.16426754,0.273779233,black,l,99077,25,2020-09-03_23h48.16.072,CDT_GNG_IUS12,2020.1.2,Win32,60,,k,0,1.49342,0,82,82,58,1,,,,,,,,,,,,,,,,,,,,,,,,,,,,,,,,,,,,,,,,,,,,,,,,
,,,,,,,,,,28,same,4,0.16426754,-0.273779233,yellow,1,-0.054755847,0.16426754,black,1,0.16426754,0.054755847,cyan,1,-0.273779233,-0.16426754,blue,1,0.273779233,-0.273779233,orange,0,-0.054755847,0.054755847,magenta,0,0.05,0.05,0.15,-0.054755847,0.16426754,black,k,99077,25,2020-09-03_23h48.16.072,CDT_GNG_IUS12,2020.1.2,Win32,60,,k,1,0.834705,0,83,83,27,1,,,,,,,,,,,,,,,,,,,,,,,,,,,,,,,,,,,,,,,,,,,,,,,,
,,,,,,,,,,25,same,4,0.16426754,-0.273779233,green,1,-0.16426754,-0.273779233,black,1,0.16426754,0.054755847,cyan,1,-0.273779233,0.273779233,blue,1,0.054755847,-0.273779233,yellow,0,-0.273779233,-0.273779233,red,0,0.05,0.05,0.15,-0.273779233,0.273779233,blue,k,99077,25,2020-09-03_23h48.16.072,CDT_GNG_IUS12,2020.1.2,Win32,60,,l,0,0.99092,0,84,84,24,1,,,,,,,,,,,,,,,,,,,,,,,,,,,,,,,,,,,,,,,,,,,,,,,,
,,,,,,,,,,118,different,6,-0.16426754,-0.16426754,red,1,0.273779233,0.16426754,orange,1,-0.16426754,0.273779233,cyan,1,0.16426754,-0.273779233,black,1,-0.054755847,-0.054755847,yellow,1,0.054755847,0.054755847,green,1,0.05,0.05,0.15,-0.054755847,-0.054755847,magenta,l,99077,25,2020-09-03_23h48.16.072,CDT_GNG_IUS12,2020.1.2,Win32,60,,l,1,1.015595,0,85,85,117,1,,,,,,,,,,,,,,,,,,,,,,,,,,,,,,,,,,,,,,,,,,,,,,,,
,,,,,,,,,,57,different,4,-0.273779233,-0.054755847,yellow,1,0.16426754,-0.054755847,green,1,-0.273779233,0.16426754,red,1,0.273779233,0.054755847,black,1,-0.16426754,-0.054755847,orange,0,0.054755847,-0.16426754,magenta,0,0.05,0.05,0.15,0.16426754,-0.054755847,orange,l,99077,25,2020-09-03_23h48.16.072,CDT_GNG_IUS12,2020.1.2,Win32,60,,l,1,0.97552,0,86,86,56,1,,,,,,,,,,,,,,,,,,,,,,,,,,,,,,,,,,,,,,,,,,,,,,,,
,,,,,,,,,,119,different,6,-0.273779233,0.054755847,cyan,1,-0.273779233,-0.273779233,blue,1,0.16426754,0.054755847,orange,1,0.054755847,-0.16426754,yellow,1,-0.273779233,0.273779233,black,1,-0.054755847,-0.054755847,green,1,0.05,0.05,0.15,-0.273779233,-0.273779233,cyan,l,99077,25,2020-09-03_23h48.16.072,CDT_GNG_IUS12,2020.1.2,Win32,60,,l,1,1.076535,0,87,87,118,1,,,,,,,,,,,,,,,,,,,,,,,,,,,,,,,,,,,,,,,,,,,,,,,,
,,,,,,,,,,73,same,6,0.054755847,0.16426754,blue,1,-0.273779233,0.273779233,red,1,-0.273779233,-0.16426754,green,1,0.054755847,-0.054755847,orange,1,0.16426754,0.16426754,black,1,-0.054755847,0.16426754,magenta,1,0.05,0.05,0.15,-0.273779233,0.273779233,red,k,99077,25,2020-09-03_23h48.16.072,CDT_GNG_IUS12,2020.1.2,Win32,60,,l,0,0.835785,0,88,88,72,1,,,,,,,,,,,,,,,,,,,,,,,,,,,,,,,,,,,,,,,,,,,,,,,,
,,,,,,,,,,108,different,6,-0.273779233,-0.054755847,magenta,1,0.054755847,0.16426754,red,1,-0.16426754,0.054755847,cyan,1,0.054755847,-0.273779233,green,1,-0.273779233,-0.16426754,orange,1,0.273779233,0.273779233,black,1,0.05,0.05,0.15,-0.273779233,-0.054755847,blue,l,99077,25,2020-09-03_23h48.16.072,CDT_GNG_IUS12,2020.1.2,Win32,60,,l,1,0.855095,0,89,89,107,1,,,,,,,,,,,,,,,,,,,,,,,,,,,,,,,,,,,,,,,,,,,,,,,,
,,,,,,,,,,90,same,6,0.16426754,-0.054755847,black,1,-0.273779233,-0.054755847,orange,1,-0.16426754,0.16426754,cyan,1,0.273779233,0.273779233,blue,1,0.054755847,-0.054755847,magenta,1,-0.273779233,-0.273779233,yellow,1,0.05,0.05,0.15,-0.273779233,-0.054755847,orange,k,99077,25,2020-09-03_23h48.16.072,CDT_GNG_IUS12,2020.1.2,Win32,60,,k,1,1.821015,0,90,90,89,1,,,,,,,,,,,,,,,,,,,,,,,,,,,,,,,,,,,,,,,,,,,,,,,,
,,,,,,,,,,24,same,4,0.054755847,-0.16426754,red,1,0.054755847,0.054755847,yellow,1,-0.273779233,0.16426754,orange,1,-0.273779233,-0.16426754,magenta,1,0.273779233,-0.16426754,black,0,0.273779233,0.273779233,green,0,0.05,0.05,0.15,0.054755847,-0.16426754,red,k,99077,25,2020-09-03_23h48.16.072,CDT_GNG_IUS12,2020.1.2,Win32,60,,l,0,0.672945,0,91,91,23,1,,,,,,,,,,,,,,,,,,,,,,,,,,,,,,,,,,,,,,,,,,,,,,,,
,,,,,,,,,,51,different,4,-0.16426754,-0.273779233,yellow,1,0.16426754,-0.273779233,cyan,1,0.273779233,0.054755847,blue,1,-0.054755847,0.273779233,green,1,-0.16426754,-0.054755847,black,0,0.273779233,-0.273779233,red,0,0.05,0.05,0.15,0.16426754,-0.273779233,red,l,99077,25,2020-09-03_23h48.16.072,CDT_GNG_IUS12,2020.1.2,Win32,60,,l,1,1.45131,0,92,92,50,1,,,,,,,,,,,,,,,,,,,,,,,,,,,,,,,,,,,,,,,,,,,,,,,,
,,,,,,,,,,42,different,4,0.273779233,0.16426754,cyan,1,-0.054755847,0.16426754,magenta,1,0.16426754,-0.054755847,green,1,-0.16426754,-0.16426754,red,1,0.16426754,0.273779233,black,0,-0.054755847,0.273779233,yellow,0,0.05,0.05,0.15,0.273779233,0.16426754,blue,l,99077,25,2020-09-03_23h48.16.072,CDT_GNG_IUS12,2020.1.2,Win32,60,,l,1,0.87947,0,93,93,41,1,,,,,,,,,,,,,,,,,,,,,,,,,,,,,,,,,,,,,,,,,,,,,,,,
,,,,,,,,,,75,same,6,0.16426754,0.273779233,magenta,1,-0.273779233,-0.16426754,green,1,-0.273779233,0.16426754,yellow,1,0.054755847,-0.054755847,red,1,0.273779233,0.054755847,blue,1,-0.16426754,-0.054755847,cyan,1,0.05,0.05,0.15,0.054755847,-0.054755847,red,k,99077,25,2020-09-03_23h48.16.072,CDT_GNG_IUS12,2020.1.2,Win32,60,,l,0,0.968,0,94,94,74,1,,,,,,,,,,,,,,,,,,,,,,,,,,,,,,,,,,,,,,,,,,,,,,,,
,,,,,,,,,,5,same,4,0.273779233,-0.054755847,green,1,0.273779233,0.054755847,orange,1,-0.054755847,0.054755847,black,1,-0.054755847,-0.16426754,blue,1,0.054755847,-0.054755847,cyan,0,0.054755847,0.273779233,red,0,0.05,0.05,0.15,-0.054755847,-0.16426754,blue,k,99077,25,2020-09-03_23h48.16.072,CDT_GNG_IUS12,2020.1.2,Win32,60,,k,1,0.8801,0,95,95,4,1,,,,,,,,,,,,,,,,,,,,,,,,,,,,,,,,,,,,,,,,,,,,,,,,
,,,,,,,,,,117,different,6,-0.054755847,0.054755847,black,1,0.054755847,0.273779233,magenta,1,-0.273779233,-0.273779233,yellow,1,0.054755847,-0.16426754,blue,1,-0.16426754,0.054755847,cyan,1,0.054755847,0.054755847,red,1,0.05,0.05,0.15,-0.16426754,0.054755847,black,l,99077,25,2020-09-03_23h48.16.072,CDT_GNG_IUS12,2020.1.2,Win32,60,,k,0,1.05108,0,96,96,116,1,,,,,,,,,,,,,,,,,,,,,,,,,,,,,,,,,,,,,,,,,,,,,,,,
,,,,,,,,,,7,same,4,-0.16426754,-0.054755847,yellow,1,0.273779233,0.16426754,magenta,1,-0.16426754,0.054755847,cyan,1,0.054755847,-0.054755847,black,1,-0.054755847,-0.054755847,orange,0,0.273779233,0.273779233,blue,0,0.05,0.05,0.15,0.054755847,-0.054755847,black,k,99077,25,2020-09-03_23h48.16.072,CDT_GNG_IUS12,2020.1.2,Win32,60,,k,1,1.25125,0,97,97,6,1,,,,,,,,,,,,,,,,,,,,,,,,,,,,,,,,,,,,,,,,,,,,,,,,
,,,,,,,,,,1,same,4,-0.16426754,-0.273779233,orange,1,0.054755847,0.16426754,yellow,1,-0.16426754,0.16426754,green,1,0.054755847,-0.054755847,red,1,-0.273779233,-0.16426754,cyan,0,0.16426754,0.16426754,blue,0,0.05,0.05,0.15,0.054755847,0.16426754,yellow,k,99077,25,2020-09-03_23h48.16.072,CDT_GNG_IUS12,2020.1.2,Win32,60,,l,0,1.634845,0,98,98,0,1,,,,,,,,,,,,,,,,,,,,,,,,,,,,,,,,,,,,,,,,,,,,,,,,
,,,,,,,,,,116,different,6,-0.273779233,0.16426754,green,1,-0.054755847,-0.054755847,orange,1,0.273779233,-0.273779233,cyan,1,0.054755847,0.273779233,red,1,-0.054755847,0.16426754,blue,1,-0.16426754,-0.054755847,yellow,1,0.05,0.05,0.15,-0.054755847,-0.054755847,magenta,l,99077,25,2020-09-03_23h48.16.072,CDT_GNG_IUS12,2020.1.2,Win32,60,,k,0,1.31909,0,99,99,115,1,,,,,,,,,,,,,,,,,,,,,,,,,,,,,,,,,,,,,,,,,,,,,,,,
,,,,,,,,,,45,different,4,0.054755847,0.16426754,blue,1,-0.054755847,-0.273779233,magenta,1,-0.16426754,0.16426754,black,1,0.054755847,-0.16426754,orange,1,0.273779233,0.273779233,green,0,-0.273779233,-0.16426754,cyan,0,0.05,0.05,0.15,-0.16426754,0.16426754,magenta,l,99077,25,2020-09-03_23h48.16.072,CDT_GNG_IUS12,2020.1.2,Win32,60,,l,1,1.001085,0,100,100,44,1,,,,,,,,,,,,,,,,,,,,,,,,,,,,,,,,,,,,,,,,,,,,,,,,
,,,,,,,,,,56,different,4,0.16426754,0.054755847,red,1,-0.054755847,0.16426754,orange,1,0.16426754,-0.16426754,black,1,-0.273779233,-0.054755847,yellow,1,0.16426754,0.273779233,blue,0,-0.054755847,0.273779233,magenta,0,0.05,0.05,0.15,-0.273779233,-0.054755847,green,l,99077,25,2020-09-03_23h48.16.072,CDT_GNG_IUS12,2020.1.2,Win32,60,,l,1,0.817675,0,101,101,55,1,,,,,,,,,,,,,,,,,,,,,,,,,,,,,,,,,,,,,,,,,,,,,,,,
,,,,,,,,,,49,different,4,-0.16426754,-0.273779233,black,1,0.16426754,0.16426754,red,1,-0.273779233,0.16426754,yellow,1,0.054755847,-0.273779233,green,1,-0.273779233,-0.273779233,magenta,0,0.054755847,0.273779233,blue,0,0.05,0.05,0.15,0.054755847,-0.273779233,orange,l,99077,25,2020-09-03_23h48.16.072,CDT_GNG_IUS12,2020.1.2,Win32,60,,l,1,1.50129,0,102,102,48,1,,,,,,,,,,,,,,,,,,,,,,,,,,,,,,,,,,,,,,,,,,,,,,,,
,,,,,,,,,,61,same,6,0.273779233,0.16426754,cyan,1,0.273779233,-0.273779233,blue,1,-0.16426754,-0.16426754,green,1,-0.16426754,0.273779233,black,1,0.16426754,0.054755847,red,1,0.273779233,-0.16426754,yellow,1,0.05,0.05,0.15,0.273779233,-0.16426754,yellow,k,99077,25,2020-09-03_23h48.16.072,CDT_GNG_IUS12,2020.1.2,Win32,60,,k,1,1.26393,0,103,103,60,1,,,,,,,,,,,,,,,,,,,,,,,,,,,,,,,,,,,,,,,,,,,,,,,,
,,,,,,,,,,99,different,6,0.054755847,0.16426754,orange,1,0.16426754,-0.16426754,yellow,1,-0.16426754,0.273779233,red,1,-0.273779233,-0.054755847,magenta,1,0.16426754,0.054755847,black,1,0.054755847,-0.054755847,green,1,0.05,0.05,0.15,-0.16426754,0.273779233,blue,l,99077,25,2020-09-03_23h48.16.072,CDT_GNG_IUS12,2020.1.2,Win32,60,,k,0,1.503195,0,104,104,98,1,,,,,,,,,,,,,,,,,,,,,,,,,,,,,,,,,,,,,,,,,,,,,,,,
,,,,,,,,,,114,different,6,-0.16426754,0.16426754,black,1,-0.054755847,-0.273779233,orange,1,0.054755847,0.16426754,magenta,1,0.273779233,-0.16426754,green,1,-0.054755847,0.16426754,cyan,1,-0.273779233,-0.273779233,yellow,1,0.05,0.05,0.15,0.054755847,0.16426754,blue,l,99077,25,2020-09-03_23h48.16.072,CDT_GNG_IUS12,2020.1.2,Win32,60,,k,0,1.357735,0,105,105,113,1,,,,,,,,,,,,,,,,,,,,,,,,,,,,,,,,,,,,,,,,,,,,,,,,
,,,,,,,,,,26,same,4,0.16426754,-0.16426754,green,1,-0.054755847,0.16426754,yellow,1,-0.273779233,-0.16426754,black,1,0.054755847,0.054755847,red,1,0.16426754,-0.054755847,cyan,0,-0.273779233,0.273779233,magenta,0,0.05,0.05,0.15,-0.054755847,0.16426754,yellow,k,99077,25,2020-09-03_23h48.16.072,CDT_GNG_IUS12,2020.1.2,Win32,60,,k,1,0.837945,0,106,106,25,1,,,,,,,,,,,,,,,,,,,,,,,,,,,,,,,,,,,,,,,,,,,,,,,,
,,,,,,,,,,13,same,4,0.16426754,0.273779233,orange,1,0.054755847,-0.273779233,blue,1,-0.054755847,0.054755847,magenta,1,-0.054755847,-0.16426754,black,1,0.054755847,0.16426754,yellow,0,0.16426754,-0.054755847,cyan,0,0.05,0.05,0.15,0.054755847,-0.273779233,blue,k,99077,25,2020-09-03_23h48.16.072,CDT_GNG_IUS12,2020.1.2,Win32,60,,k,1,1.08306,0,107,107,12,1,,,,,,,,,,,,,,,,,,,,,,,,,,,,,,,,,,,,,,,,,,,,,,,,
,,,,,,,,,,21,same,4,0.273779233,0.273779233,black,1,-0.273779233,-0.273779233,blue,1,0.054755847,-0.16426754,yellow,1,-0.273779233,0.054755847,cyan,1,0.16426754,0.273779233,magenta,0,-0.054755847,-0.054755847,green,0,0.05,0.05,0.15,0.273779233,0.273779233,black,k,99077,25,2020-09-03_23h48.16.072,CDT_GNG_IUS12,2020.1.2,Win32,60,,k,1,1.244375,0,108,108,20,1,,,,,,,,,,,,,,,,,,,,,,,,,,,,,,,,,,,,,,,,,,,,,,,,
,,,,,,,,,,2,same,4,0.273779233,0.054755847,magenta,1,-0.273779233,0.273779233,red,1,-0.054755847,-0.054755847,yellow,1,0.273779233,-0.273779233,blue,1,0.054755847,0.16426754,green,0,-0.16426754,0.054755847,cyan,0,0.05,0.05,0.15,0.273779233,-0.273779233,blue,k,99077,25,2020-09-03_23h48.16.072,CDT_GNG_IUS12,2020.1.2,Win32,60,,k,1,2.07066,0,109,109,1,1,,,,,,,,,,,,,,,,,,,,,,,,,,,,,,,,,,,,,,,,,,,,,,,,
,,,,,,,,,,29,same,4,0.273779233,0.054755847,magenta,1,-0.054755847,0.273779233,cyan,1,0.16426754,-0.054755847,green,1,-0.16426754,-0.054755847,black,1,0.273779233,0.16426754,orange,0,-0.16426754,0.054755847,blue,0,0.05,0.05,0.15,0.16426754,-0.054755847,green,k,99077,25,2020-09-03_23h48.16.072,CDT_GNG_IUS12,2020.1.2,Win32,60,,l,0,2.100515,0,110,110,28,1,,,,,,,,,,,,,,,,,,,,,,,,,,,,,,,,,,,,,,,,,,,,,,,,
,,,,,,,,,,4,same,4,0.16426754,-0.16426754,black,1,-0.054755847,0.16426754,yellow,1,0.16426754,0.16426754,blue,1,-0.16426754,-0.16426754,green,1,0.054755847,-0.16426754,magenta,0,-0.054755847,0.273779233,orange,0,0.05,0.05,0.15,0.16426754,-0.16426754,black,k,99077,25,2020-09-03_23h48.16.072,CDT_GNG_IUS12,2020.1.2,Win32,60,,k,1,0.833555,0,111,111,3,1,,,,,,,,,,,,,,,,,,,,,,,,,,,,,,,,,,,,,,,,,,,,,,,,
,,,,,,,,,,67,same,6,0.273779233,-0.054755847,magenta,1,0.16426754,0.273779233,orange,1,-0.273779233,0.273779233,cyan,1,-0.16426754,-0.054755847,yellow,1,0.16426754,-0.16426754,blue,1,0.16426754,0.16426754,red,1,0.05,0.05,0.15,-0.273779233,0.273779233,cyan,k,99077,25,2020-09-03_23h48.16.072,CDT_GNG_IUS12,2020.1.2,Win32,60,,l,0,2.13632,0,112,112,66,1,,,,,,,,,,,,,,,,,,,,,,,,,,,,,,,,,,,,,,,,,,,,,,,,
,,,,,,,,,,70,same,6,0.16426754,0.16426754,cyan,1,0.273779233,-0.273779233,red,1,-0.16426754,0.16426754,yellow,1,-0.273779233,-0.273779233,green,1,0.16426754,0.054755847,magenta,1,0.16426754,-0.054755847,blue,1,0.05,0.05,0.15,0.273779233,-0.273779233,red,k,99077,25,2020-09-03_23h48.16.072,CDT_GNG_IUS12,2020.1.2,Win32,60,,l,0,2.252755,0,113,113,69,1,,,,,,,,,,,,,,,,,,,,,,,,,,,,,,,,,,,,,,,,,,,,,,,,
,,,,,,,,,,10,same,4,0.273779233,0.273779233,green,1,-0.16426754,-0.054755847,yellow,1,-0.16426754,0.16426754,cyan,1,0.273779233,-0.16426754,blue,1,0.273779233,0.054755847,orange,0,-0.273779233,-0.16426754,red,0,0.05,0.05,0.15,0.273779233,0.273779233,green,k,99077,25,2020-09-03_23h48.16.072,CDT_GNG_IUS12,2020.1.2,Win32,60,,l,0,1.89968,0,114,114,9,1,,,,,,,,,,,,,,,,,,,,,,,,,,,,,,,,,,,,,,,,,,,,,,,,
,,,,,,,,,,74,same,6,-0.273779233,-0.273779233,magenta,1,0.16426754,0.054755847,cyan,1,-0.16426754,0.273779233,black,1,0.273779233,-0.054755847,yellow,1,-0.16426754,-0.16426754,red,1,0.054755847,0.273779233,green,1,0.05,0.05,0.15,-0.16426754,-0.16426754,red,k,99077,25,2020-09-03_23h48.16.072,CDT_GNG_IUS12,2020.1.2,Win32,60,,k,1,1.33705,0,115,115,73,1,,,,,,,,,,,,,,,,,,,,,,,,,,,,,,,,,,,,,,,,,,,,,,,,
,,,,,,,,,,109,different,6,-0.273779233,-0.16426754,blue,1,0.054755847,-0.16426754,black,1,-0.054755847,0.054755847,cyan,1,0.054755847,0.16426754,green,1,-0.054755847,-0.054755847,yellow,1,0.16426754,-0.273779233,orange,1,0.05,0.05,0.15,-0.273779233,-0.16426754,green,l,99077,25,2020-09-03_23h48.16.072,CDT_GNG_IUS12,2020.1.2,Win32,60,,l,1,1.026735,0,116,116,108,1,,,,,,,,,,,,,,,,,,,,,,,,,,,,,,,,,,,,,,,,,,,,,,,,
,,,,,,,,,,94,different,6,0.273779233,-0.273779233,green,1,-0.16426754,-0.054755847,black,1,-0.273779233,0.16426754,blue,1,0.273779233,0.054755847,cyan,1,0.16426754,-0.16426754,magenta,1,-0.054755847,-0.054755847,orange,1,0.05,0.05,0.15,0.273779233,-0.273779233,magenta,l,99077,25,2020-09-03_23h48.16.072,CDT_GNG_IUS12,2020.1.2,Win32,60,,k,0,1.06215,0,117,117,93,1,,,,,,,,,,,,,,,,,,,,,,,,,,,,,,,,,,,,,,,,,,,,,,,,
,,,,,,,,,,39,different,4,0.054755847,0.054755847,green,1,0.273779233,-0.16426754,yellow,1,-0.16426754,0.054755847,orange,1,-0.273779233,-0.054755847,red,1,0.273779233,0.054755847,blue,0,0.054755847,-0.16426754,cyan,0,0.05,0.05,0.15,-0.273779233,-0.054755847,cyan,l,99077,25,2020-09-03_23h48.16.072,CDT_GNG_IUS12,2020.1.2,Win32,60,,l,1,0.949995,0,118,118,38,1,,,,,,,,,,,,,,,,,,,,,,,,,,,,,,,,,,,,,,,,,,,,,,,,
,,,,,,,,,,86,same,6,0.054755847,0.273779233,green,1,-0.054755847,0.273779233,red,1,0.16426754,-0.16426754,yellow,1,-0.054755847,-0.273779233,black,1,0.273779233,0.273779233,cyan,1,-0.273779233,0.054755847,orange,1,0.05,0.05,0.15,-0.273779233,0.054755847,orange,k,99077,25,2020-09-03_23h48.16.072,CDT_GNG_IUS12,2020.1.2,Win32,60,,l,0,0.883565,0,119,119,85,1,,,,,,,,,,,,,,,,,,,,,,,,,,,,,,,,,,,,,,,,,,,,,,,,
,,,,,,,,,,,,,,,,,,,,,,,,,,,,,,,,,,,,,,,,,,,,99077,25,2020-09-03_23h48.16.072,CDT_GNG_IUS12,2020.1.2,Win32,60,,,,,,,,,,,1,0,0,0,2,1,1,0,,,,,,,,,,,,,,,,,,,,,,,,,,,,,,,,,,,,,,,
,,,,,,,,,,,,,,,,,,,,,,,,,,,,,,,,,,,,,,,,,,,space,99077,25,2020-09-03_23h48.16.072,CDT_GNG_IUS12,2020.1.2,Win32,60,,,,,,,,,,,0,0,1,1,5,1,0,1,,,,,,,,,,,,,,,,,,,,,,,,,,,,,,,,,,,,,,,
,,,,,,,,,,,,,,,,,,,,,,,,,,,,,,,,,,,,,,,,,,,space,99077,25,2020-09-03_23h48.16.072,CDT_GNG_IUS12,2020.1.2,Win32,60,,,,,,,,,,,0,0,2,2,7,1,0,1,,,,,,,,,,,,,,,,,,,,,,,,,,,,,,,,,,,,,,,
,,,,,,,,,,,,,,,,,,,,,,,,,,,,,,,,,,,,,,,,,,,space,99077,25,2020-09-03_23h48.16.072,CDT_GNG_IUS12,2020.1.2,Win32,60,,,,,,,,,,space,1,0,3,3,6,1,0,1,0.88798,,,,,,,,,,,,,,,,,,,,,,,,,,,,,,,,,,,,,,
,,,,,,,,,,,,,,,,,,,,,,,,,,,,,,,,,,,,,,,,,,,,99077,25,2020-09-03_23h48.16.072,CDT_GNG_IUS12,2020.1.2,Win32,60,,,,,,,,,,,1,0,4,4,3,1,1,0,,,,,,,,,,,,,,,,,,,,,,,,,,,,,,,,,,,,,,,
,,,,,,,,,,,,,,,,,,,,,,,,,,,,,,,,,,,,,,,,,,,,99077,25,2020-09-03_23h48.16.072,CDT_GNG_IUS12,2020.1.2,Win32,60,,,,,,,,,,,1,0,5,5,0,1,1,0,,,,,,,,,,,,,,,,,,,,,,,,,,,,,,,,,,,,,,,
,,,,,,,,,,,,,,,,,,,,,,,,,,,,,,,,,,,,,,,,,,,space,99077,25,2020-09-03_23h48.16.072,CDT_GNG_IUS12,2020.1.2,Win32,60,,,,,,,,,,space,1,0,6,6,4,1,0,1,0.339085,,,,,,,,,,,,,,,,,,,,,,,,,,,,,,,,,,,,,,
,,,,,,,,,,,,,,,,,,,,,,,,,,,,,,,,,,,,,,,,,,,,99077,25,2020-09-03_23h48.16.072,CDT_GNG_IUS12,2020.1.2,Win32,60,,,,,,,,,,,1,0,7,7,1,1,1,0,,,,,,,,,,,,,,,,,,,,,,,,,,,,,,,,,,,,,,,
,,,,,,,,,,,,,,,,,,,,,,,,,,,,,,,,,,,,,,,,,,,space,99077,25,2020-09-03_23h48.16.072,CDT_GNG_IUS12,2020.1.2,Win32,60,,,,,,,,,,,,,,,,,0,1,,,0,0,0,0,15,1,,,,,,,,,,,,,,,,,,,,,,,,,,,,,,,
,,,,,,,,,,,,,,,,,,,,,,,,,,,,,,,,,,,,,,,,,,,space,99077,25,2020-09-03_23h48.16.072,CDT_GNG_IUS12,2020.1.2,Win32,60,,,,,,,,,,,,,,,,,0,1,,,0,0,1,1,18,1,,,,,,,,,,,,,,,,,,,,,,,,,,,,,,,
,,,,,,,,,,,,,,,,,,,,,,,,,,,,,,,,,,,,,,,,,,,,99077,25,2020-09-03_23h48.16.072,CDT_GNG_IUS12,2020.1.2,Win32,60,,,,,,,,,,,,,,,,,1,0,,,1,0,2,2,9,1,,,,,,,,,,,,,,,,,,,,,,,,,,,,,,,
,,,,,,,,,,,,,,,,,,,,,,,,,,,,,,,,,,,,,,,,,,,,99077,25,2020-09-03_23h48.16.072,CDT_GNG_IUS12,2020.1.2,Win32,60,,,,,,,,,,,,,,,,,1,0,,,1,0,3,3,1,1,,,,,,,,,,,,,,,,,,,,,,,,,,,,,,,
,,,,,,,,,,,,,,,,,,,,,,,,,,,,,,,,,,,,,,,,,,,space,99077,25,2020-09-03_23h48.16.072,CDT_GNG_IUS12,2020.1.2,Win32,60,,,,,,,,,,,,,,,,,0,1,,space,1,0,4,4,30,1,0.43945,,,,,,,,,,,,,,,,,,,,,,,,,,,,,,
,,,,,,,,,,,,,,,,,,,,,,,,,,,,,,,,,,,,,,,,,,,space,99077,25,2020-09-03_23h48.16.072,CDT_GNG_IUS12,2020.1.2,Win32,60,,,,,,,,,,,,,,,,,0,1,,space,1,0,5,5,49,1,0.512235,,,,,,,,,,,,,,,,,,,,,,,,,,,,,,
,,,,,,,,,,,,,,,,,,,,,,,,,,,,,,,,,,,,,,,,,,,,99077,25,2020-09-03_23h48.16.072,CDT_GNG_IUS12,2020.1.2,Win32,60,,,,,,,,,,,,,,,,,1,0,,,1,0,6,6,6,1,,,,,,,,,,,,,,,,,,,,,,,,,,,,,,,
,,,,,,,,,,,,,,,,,,,,,,,,,,,,,,,,,,,,,,,,,,,,99077,25,2020-09-03_23h48.16.072,CDT_GNG_IUS12,2020.1.2,Win32,60,,,,,,,,,,,,,,,,,1,0,,,1,0,7,7,3,1,,,,,,,,,,,,,,,,,,,,,,,,,,,,,,,
,,,,,,,,,,,,,,,,,,,,,,,,,,,,,,,,,,,,,,,,,,,space,99077,25,2020-09-03_23h48.16.072,CDT_GNG_IUS12,2020.1.2,Win32,60,,,,,,,,,,,,,,,,,0,1,,space,1,0,8,8,44,1,0.44705,,,,,,,,,,,,,,,,,,,,,,,,,,,,,,
,,,,,,,,,,,,,,,,,,,,,,,,,,,,,,,,,,,,,,,,,,,space,99077,25,2020-09-03_23h48.16.072,CDT_GNG_IUS12,2020.1.2,Win32,60,,,,,,,,,,,,,,,,,0,1,,space,1,0,9,9,47,1,0.38818,,,,,,,,,,,,,,,,,,,,,,,,,,,,,,
,,,,,,,,,,,,,,,,,,,,,,,,,,,,,,,,,,,,,,,,,,,space,99077,25,2020-09-03_23h48.16.072,CDT_GNG_IUS12,2020.1.2,Win32,60,,,,,,,,,,,,,,,,,0,1,,space,1,0,10,10,31,1,0.333505,,,,,,,,,,,,,,,,,,,,,,,,,,,,,,
,,,,,,,,,,,,,,,,,,,,,,,,,,,,,,,,,,,,,,,,,,,space,99077,25,2020-09-03_23h48.16.072,CDT_GNG_IUS12,2020.1.2,Win32,60,,,,,,,,,,,,,,,,,0,1,,space,1,0,11,11,39,1,0.07513,,,,,,,,,,,,,,,,,,,,,,,,,,,,,,
,,,,,,,,,,,,,,,,,,,,,,,,,,,,,,,,,,,,,,,,,,,space,99077,25,2020-09-03_23h48.16.072,CDT_GNG_IUS12,2020.1.2,Win32,60,,,,,,,,,,,,,,,,,0,1,,space,1,0,12,12,27,1,0.32221,,,,,,,,,,,,,,,,,,,,,,,,,,,,,,
,,,,,,,,,,,,,,,,,,,,,,,,,,,,,,,,,,,,,,,,,,,space,99077,25,2020-09-03_23h48.16.072,CDT_GNG_IUS12,2020.1.2,Win32,60,,,,,,,,,,,,,,,,,0,1,,space,1,0,13,13,46,1,0.28997,,,,,,,,,,,,,,,,,,,,,,,,,,,,,,
,,,,,,,,,,,,,,,,,,,,,,,,,,,,,,,,,,,,,,,,,,,,99077,25,2020-09-03_23h48.16.072,CDT_GNG_IUS12,2020.1.2,Win32,60,,,,,,,,,,,,,,,,,1,0,,space,0,0,14,14,8,1,0.32952,,,,,,,,,,,,,,,,,,,,,,,,,,,,,,
,,,,,,,,,,,,,,,,,,,,,,,,,,,,,,,,,,,,,,,,,,,space,99077,25,2020-09-03_23h48.16.072,CDT_GNG_IUS12,2020.1.2,Win32,60,,,,,,,,,,,,,,,,,0,1,,,0,0,15,15,23,1,,,,,,,,,,,,,,,,,,,,,,,,,,,,,,,
,,,,,,,,,,,,,,,,,,,,,,,,,,,,,,,,,,,,,,,,,,,space,99077,25,2020-09-03_23h48.16.072,CDT_GNG_IUS12,2020.1.2,Win32,60,,,,,,,,,,,,,,,,,0,1,,,0,0,16,16,38,1,,,,,,,,,,,,,,,,,,,,,,,,,,,,,,,
,,,,,,,,,,,,,,,,,,,,,,,,,,,,,,,,,,,,,,,,,,,space,99077,25,2020-09-03_23h48.16.072,CDT_GNG_IUS12,2020.1.2,Win32,60,,,,,,,,,,,,,,,,,0,1,,space,1,0,17,17,28,1,0.16085,,,,,,,,,,,,,,,,,,,,,,,,,,,,,,
,,,,,,,,,,,,,,,,,,,,,,,,,,,,,,,,,,,,,,,,,,,space,99077,25,2020-09-03_23h48.16.072,CDT_GNG_IUS12,2020.1.2,Win32,60,,,,,,,,,,,,,,,,,0,1,,space,1,0,18,18,43,1,0.435085,,,,,,,,,,,,,,,,,,,,,,,,,,,,,,
,,,,,,,,,,,,,,,,,,,,,,,,,,,,,,,,,,,,,,,,,,,space,99077,25,2020-09-03_23h48.16.072,CDT_GNG_IUS12,2020.1.2,Win32,60,,,,,,,,,,,,,,,,,0,1,,space,1,0,19,19,37,1,0.331735,,,,,,,,,,,,,,,,,,,,,,,,,,,,,,
,,,,,,,,,,,,,,,,,,,,,,,,,,,,,,,,,,,,,,,,,,,space,99077,25,2020-09-03_23h48.16.072,CDT_GNG_IUS12,2020.1.2,Win32,60,,,,,,,,,,,,,,,,,0,1,,space,1,0,20,20,16,1,0.28132,,,,,,,,,,,,,,,,,,,,,,,,,,,,,,
,,,,,,,,,,,,,,,,,,,,,,,,,,,,,,,,,,,,,,,,,,,space,99077,25,2020-09-03_23h48.16.072,CDT_GNG_IUS12,2020.1.2,Win32,60,,,,,,,,,,,,,,,,,0,1,,space,1,0,21,21,22,1,0.460565,,,,,,,,,,,,,,,,,,,,,,,,,,,,,,
,,,,,,,,,,,,,,,,,,,,,,,,,,,,,,,,,,,,,,,,,,,space,99077,25,2020-09-03_23h48.16.072,CDT_GNG_IUS12,2020.1.2,Win32,60,,,,,,,,,,,,,,,,,0,1,,space,1,0,22,22,17,1,0.400145,,,,,,,,,,,,,,,,,,,,,,,,,,,,,,
,,,,,,,,,,,,,,,,,,,,,,,,,,,,,,,,,,,,,,,,,,,space,99077,25,2020-09-03_23h48.16.072,CDT_GNG_IUS12,2020.1.2,Win32,60,,,,,,,,,,,,,,,,,0,1,,space,1,0,23,23,24,1,0.36916,,,,,,,,,,,,,,,,,,,,,,,,,,,,,,
,,,,,,,,,,,,,,,,,,,,,,,,,,,,,,,,,,,,,,,,,,,space,99077,25,2020-09-03_23h48.16.072,CDT_GNG_IUS12,2020.1.2,Win32,60,,,,,,,,,,,,,,,,,0,1,,space,1,0,24,24,11,1,0.28608,,,,,,,,,,,,,,,,,,,,,,,,,,,,,,
,,,,,,,,,,,,,,,,,,,,,,,,,,,,,,,,,,,,,,,,,,,space,99077,25,2020-09-03_23h48.16.072,CDT_GNG_IUS12,2020.1.2,Win32,60,,,,,,,,,,,,,,,,,0,1,,space,1,0,25,25,34,1,0.319945,,,,,,,,,,,,,,,,,,,,,,,,,,,,,,
,,,,,,,,,,,,,,,,,,,,,,,,,,,,,,,,,,,,,,,,,,,space,99077,25,2020-09-03_23h48.16.072,CDT_GNG_IUS12,2020.1.2,Win32,60,,,,,,,,,,,,,,,,,0,1,,space,1,0,26,26,12,1,0.239015,,,,,,,,,,,,,,,,,,,,,,,,,,,,,,
,,,,,,,,,,,,,,,,,,,,,,,,,,,,,,,,,,,,,,,,,,,space,99077,25,2020-09-03_23h48.16.072,CDT_GNG_IUS12,2020.1.2,Win32,60,,,,,,,,,,,,,,,,,0,1,,space,1,0,27,27,25,1,0.248975,,,,,,,,,,,,,,,,,,,,,,,,,,,,,,
,,,,,,,,,,,,,,,,,,,,,,,,,,,,,,,,,,,,,,,,,,,space,99077,25,2020-09-03_23h48.16.072,CDT_GNG_IUS12,2020.1.2,Win32,60,,,,,,,,,,,,,,,,,0,1,,space,1,0,28,28,35,1,0.20599,,,,,,,,,,,,,,,,,,,,,,,,,,,,,,
,,,,,,,,,,,,,,,,,,,,,,,,,,,,,,,,,,,,,,,,,,,space,99077,25,2020-09-03_23h48.16.072,CDT_GNG_IUS12,2020.1.2,Win32,60,,,,,,,,,,,,,,,,,0,1,,space,1,0,29,29,45,1,0.13245,,,,,,,,,,,,,,,,,,,,,,,,,,,,,,
,,,,,,,,,,,,,,,,,,,,,,,,,,,,,,,,,,,,,,,,,,,space,99077,25,2020-09-03_23h48.16.072,CDT_GNG_IUS12,2020.1.2,Win32,60,,,,,,,,,,,,,,,,,0,1,,space,1,0,30,30,26,1,0.053955,,,,,,,,,,,,,,,,,,,,,,,,,,,,,,
,,,,,,,,,,,,,,,,,,,,,,,,,,,,,,,,,,,,,,,,,,,,99077,25,2020-09-03_23h48.16.072,CDT_GNG_IUS12,2020.1.2,Win32,60,,,,,,,,,,,,,,,,,1,0,,space,0,0,31,31,5,1,0.03989,,,,,,,,,,,,,,,,,,,,,,,,,,,,,,
,,,,,,,,,,,,,,,,,,,,,,,,,,,,,,,,,,,,,,,,,,,space,99077,25,2020-09-03_23h48.16.072,CDT_GNG_IUS12,2020.1.2,Win32,60,,,,,,,,,,,,,,,,,0,1,,,0,0,32,32,36,1,,,,,,,,,,,,,,,,,,,,,,,,,,,,,,,
,,,,,,,,,,,,,,,,,,,,,,,,,,,,,,,,,,,,,,,,,,,space,99077,25,2020-09-03_23h48.16.072,CDT_GNG_IUS12,2020.1.2,Win32,60,,,,,,,,,,,,,,,,,0,1,,space,1,0,33,33,14,1,0.058535,,,,,,,,,,,,,,,,,,,,,,,,,,,,,,
,,,,,,,,,,,,,,,,,,,,,,,,,,,,,,,,,,,,,,,,,,,space,99077,25,2020-09-03_23h48.16.072,CDT_GNG_IUS12,2020.1.2,Win32,60,,,,,,,,,,,,,,,,,0,1,,space,1,0,34,34,10,1,0.128485,,,,,,,,,,,,,,,,,,,,,,,,,,,,,,
,,,,,,,,,,,,,,,,,,,,,,,,,,,,,,,,,,,,,,,,,,,space,99077,25,2020-09-03_23h48.16.072,CDT_GNG_IUS12,2020.1.2,Win32,60,,,,,,,,,,,,,,,,,0,1,,space,1,0,35,35,33,1,0.025495,,,,,,,,,,,,,,,,,,,,,,,,,,,,,,
,,,,,,,,,,,,,,,,,,,,,,,,,,,,,,,,,,,,,,,,,,,space,99077,25,2020-09-03_23h48.16.072,CDT_GNG_IUS12,2020.1.2,Win32,60,,,,,,,,,,,,,,,,,0,1,,space,1,0,36,36,41,1,0.49396,,,,,,,,,,,,,,,,,,,,,,,,,,,,,,
,,,,,,,,,,,,,,,,,,,,,,,,,,,,,,,,,,,,,,,,,,,space,99077,25,2020-09-03_23h48.16.072,CDT_GNG_IUS12,2020.1.2,Win32,60,,,,,,,,,,,,,,,,,0,1,,space,1,0,37,37,40,1,0.476615,,,,,,,,,,,,,,,,,,,,,,,,,,,,,,
,,,,,,,,,,,,,,,,,,,,,,,,,,,,,,,,,,,,,,,,,,,space,99077,25,2020-09-03_23h48.16.072,CDT_GNG_IUS12,2020.1.2,Win32,60,,,,,,,,,,,,,,,,,0,1,,space,1,0,38,38,42,1,0.377285,,,,,,,,,,,,,,,,,,,,,,,,,,,,,,
,,,,,,,,,,,,,,,,,,,,,,,,,,,,,,,,,,,,,,,,,,,,99077,25,2020-09-03_23h48.16.072,CDT_GNG_IUS12,2020.1.2,Win32,60,,,,,,,,,,,,,,,,,1,0,,space,0,0,39,39,7,1,0.333545,,,,,,,,,,,,,,,,,,,,,,,,,,,,,,
,,,,,,,,,,,,,,,,,,,,,,,,,,,,,,,,,,,,,,,,,,,,99077,25,2020-09-03_23h48.16.072,CDT_GNG_IUS12,2020.1.2,Win32,60,,,,,,,,,,,,,,,,,1,0,,,1,0,40,40,0,1,,,,,,,,,,,,,,,,,,,,,,,,,,,,,,,
,,,,,,,,,,,,,,,,,,,,,,,,,,,,,,,,,,,,,,,,,,,space,99077,25,2020-09-03_23h48.16.072,CDT_GNG_IUS12,2020.1.2,Win32,60,,,,,,,,,,,,,,,,,0,1,,space,1,0,41,41,13,1,0.36732,,,,,,,,,,,,,,,,,,,,,,,,,,,,,,
,,,,,,,,,,,,,,,,,,,,,,,,,,,,,,,,,,,,,,,,,,,space,99077,25,2020-09-03_23h48.16.072,CDT_GNG_IUS12,2020.1.2,Win32,60,,,,,,,,,,,,,,,,,0,1,,space,1,0,42,42,20,1,0.41711,,,,,,,,,,,,,,,,,,,,,,,,,,,,,,
,,,,,,,,,,,,,,,,,,,,,,,,,,,,,,,,,,,,,,,,,,,space,99077,25,2020-09-03_23h48.16.072,CDT_GNG_IUS12,2020.1.2,Win32,60,,,,,,,,,,,,,,,,,0,1,,space,1,0,43,43,19,1,0.40053,,,,,,,,,,,,,,,,,,,,,,,,,,,,,,
,,,,,,,,,,,,,,,,,,,,,,,,,,,,,,,,,,,,,,,,,,,,99077,25,2020-09-03_23h48.16.072,CDT_GNG_IUS12,2020.1.2,Win32,60,,,,,,,,,,,,,,,,,1,0,,,1,0,44,44,2,1,,,,,,,,,,,,,,,,,,,,,,,,,,,,,,,
,,,,,,,,,,,,,,,,,,,,,,,,,,,,,,,,,,,,,,,,,,,space,99077,25,2020-09-03_23h48.16.072,CDT_GNG_IUS12,2020.1.2,Win32,60,,,,,,,,,,,,,,,,,0,1,,,0,0,45,45,21,1,,,,,,,,,,,,,,,,,,,,,,,,,,,,,,,
,,,,,,,,,,,,,,,,,,,,,,,,,,,,,,,,,,,,,,,,,,,space,99077,25,2020-09-03_23h48.16.072,CDT_GNG_IUS12,2020.1.2,Win32,60,,,,,,,,,,,,,,,,,0,1,,space,1,0,46,46,48,1,0.150695,,,,,,,,,,,,,,,,,,,,,,,,,,,,,,
,,,,,,,,,,,,,,,,,,,,,,,,,,,,,,,,,,,,,,,,,,,space,99077,25,2020-09-03_23h48.16.072,CDT_GNG_IUS12,2020.1.2,Win32,60,,,,,,,,,,,,,,,,,0,1,,space,1,0,47,47,32,1,0.232355,,,,,,,,,,,,,,,,,,,,,,,,,,,,,,
,,,,,,,,,,,,,,,,,,,,,,,,,,,,,,,,,,,,,,,,,,,,99077,25,2020-09-03_23h48.16.072,CDT_GNG_IUS12,2020.1.2,Win32,60,,,,,,,,,,,,,,,,,1,0,,space,0,0,48,48,4,1,0.09889,,,,,,,,,,,,,,,,,,,,,,,,,,,,,,
,,,,,,,,,,,,,,,,,,,,,,,,,,,,,,,,,,,,,,,,,,,space,99077,25,2020-09-03_23h48.16.072,CDT_GNG_IUS12,2020.1.2,Win32,60,,,,,,,,,,,,,,,,,0,1,,,0,0,49,49,29,1,,,,,,,,,,,,,,,,,,,,,,,,,,,,,,,
,,,,,,,,,,,,,,,,,,,,,,,,,,,,,,,,,,,,,,,,,,,space,99077,25,2020-09-03_23h48.16.072,CDT_GNG_IUS12,2020.1.2,Win32,60,,,,,,,,,,,,,,,,,0,1,,space,1,,,,,,0.563765,0,0,0,17,1,,,,,,,,,,,,,,,,,,,,,,,,,
,,,,,,,,,,,,,,,,,,,,,,,,,,,,,,,,,,,,,,,,,,,space,99077,25,2020-09-03_23h48.16.072,CDT_GNG_IUS12,2020.1.2,Win32,60,,,,,,,,,,,,,,,,,0,1,,space,1,,,,,,0.367965,0,1,1,27,1,,,,,,,,,,,,,,,,,,,,,,,,,
,,,,,,,,,,,,,,,,,,,,,,,,,,,,,,,,,,,,,,,,,,,,99077,25,2020-09-03_23h48.16.072,CDT_GNG_IUS12,2020.1.2,Win32,60,,,,,,,,,,,,,,,,,1,0,,space,0,,,,,,0.264965,0,2,2,5,1,,,,,,,,,,,,,,,,,,,,,,,,,
,,,,,,,,,,,,,,,,,,,,,,,,,,,,,,,,,,,,,,,,,,,space,99077,25,2020-09-03_23h48.16.072,CDT_GNG_IUS12,2020.1.2,Win32,60,,,,,,,,,,,,,,,,,0,1,,,0,,,,,,,0,3,3,16,1,,,,,,,,,,,,,,,,,,,,,,,,,
,,,,,,,,,,,,,,,,,,,,,,,,,,,,,,,,,,,,,,,,,,,space,99077,25,2020-09-03_23h48.16.072,CDT_GNG_IUS12,2020.1.2,Win32,60,,,,,,,,,,,,,,,,,0,1,,space,1,,,,,,0.160405,0,4,4,47,1,,,,,,,,,,,,,,,,,,,,,,,,,
,,,,,,,,,,,,,,,,,,,,,,,,,,,,,,,,,,,,,,,,,,,space,99077,25,2020-09-03_23h48.16.072,CDT_GNG_IUS12,2020.1.2,Win32,60,,,,,,,,,,,,,,,,,0,1,,space,1,,,,,,0.38246,0,5,5,15,1,,,,,,,,,,,,,,,,,,,,,,,,,
,,,,,,,,,,,,,,,,,,,,,,,,,,,,,,,,,,,,,,,,,,,space,99077,25,2020-09-03_23h48.16.072,CDT_GNG_IUS12,2020.1.2,Win32,60,,,,,,,,,,,,,,,,,0,1,,space,1,,,,,,0.317125,0,6,6,43,1,,,,,,,,,,,,,,,,,,,,,,,,,
,,,,,,,,,,,,,,,,,,,,,,,,,,,,,,,,,,,,,,,,,,,space,99077,25,2020-09-03_23h48.16.072,CDT_GNG_IUS12,2020.1.2,Win32,60,,,,,,,,,,,,,,,,,0,1,,space,1,,,,,,0.23632,0,7,7,37,1,,,,,,,,,,,,,,,,,,,,,,,,,
,,,,,,,,,,,,,,,,,,,,,,,,,,,,,,,,,,,,,,,,,,,space,99077,25,2020-09-03_23h48.16.072,CDT_GNG_IUS12,2020.1.2,Win32,60,,,,,,,,,,,,,,,,,0,1,,space,1,,,,,,0.33141,0,8,8,49,1,,,,,,,,,,,,,,,,,,,,,,,,,
,,,,,,,,,,,,,,,,,,,,,,,,,,,,,,,,,,,,,,,,,,,space,99077,25,2020-09-03_23h48.16.072,CDT_GNG_IUS12,2020.1.2,Win32,60,,,,,,,,,,,,,,,,,0,1,,space,1,,,,,,0.28391,0,9,9,23,1,,,,,,,,,,,,,,,,,,,,,,,,,
,,,,,,,,,,,,,,,,,,,,,,,,,,,,,,,,,,,,,,,,,,,space,99077,25,2020-09-03_23h48.16.072,CDT_GNG_IUS12,2020.1.2,Win32,60,,,,,,,,,,,,,,,,,0,1,,space,1,,,,,,0.26819,0,10,10,32,1,,,,,,,,,,,,,,,,,,,,,,,,,
,,,,,,,,,,,,,,,,,,,,,,,,,,,,,,,,,,,,,,,,,,,space,99077,25,2020-09-03_23h48.16.072,CDT_GNG_IUS12,2020.1.2,Win32,60,,,,,,,,,,,,,,,,,0,1,,space,1,,,,,,0.21719,0,11,11,46,1,,,,,,,,,,,,,,,,,,,,,,,,,
,,,,,,,,,,,,,,,,,,,,,,,,,,,,,,,,,,,,,,,,,,,space,99077,25,2020-09-03_23h48.16.072,CDT_GNG_IUS12,2020.1.2,Win32,60,,,,,,,,,,,,,,,,,0,1,,space,1,,,,,,0.172325,0,12,12,19,1,,,,,,,,,,,,,,,,,,,,,,,,,
,,,,,,,,,,,,,,,,,,,,,,,,,,,,,,,,,,,,,,,,,,,,99077,25,2020-09-03_23h48.16.072,CDT_GNG_IUS12,2020.1.2,Win32,60,,,,,,,,,,,,,,,,,1,0,,space,0,,,,,,0.09243,0,13,13,4,1,,,,,,,,,,,,,,,,,,,,,,,,,
,,,,,,,,,,,,,,,,,,,,,,,,,,,,,,,,,,,,,,,,,,,space,99077,25,2020-09-03_23h48.16.072,CDT_GNG_IUS12,2020.1.2,Win32,60,,,,,,,,,,,,,,,,,0,1,,,0,,,,,,,0,14,14,18,1,,,,,,,,,,,,,,,,,,,,,,,,,
,,,,,,,,,,,,,,,,,,,,,,,,,,,,,,,,,,,,,,,,,,,,99077,25,2020-09-03_23h48.16.072,CDT_GNG_IUS12,2020.1.2,Win32,60,,,,,,,,,,,,,,,,,1,0,,space,0,,,,,,0.136715,0,15,15,2,1,,,,,,,,,,,,,,,,,,,,,,,,,
,,,,,,,,,,,,,,,,,,,,,,,,,,,,,,,,,,,,,,,,,,,space,99077,25,2020-09-03_23h48.16.072,CDT_GNG_IUS12,2020.1.2,Win32,60,,,,,,,,,,,,,,,,,0,1,,space,1,,,,,,0.21608,0,16,16,25,1,,,,,,,,,,,,,,,,,,,,,,,,,
,,,,,,,,,,,,,,,,,,,,,,,,,,,,,,,,,,,,,,,,,,,space,99077,25,2020-09-03_23h48.16.072,CDT_GNG_IUS12,2020.1.2,Win32,60,,,,,,,,,,,,,,,,,0,1,,,0,,,,,,,0,17,17,39,1,,,,,,,,,,,,,,,,,,,,,,,,,
,,,,,,,,,,,,,,,,,,,,,,,,,,,,,,,,,,,,,,,,,,,space,99077,25,2020-09-03_23h48.16.072,CDT_GNG_IUS12,2020.1.2,Win32,60,,,,,,,,,,,,,,,,,0,1,,space,1,,,,,,0.35137,0,18,18,48,1,,,,,,,,,,,,,,,,,,,,,,,,,
,,,,,,,,,,,,,,,,,,,,,,,,,,,,,,,,,,,,,,,,,,,space,99077,25,2020-09-03_23h48.16.072,CDT_GNG_IUS12,2020.1.2,Win32,60,,,,,,,,,,,,,,,,,0,1,,space,1,,,,,,0.34963,0,19,19,10,1,,,,,,,,,,,,,,,,,,,,,,,,,
,,,,,,,,,,,,,,,,,,,,,,,,,,,,,,,,,,,,,,,,,,,space,99077,25,2020-09-03_23h48.16.072,CDT_GNG_IUS12,2020.1.2,Win32,60,,,,,,,,,,,,,,,,,0,1,,space,1,,,,,,0.30421,0,20,20,35,1,,,,,,,,,,,,,,,,,,,,,,,,,
,,,,,,,,,,,,,,,,,,,,,,,,,,,,,,,,,,,,,,,,,,,space,99077,25,2020-09-03_23h48.16.072,CDT_GNG_IUS12,2020.1.2,Win32,60,,,,,,,,,,,,,,,,,0,1,,space,1,,,,,,0.282085,0,21,21,11,1,,,,,,,,,,,,,,,,,,,,,,,,,
,,,,,,,,,,,,,,,,,,,,,,,,,,,,,,,,,,,,,,,,,,,space,99077,25,2020-09-03_23h48.16.072,CDT_GNG_IUS12,2020.1.2,Win32,60,,,,,,,,,,,,,,,,,0,1,,space,1,,,,,,0.165725,0,22,22,29,1,,,,,,,,,,,,,,,,,,,,,,,,,
,,,,,,,,,,,,,,,,,,,,,,,,,,,,,,,,,,,,,,,,,,,space,99077,25,2020-09-03_23h48.16.072,CDT_GNG_IUS12,2020.1.2,Win32,60,,,,,,,,,,,,,,,,,0,1,,space,1,,,,,,0.258315,0,23,23,20,1,,,,,,,,,,,,,,,,,,,,,,,,,
,,,,,,,,,,,,,,,,,,,,,,,,,,,,,,,,,,,,,,,,,,,space,99077,25,2020-09-03_23h48.16.072,CDT_GNG_IUS12,2020.1.2,Win32,60,,,,,,,,,,,,,,,,,0,1,,space,1,,,,,,0.25446,0,24,24,42,1,,,,,,,,,,,,,,,,,,,,,,,,,
,,,,,,,,,,,,,,,,,,,,,,,,,,,,,,,,,,,,,,,,,,,space,99077,25,2020-09-03_23h48.16.072,CDT_GNG_IUS12,2020.1.2,Win32,60,,,,,,,,,,,,,,,,,0,1,,space,1,,,,,,0.169475,0,25,25,34,1,,,,,,,,,,,,,,,,,,,,,,,,,
,,,,,,,,,,,,,,,,,,,,,,,,,,,,,,,,,,,,,,,,,,,space,99077,25,2020-09-03_23h48.16.072,CDT_GNG_IUS12,2020.1.2,Win32,60,,,,,,,,,,,,,,,,,0,1,,space,1,,,,,,0.20961,0,26,26,13,1,,,,,,,,,,,,,,,,,,,,,,,,,
,,,,,,,,,,,,,,,,,,,,,,,,,,,,,,,,,,,,,,,,,,,,99077,25,2020-09-03_23h48.16.072,CDT_GNG_IUS12,2020.1.2,Win32,60,,,,,,,,,,,,,,,,,1,0,,space,0,,,,,,0.18259,0,27,27,7,1,,,,,,,,,,,,,,,,,,,,,,,,,
,,,,,,,,,,,,,,,,,,,,,,,,,,,,,,,,,,,,,,,,,,,space,99077,25,2020-09-03_23h48.16.072,CDT_GNG_IUS12,2020.1.2,Win32,60,,,,,,,,,,,,,,,,,0,1,,,0,,,,,,,0,28,28,26,1,,,,,,,,,,,,,,,,,,,,,,,,,
,,,,,,,,,,,,,,,,,,,,,,,,,,,,,,,,,,,,,,,,,,,,99077,25,2020-09-03_23h48.16.072,CDT_GNG_IUS12,2020.1.2,Win32,60,,,,,,,,,,,,,,,,,1,0,,space,0,,,,,,0.06795,0,29,29,6,1,,,,,,,,,,,,,,,,,,,,,,,,,
,,,,,,,,,,,,,,,,,,,,,,,,,,,,,,,,,,,,,,,,,,,space,99077,25,2020-09-03_23h48.16.072,CDT_GNG_IUS12,2020.1.2,Win32,60,,,,,,,,,,,,,,,,,0,1,,space,1,,,,,,0.264725,0,30,30,24,1,,,,,,,,,,,,,,,,,,,,,,,,,
,,,,,,,,,,,,,,,,,,,,,,,,,,,,,,,,,,,,,,,,,,,space,99077,25,2020-09-03_23h48.16.072,CDT_GNG_IUS12,2020.1.2,Win32,60,,,,,,,,,,,,,,,,,0,1,,space,1,,,,,,0.332695,0,31,31,21,1,,,,,,,,,,,,,,,,,,,,,,,,,
,,,,,,,,,,,,,,,,,,,,,,,,,,,,,,,,,,,,,,,,,,,,99077,25,2020-09-03_23h48.16.072,CDT_GNG_IUS12,2020.1.2,Win32,60,,,,,,,,,,,,,,,,,1,0,,space,0,,,,,,0.30233,0,32,32,0,1,,,,,,,,,,,,,,,,,,,,,,,,,
,,,,,,,,,,,,,,,,,,,,,,,,,,,,,,,,,,,,,,,,,,,,99077,25,2020-09-03_23h48.16.072,CDT_GNG_IUS12,2020.1.2,Win32,60,,,,,,,,,,,,,,,,,1,0,,,1,,,,,,,0,33,33,8,1,,,,,,,,,,,,,,,,,,,,,,,,,
,,,,,,,,,,,,,,,,,,,,,,,,,,,,,,,,,,,,,,,,,,,space,99077,25,2020-09-03_23h48.16.072,CDT_GNG_IUS12,2020.1.2,Win32,60,,,,,,,,,,,,,,,,,0,1,,space,1,,,,,,0.459655,0,34,34,41,1,,,,,,,,,,,,,,,,,,,,,,,,,
,,,,,,,,,,,,,,,,,,,,,,,,,,,,,,,,,,,,,,,,,,,space,99077,25,2020-09-03_23h48.16.072,CDT_GNG_IUS12,2020.1.2,Win32,60,,,,,,,,,,,,,,,,,0,1,,space,1,,,,,,0.33229,0,35,35,12,1,,,,,,,,,,,,,,,,,,,,,,,,,
,,,,,,,,,,,,,,,,,,,,,,,,,,,,,,,,,,,,,,,,,,,space,99077,25,2020-09-03_23h48.16.072,CDT_GNG_IUS12,2020.1.2,Win32,60,,,,,,,,,,,,,,,,,0,1,,space,1,,,,,,0.339155,0,36,36,28,1,,,,,,,,,,,,,,,,,,,,,,,,,
,,,,,,,,,,,,,,,,,,,,,,,,,,,,,,,,,,,,,,,,,,,space,99077,25,2020-09-03_23h48.16.072,CDT_GNG_IUS12,2020.1.2,Win32,60,,,,,,,,,,,,,,,,,0,1,,space,1,,,,,,0.289155,0,37,37,45,1,,,,,,,,,,,,,,,,,,,,,,,,,
,,,,,,,,,,,,,,,,,,,,,,,,,,,,,,,,,,,,,,,,,,,space,99077,25,2020-09-03_23h48.16.072,CDT_GNG_IUS12,2020.1.2,Win32,60,,,,,,,,,,,,,,,,,0,1,,space,1,,,,,,0.340185,0,38,38,40,1,,,,,,,,,,,,,,,,,,,,,,,,,
,,,,,,,,,,,,,,,,,,,,,,,,,,,,,,,,,,,,,,,,,,,space,99077,25,2020-09-03_23h48.16.072,CDT_GNG_IUS12,2020.1.2,Win32,60,,,,,,,,,,,,,,,,,0,1,,space,1,,,,,,0.30485,0,39,39,14,1,,,,,,,,,,,,,,,,,,,,,,,,,
,,,,,,,,,,,,,,,,,,,,,,,,,,,,,,,,,,,,,,,,,,,space,99077,25,2020-09-03_23h48.16.072,CDT_GNG_IUS12,2020.1.2,Win32,60,,,,,,,,,,,,,,,,,0,1,,space,1,,,,,,0.45721,0,40,40,30,1,,,,,,,,,,,,,,,,,,,,,,,,,
,,,,,,,,,,,,,,,,,,,,,,,,,,,,,,,,,,,,,,,,,,,space,99077,25,2020-09-03_23h48.16.072,CDT_GNG_IUS12,2020.1.2,Win32,60,,,,,,,,,,,,,,,,,0,1,,space,1,,,,,,0.35728,0,41,41,36,1,,,,,,,,,,,,,,,,,,,,,,,,,
,,,,,,,,,,,,,,,,,,,,,,,,,,,,,,,,,,,,,,,,,,,space,99077,25,2020-09-03_23h48.16.072,CDT_GNG_IUS12,2020.1.2,Win32,60,,,,,,,,,,,,,,,,,0,1,,space,1,,,,,,0.3738,0,42,42,38,1,,,,,,,,,,,,,,,,,,,,,,,,,
,,,,,,,,,,,,,,,,,,,,,,,,,,,,,,,,,,,,,,,,,,,space,99077,25,2020-09-03_23h48.16.072,CDT_GNG_IUS12,2020.1.2,Win32,60,,,,,,,,,,,,,,,,,0,1,,space,1,,,,,,0.303985,0,43,43,31,1,,,,,,,,,,,,,,,,,,,,,,,,,
,,,,,,,,,,,,,,,,,,,,,,,,,,,,,,,,,,,,,,,,,,,,99077,25,2020-09-03_23h48.16.072,CDT_GNG_IUS12,2020.1.2,Win32,60,,,,,,,,,,,,,,,,,1,0,,space,0,,,,,,0.33359,0,44,44,9,1,,,,,,,,,,,,,,,,,,,,,,,,,
,,,,,,,,,,,,,,,,,,,,,,,,,,,,,,,,,,,,,,,,,,,space,99077,25,2020-09-03_23h48.16.072,CDT_GNG_IUS12,2020.1.2,Win32,60,,,,,,,,,,,,,,,,,0,1,,,0,,,,,,,0,45,45,33,1,,,,,,,,,,,,,,,,,,,,,,,,,
,,,,,,,,,,,,,,,,,,,,,,,,,,,,,,,,,,,,,,,,,,,space,99077,25,2020-09-03_23h48.16.072,CDT_GNG_IUS12,2020.1.2,Win32,60,,,,,,,,,,,,,,,,,0,1,,space,1,,,,,,0.35185,0,46,46,44,1,,,,,,,,,,,,,,,,,,,,,,,,,
,,,,,,,,,,,,,,,,,,,,,,,,,,,,,,,,,,,,,,,,,,,space,99077,25,2020-09-03_23h48.16.072,CDT_GNG_IUS12,2020.1.2,Win32,60,,,,,,,,,,,,,,,,,0,1,,space,1,,,,,,0.28174,0,47,47,22,1,,,,,,,,,,,,,,,,,,,,,,,,,
,,,,,,,,,,,,,,,,,,,,,,,,,,,,,,,,,,,,,,,,,,,,99077,25,2020-09-03_23h48.16.072,CDT_GNG_IUS12,2020.1.2,Win32,60,,,,,,,,,,,,,,,,,1,0,,space,0,,,,,,0.28147,0,48,48,3,1,,,,,,,,,,,,,,,,,,,,,,,,,
,,,,,,,,,,,,,,,,,,,,,,,,,,,,,,,,,,,,,,,,,,,,99077,25,2020-09-03_23h48.16.072,CDT_GNG_IUS12,2020.1.2,Win32,60,,,,,,,,,,,,,,,,,1,0,,,1,,,,,,,0,49,49,1,1,,,,,,,,,,,,,,,,,,,,,,,,,
,,,,,,,,,,,,,,,,,,,,,,,,,,,,,,,,,,,,,,,,,,,space,99077,25,2020-09-03_23h48.16.072,CDT_GNG_IUS12,2020.1.2,Win32,60,,,,,,,,,,,,,,,,,0,1,,space,1,,,,,,0.396845,,,,,,0,0,0,37,1,,,,,,,,,,,,,,,,,,,,
,,,,,,,,,,,,,,,,,,,,,,,,,,,,,,,,,,,,,,,,,,,space,99077,25,2020-09-03_23h48.16.072,CDT_GNG_IUS12,2020.1.2,Win32,60,,,,,,,,,,,,,,,,,0,1,,space,1,,,,,,0.32665,,,,,,0,1,1,45,1,,,,,,,,,,,,,,,,,,,,
,,,,,,,,,,,,,,,,,,,,,,,,,,,,,,,,,,,,,,,,,,,space,99077,25,2020-09-03_23h48.16.072,CDT_GNG_IUS12,2020.1.2,Win32,60,,,,,,,,,,,,,,,,,0,1,,space,1,,,,,,0.24912,,,,,,0,2,2,30,1,,,,,,,,,,,,,,,,,,,,
,,,,,,,,,,,,,,,,,,,,,,,,,,,,,,,,,,,,,,,,,,,space,99077,25,2020-09-03_23h48.16.072,CDT_GNG_IUS12,2020.1.2,Win32,60,,,,,,,,,,,,,,,,,0,1,,space,1,,,,,,0.33842,,,,,,0,3,3,44,1,,,,,,,,,,,,,,,,,,,,
,,,,,,,,,,,,,,,,,,,,,,,,,,,,,,,,,,,,,,,,,,,space,99077,25,2020-09-03_23h48.16.072,CDT_GNG_IUS12,2020.1.2,Win32,60,,,,,,,,,,,,,,,,,0,1,,space,1,,,,,,0.29919,,,,,,0,4,4,12,1,,,,,,,,,,,,,,,,,,,,
,,,,,,,,,,,,,,,,,,,,,,,,,,,,,,,,,,,,,,,,,,,,99077,25,2020-09-03_23h48.16.072,CDT_GNG_IUS12,2020.1.2,Win32,60,,,,,,,,,,,,,,,,,1,0,,space,0,,,,,,0.239465,,,,,,0,5,5,6,1,,,,,,,,,,,,,,,,,,,,
,,,,,,,,,,,,,,,,,,,,,,,,,,,,,,,,,,,,,,,,,,,space,99077,25,2020-09-03_23h48.16.072,CDT_GNG_IUS12,2020.1.2,Win32,60,,,,,,,,,,,,,,,,,0,1,,space,1,,,,,,0.474265,,,,,,0,6,6,31,1,,,,,,,,,,,,,,,,,,,,
,,,,,,,,,,,,,,,,,,,,,,,,,,,,,,,,,,,,,,,,,,,space,99077,25,2020-09-03_23h48.16.072,CDT_GNG_IUS12,2020.1.2,Win32,60,,,,,,,,,,,,,,,,,0,1,,space,1,,,,,,0.334975,,,,,,0,7,7,38,1,,,,,,,,,,,,,,,,,,,,
,,,,,,,,,,,,,,,,,,,,,,,,,,,,,,,,,,,,,,,,,,,space,99077,25,2020-09-03_23h48.16.072,CDT_GNG_IUS12,2020.1.2,Win32,60,,,,,,,,,,,,,,,,,0,1,,space,1,,,,,,0.248905,,,,,,0,8,8,24,1,,,,,,,,,,,,,,,,,,,,
,,,,,,,,,,,,,,,,,,,,,,,,,,,,,,,,,,,,,,,,,,,space,99077,25,2020-09-03_23h48.16.072,CDT_GNG_IUS12,2020.1.2,Win32,60,,,,,,,,,,,,,,,,,0,1,,space,1,,,,,,0.24812,,,,,,0,9,9,15,1,,,,,,,,,,,,,,,,,,,,
,,,,,,,,,,,,,,,,,,,,,,,,,,,,,,,,,,,,,,,,,,,space,99077,25,2020-09-03_23h48.16.072,CDT_GNG_IUS12,2020.1.2,Win32,60,,,,,,,,,,,,,,,,,0,1,,space,1,,,,,,0.183065,,,,,,0,10,10,25,1,,,,,,,,,,,,,,,,,,,,
,,,,,,,,,,,,,,,,,,,,,,,,,,,,,,,,,,,,,,,,,,,space,99077,25,2020-09-03_23h48.16.072,CDT_GNG_IUS12,2020.1.2,Win32,60,,,,,,,,,,,,,,,,,0,1,,space,1,,,,,,0.076615,,,,,,0,11,11,39,1,,,,,,,,,,,,,,,,,,,,
,,,,,,,,,,,,,,,,,,,,,,,,,,,,,,,,,,,,,,,,,,,space,99077,25,2020-09-03_23h48.16.072,CDT_GNG_IUS12,2020.1.2,Win32,60,,,,,,,,,,,,,,,,,0,1,,space,1,,,,,,0.175775,,,,,,0,12,12,29,1,,,,,,,,,,,,,,,,,,,,
,,,,,,,,,,,,,,,,,,,,,,,,,,,,,,,,,,,,,,,,,,,space,99077,25,2020-09-03_23h48.16.072,CDT_GNG_IUS12,2020.1.2,Win32,60,,,,,,,,,,,,,,,,,0,1,,space,1,,,,,,0.23339,,,,,,0,13,13,23,1,,,,,,,,,,,,,,,,,,,,
,,,,,,,,,,,,,,,,,,,,,,,,,,,,,,,,,,,,,,,,,,,,99077,25,2020-09-03_23h48.16.072,CDT_GNG_IUS12,2020.1.2,Win32,60,,,,,,,,,,,,,,,,,1,0,,space,0,,,,,,0.03202,,,,,,0,14,14,9,1,,,,,,,,,,,,,,,,,,,,
,,,,,,,,,,,,,,,,,,,,,,,,,,,,,,,,,,,,,,,,,,,space,99077,25,2020-09-03_23h48.16.072,CDT_GNG_IUS12,2020.1.2,Win32,60,,,,,,,,,,,,,,,,,0,1,,space,1,,,,,,0.48225,,,,,,0,15,15,35,1,,,,,,,,,,,,,,,,,,,,
,,,,,,,,,,,,,,,,,,,,,,,,,,,,,,,,,,,,,,,,,,,,99077,25,2020-09-03_23h48.16.072,CDT_GNG_IUS12,2020.1.2,Win32,60,,,,,,,,,,,,,,,,,1,0,,space,0,,,,,,0.34025,,,,,,0,16,16,7,1,,,,,,,,,,,,,,,,,,,,
,,,,,,,,,,,,,,,,,,,,,,,,,,,,,,,,,,,,,,,,,,,space,99077,25,2020-09-03_23h48.16.072,CDT_GNG_IUS12,2020.1.2,Win32,60,,,,,,,,,,,,,,,,,0,1,,space,1,,,,,,0.57387,,,,,,0,17,17,21,1,,,,,,,,,,,,,,,,,,,,
,,,,,,,,,,,,,,,,,,,,,,,,,,,,,,,,,,,,,,,,,,,space,99077,25,2020-09-03_23h48.16.072,CDT_GNG_IUS12,2020.1.2,Win32,60,,,,,,,,,,,,,,,,,0,1,,space,1,,,,,,0.575395,,,,,,0,18,18,49,1,,,,,,,,,,,,,,,,,,,,
,,,,,,,,,,,,,,,,,,,,,,,,,,,,,,,,,,,,,,,,,,,space,99077,25,2020-09-03_23h48.16.072,CDT_GNG_IUS12,2020.1.2,Win32,60,,,,,,,,,,,,,,,,,0,1,,space,1,,,,,,0.516125,,,,,,0,19,19,22,1,,,,,,,,,,,,,,,,,,,,
,,,,,,,,,,,,,,,,,,,,,,,,,,,,,,,,,,,,,,,,,,,,99077,25,2020-09-03_23h48.16.072,CDT_GNG_IUS12,2020.1.2,Win32,60,,,,,,,,,,,,,,,,,1,0,,,1,,,,,,,,,,,,0,20,20,3,1,,,,,,,,,,,,,,,,,,,,
,,,,,,,,,,,,,,,,,,,,,,,,,,,,,,,,,,,,,,,,,,,space,99077,25,2020-09-03_23h48.16.072,CDT_GNG_IUS12,2020.1.2,Win32,60,,,,,,,,,,,,,,,,,0,1,,space,1,,,,,,0.44934,,,,,,0,21,21,26,1,,,,,,,,,,,,,,,,,,,,
,,,,,,,,,,,,,,,,,,,,,,,,,,,,,,,,,,,,,,,,,,,,99077,25,2020-09-03_23h48.16.072,CDT_GNG_IUS12,2020.1.2,Win32,60,,,,,,,,,,,,,,,,,1,0,,,1,,,,,,,,,,,,0,22,22,4,1,,,,,,,,,,,,,,,,,,,,
,,,,,,,,,,,,,,,,,,,,,,,,,,,,,,,,,,,,,,,,,,,,99077,25,2020-09-03_23h48.16.072,CDT_GNG_IUS12,2020.1.2,Win32,60,,,,,,,,,,,,,,,,,1,0,,space,0,,,,,,0.236465,,,,,,0,23,23,1,1,,,,,,,,,,,,,,,,,,,,
,,,,,,,,,,,,,,,,,,,,,,,,,,,,,,,,,,,,,,,,,,,space,99077,25,2020-09-03_23h48.16.072,CDT_GNG_IUS12,2020.1.2,Win32,60,,,,,,,,,,,,,,,,,0,1,,,0,,,,,,,,,,,,0,24,24,17,1,,,,,,,,,,,,,,,,,,,,
,,,,,,,,,,,,,,,,,,,,,,,,,,,,,,,,,,,,,,,,,,,space,99077,25,2020-09-03_23h48.16.072,CDT_GNG_IUS12,2020.1.2,Win32,60,,,,,,,,,,,,,,,,,0,1,,space,1,,,,,,0.105765,,,,,,0,25,25,16,1,,,,,,,,,,,,,,,,,,,,
,,,,,,,,,,,,,,,,,,,,,,,,,,,,,,,,,,,,,,,,,,,space,99077,25,2020-09-03_23h48.16.072,CDT_GNG_IUS12,2020.1.2,Win32,60,,,,,,,,,,,,,,,,,0,1,,space,1,,,,,,0.19915,,,,,,0,26,26,42,1,,,,,,,,,,,,,,,,,,,,
,,,,,,,,,,,,,,,,,,,,,,,,,,,,,,,,,,,,,,,,,,,space,99077,25,2020-09-03_23h48.16.072,CDT_GNG_IUS12,2020.1.2,Win32,60,,,,,,,,,,,,,,,,,0,1,,space,1,,,,,,0.184745,,,,,,0,27,27,32,1,,,,,,,,,,,,,,,,,,,,
,,,,,,,,,,,,,,,,,,,,,,,,,,,,,,,,,,,,,,,,,,,,99077,25,2020-09-03_23h48.16.072,CDT_GNG_IUS12,2020.1.2,Win32,60,,,,,,,,,,,,,,,,,1,0,,space,0,,,,,,0.25563,,,,,,0,28,28,8,1,,,,,,,,,,,,,,,,,,,,
,,,,,,,,,,,,,,,,,,,,,,,,,,,,,,,,,,,,,,,,,,,space,99077,25,2020-09-03_23h48.16.072,CDT_GNG_IUS12,2020.1.2,Win32,60,,,,,,,,,,,,,,,,,0,1,,,0,,,,,,,,,,,,0,29,29,47,1,,,,,,,,,,,,,,,,,,,,
,,,,,,,,,,,,,,,,,,,,,,,,,,,,,,,,,,,,,,,,,,,space,99077,25,2020-09-03_23h48.16.072,CDT_GNG_IUS12,2020.1.2,Win32,60,,,,,,,,,,,,,,,,,0,1,,,0,,,,,,,,,,,,0,30,30,13,1,,,,,,,,,,,,,,,,,,,,
,,,,,,,,,,,,,,,,,,,,,,,,,,,,,,,,,,,,,,,,,,,space,99077,25,2020-09-03_23h48.16.072,CDT_GNG_IUS12,2020.1.2,Win32,60,,,,,,,,,,,,,,,,,0,1,,,0,,,,,,,,,,,,0,31,31,20,1,,,,,,,,,,,,,,,,,,,,
,,,,,,,,,,,,,,,,,,,,,,,,,,,,,,,,,,,,,,,,,,,space,99077,25,2020-09-03_23h48.16.072,CDT_GNG_IUS12,2020.1.2,Win32,60,,,,,,,,,,,,,,,,,0,1,,space,1,,,,,,0.154845,,,,,,0,32,32,19,1,,,,,,,,,,,,,,,,,,,,
,,,,,,,,,,,,,,,,,,,,,,,,,,,,,,,,,,,,,,,,,,,space,99077,25,2020-09-03_23h48.16.072,CDT_GNG_IUS12,2020.1.2,Win32,60,,,,,,,,,,,,,,,,,0,1,,space,1,,,,,,0.188105,,,,,,0,33,33,48,1,,,,,,,,,,,,,,,,,,,,
,,,,,,,,,,,,,,,,,,,,,,,,,,,,,,,,,,,,,,,,,,,,99077,25,2020-09-03_23h48.16.072,CDT_GNG_IUS12,2020.1.2,Win32,60,,,,,,,,,,,,,,,,,1,0,,space,0,,,,,,0.27461,,,,,,0,34,34,0,1,,,,,,,,,,,,,,,,,,,,
,,,,,,,,,,,,,,,,,,,,,,,,,,,,,,,,,,,,,,,,,,,space,99077,25,2020-09-03_23h48.16.072,CDT_GNG_IUS12,2020.1.2,Win32,60,,,,,,,,,,,,,,,,,0,1,,space,1,,,,,,0.53198,,,,,,0,35,35,11,1,,,,,,,,,,,,,,,,,,,,
,,,,,,,,,,,,,,,,,,,,,,,,,,,,,,,,,,,,,,,,,,,space,99077,25,2020-09-03_23h48.16.072,CDT_GNG_IUS12,2020.1.2,Win32,60,,,,,,,,,,,,,,,,,0,1,,space,1,,,,,,0.42271,,,,,,0,36,36,41,1,,,,,,,,,,,,,,,,,,,,
,,,,,,,,,,,,,,,,,,,,,,,,,,,,,,,,,,,,,,,,,,,space,99077,25,2020-09-03_23h48.16.072,CDT_GNG_IUS12,2020.1.2,Win32,60,,,,,,,,,,,,,,,,,0,1,,space,1,,,,,,0.34708,,,,,,0,37,37,33,1,,,,,,,,,,,,,,,,,,,,
,,,,,,,,,,,,,,,,,,,,,,,,,,,,,,,,,,,,,,,,,,,space,99077,25,2020-09-03_23h48.16.072,CDT_GNG_IUS12,2020.1.2,Win32,60,,,,,,,,,,,,,,,,,0,1,,space,1,,,,,,0.3739,,,,,,0,38,38,34,1,,,,,,,,,,,,,,,,,,,,
,,,,,,,,,,,,,,,,,,,,,,,,,,,,,,,,,,,,,,,,,,,,99077,25,2020-09-03_23h48.16.072,CDT_GNG_IUS12,2020.1.2,Win32,60,,,,,,,,,,,,,,,,,1,0,,,1,,,,,,,,,,,,0,39,39,5,1,,,,,,,,,,,,,,,,,,,,
,,,,,,,,,,,,,,,,,,,,,,,,,,,,,,,,,,,,,,,,,,,space,99077,25,2020-09-03_23h48.16.072,CDT_GNG_IUS12,2020.1.2,Win32,60,,,,,,,,,,,,,,,,,0,1,,space,1,,,,,,0.3749,,,,,,0,40,40,43,1,,,,,,,,,,,,,,,,,,,,
,,,,,,,,,,,,,,,,,,,,,,,,,,,,,,,,,,,,,,,,,,,space,99077,25,2020-09-03_23h48.16.072,CDT_GNG_IUS12,2020.1.2,Win32,60,,,,,,,,,,,,,,,,,0,1,,space,1,,,,,,0.31823,,,,,,0,41,41,28,1,,,,,,,,,,,,,,,,,,,,
,,,,,,,,,,,,,,,,,,,,,,,,,,,,,,,,,,,,,,,,,,,space,99077,25,2020-09-03_23h48.16.072,CDT_GNG_IUS12,2020.1.2,Win32,60,,,,,,,,,,,,,,,,,0,1,,space,1,,,,,,0.30041,,,,,,0,42,42,40,1,,,,,,,,,,,,,,,,,,,,
,,,,,,,,,,,,,,,,,,,,,,,,,,,,,,,,,,,,,,,,,,,space,99077,25,2020-09-03_23h48.16.072,CDT_GNG_IUS12,2020.1.2,Win32,60,,,,,,,,,,,,,,,,,0,1,,space,1,,,,,,0.299195,,,,,,0,43,43,14,1,,,,,,,,,,,,,,,,,,,,
,,,,,,,,,,,,,,,,,,,,,,,,,,,,,,,,,,,,,,,,,,,space,99077,25,2020-09-03_23h48.16.072,CDT_GNG_IUS12,2020.1.2,Win32,60,,,,,,,,,,,,,,,,,0,1,,space,1,,,,,,0.292305,,,,,,0,44,44,46,1,,,,,,,,,,,,,,,,,,,,
,,,,,,,,,,,,,,,,,,,,,,,,,,,,,,,,,,,,,,,,,,,space,99077,25,2020-09-03_23h48.16.072,CDT_GNG_IUS12,2020.1.2,Win32,60,,,,,,,,,,,,,,,,,0,1,,space,1,,,,,,0.31529,,,,,,0,45,45,10,1,,,,,,,,,,,,,,,,,,,,
,,,,,,,,,,,,,,,,,,,,,,,,,,,,,,,,,,,,,,,,,,,space,99077,25,2020-09-03_23h48.16.072,CDT_GNG_IUS12,2020.1.2,Win32,60,,,,,,,,,,,,,,,,,0,1,,space,1,,,,,,0.29424,,,,,,0,46,46,18,1,,,,,,,,,,,,,,,,,,,,
,,,,,,,,,,,,,,,,,,,,,,,,,,,,,,,,,,,,,,,,,,,space,99077,25,2020-09-03_23h48.16.072,CDT_GNG_IUS12,2020.1.2,Win32,60,,,,,,,,,,,,,,,,,0,1,,space,1,,,,,,0.285575,,,,,,0,47,47,36,1,,,,,,,,,,,,,,,,,,,,
,,,,,,,,,,,,,,,,,,,,,,,,,,,,,,,,,,,,,,,,,,,space,99077,25,2020-09-03_23h48.16.072,CDT_GNG_IUS12,2020.1.2,Win32,60,,,,,,,,,,,,,,,,,0,1,,space,1,,,,,,0.220035,,,,,,0,48,48,27,1,,,,,,,,,,,,,,,,,,,,
,,,,,,,,,,,,,,,,,,,,,,,,,,,,,,,,,,,,,,,,,,,,99077,25,2020-09-03_23h48.16.072,CDT_GNG_IUS12,2020.1.2,Win32,60,,,,,,,,,,,,,,,,,1,0,,space,0,,,,,,0.173895,,,,,,0,49,49,2,1,,,,,,,,,,,,,,,,,,,,
,,,,,,,,,,,,,,,,,,,,,,,,,,,,,,,,,,,,,,,,,,,,99077,25,2020-09-03_23h48.16.072,CDT_GNG_IUS12,2020.1.2,Win32,60,,,,,,,,,,,,,,,,,,,,,,,,,,,,,,,,,,,,,,10,6.289905,0,0,0,0,1,1,"On a scale from 0 to 10, indicate your personal perception of your proficiency level for English (10 being the highest score)",,,,,,,,,,,
,,,,,,,,,,,,,,,,,,,,,,,,,,,,,,,,,,,,,,,,,,,,99077,25,2020-09-03_23h48.16.072,CDT_GNG_IUS12,2020.1.2,Win32,60,,,,,,,,,,,,,,,,,,,,,,,,,,,,,,,,,,,,,,10,3.4355,0,1,1,1,1,2,"On a scale from 0 to 10, indicate how frequently you are exposed to English (10 being 'always', 0 being 'never')",,,,,,,,,,,
,,,,,,,,,,,,,,,,,,,,,,,,,,,,,,,,,,,,,,,,,,,,99077,25,2020-09-03_23h48.16.072,CDT_GNG_IUS12,2020.1.2,Win32,60,,,,,,,,,,,,,,,,,,,,,,,,,,,,,,,,,,,,,,,,,,,,,,"On a scale from 0 to 10, indicate your personal perception of your proficiency level for English (10 being the highest score)",3.010416667,19.57723,0,0,0,0,1,1,Unforeseen events upset me greatly.,,
,,,,,,,,,,,,,,,,,,,,,,,,,,,,,,,,,,,,,,,,,,,,99077,25,2020-09-03_23h48.16.072,CDT_GNG_IUS12,2020.1.2,Win32,60,,,,,,,,,,,,,,,,,,,,,,,,,,,,,,,,,,,,,,,,,,,,,,"On a scale from 0 to 10, indicate how frequently you are exposed to English (10 being 'always', 0 being 'never')",3.994791667,7.582315,0,1,1,1,1,2,It frustrates me not having all the information I need.,,
,,,,,,,,,,,,,,,,,,,,,,,,,,,,,,,,,,,,,,,,,,,,99077,25,2020-09-03_23h48.16.072,CDT_GNG_IUS12,2020.1.2,Win32,60,,,,,,,,,,,,,,,,,,,,,,,,,,,,,,,,,,,,,,,,,,,,,,,2.020833333,6.799215,0,2,2,2,1,3,One should always look ahead so as to avoid surprises.,,
,,,,,,,,,,,,,,,,,,,,,,,,,,,,,,,,,,,,,,,,,,,,99077,25,2020-09-03_23h48.16.072,CDT_GNG_IUS12,2020.1.2,Win32,60,,,,,,,,,,,,,,,,,,,,,,,,,,,,,,,,,,,,,,,,,,,,,,,2.020833333,8.282485,0,3,3,3,1,4,"A small, unforeseen event can spoil everything, even with the best of planning. ",,
,,,,,,,,,,,,,,,,,,,,,,,,,,,,,,,,,,,,,,,,,,,,99077,25,2020-09-03_23h48.16.072,CDT_GNG_IUS12,2020.1.2,Win32,60,,,,,,,,,,,,,,,,,,,,,,,,,,,,,,,,,,,,,,,,,,,,,,,3.010416667,7.26597,0,4,4,4,1,5,I always want to know what the future has in store for me.,,
,,,,,,,,,,,,,,,,,,,,,,,,,,,,,,,,,,,,,,,,,,,,99077,25,2020-09-03_23h48.16.072,CDT_GNG_IUS12,2020.1.2,Win32,60,,,,,,,,,,,,,,,,,,,,,,,,,,,,,,,,,,,,,,,,,,,,,,,1,4.482525,0,5,5,5,1,6,I can't stand being taken by surprise.,,
,,,,,,,,,,,,,,,,,,,,,,,,,,,,,,,,,,,,,,,,,,,,99077,25,2020-09-03_23h48.16.072,CDT_GNG_IUS12,2020.1.2,Win32,60,,,,,,,,,,,,,,,,,,,,,,,,,,,,,,,,,,,,,,,,,,,,,,,1.046875,6.016005,0,6,6,6,1,7,I should be able to organize everything in advance,,
,,,,,,,,,,,,,,,,,,,,,,,,,,,,,,,,,,,,,,,,,,,,99077,25,2020-09-03_23h48.16.072,CDT_GNG_IUS12,2020.1.2,Win32,60,,,,,,,,,,,,,,,,,,,,,,,,,,,,,,,,,,,,,,,,,,,,,,,1.046875,7.31577,0,7,7,7,1,8,Uncertainty keeps me from living a full life.,,
,,,,,,,,,,,,,,,,,,,,,,,,,,,,,,,,,,,,,,,,,,,,99077,25,2020-09-03_23h48.16.072,CDT_GNG_IUS12,2020.1.2,Win32,60,,,,,,,,,,,,,,,,,,,,,,,,,,,,,,,,,,,,,,,,,,,,,,,1.927083333,9.11577,0,8,8,8,1,9,"When it's time to act, uncertainty paralyses me. ",,
,,,,,,,,,,,,,,,,,,,,,,,,,,,,,,,,,,,,,,,,,,,,99077,25,2020-09-03_23h48.16.072,CDT_GNG_IUS12,2020.1.2,Win32,60,,,,,,,,,,,,,,,,,,,,,,,,,,,,,,,,,,,,,,,,,,,,,,,1,11.38304,0,9,9,9,1,10,"When I am uncertain, I can't function very well. ",,
,,,,,,,,,,,,,,,,,,,,,,,,,,,,,,,,,,,,,,,,,,,,99077,25,2020-09-03_23h48.16.072,CDT_GNG_IUS12,2020.1.2,Win32,60,,,,,,,,,,,,,,,,,,,,,,,,,,,,,,,,,,,,,,,,,,,,,,,3.994791667,5.89896,0,10,10,10,1,11,The smallest doubt can stop me from acting. ,,
,,,,,,,,,,,,,,,,,,,,,,,,,,,,,,,,,,,,,,,,,,,,99077,25,2020-09-03_23h48.16.072,CDT_GNG_IUS12,2020.1.2,Win32,60,,,,,,,,,,,,,,,,,,,,,,,,,,,,,,,,,,,,,,,,,,,,,,,1.958333333,4.99918,0,11,11,11,1,12,I must get away from all uncertain situations. ,,
,,,,,,,,,,,,,,,,,,,,,,,,,,,,,,,,,,,,,,,,,,,,99077,25,2020-09-03_23h48.16.072,CDT_GNG_IUS12,2020.1.2,Win32,60,,,,,,,,,,,,,,,,,,,,,,,,,,,,,,,,,,,,,,,,,,,,,,,,,,,,,,,,x,4.5201
