trialnum,condit,stimamt,stim1posx,stim1posy,stim1col,stim1opa,stim2posx,stim2posy,stim2col,stim2opa,stim3posx,stim3posy,stim3col,stim3opa,stim4posx,stim4posy,stim4col,stim4opa,stim5posx,stim5posy,stim5col,stim5opa,stim6posx,stim6posy,stim6col,stim6opa,stim7posx,stim7posy,stim7col,stim7opa,stim8posx,stim8posy,stim8col,stim8opa,stimsizex,stimsizey,stimdur,targetposx,targetposy,targetcol,corrAns,blueOpacity,orangeOpacity,CDT_trials_train.thisRepN,CDT_trials_train.thisTrialN,CDT_trials_train.thisN,CDT_trials_train.thisIndex,CDT_trials.thisRepN,CDT_trials.thisTrialN,CDT_trials.thisN,CDT_trials.thisIndex,GNG_trials_1.thisRepN,GNG_trials_1.thisTrialN,GNG_trials_1.thisN,GNG_trials_1.thisIndex,GNG_trials_2.thisRepN,GNG_trials_2.thisTrialN,GNG_trials_2.thisN,GNG_trials_2.thisIndex,GNG_trials_3.thisRepN,GNG_trials_3.thisTrialN,GNG_trials_3.thisN,GNG_trials_3.thisIndex,instr_text_2.started,instr_text_2.stopped,key_resp_2.keys,key_resp_2.corr,key_resp_2.rt,instr_text.started,instr_text.stopped,key_resp.keys,key_resp.corr,key_resp.rt,Instructions.started,Instructions.stopped,fix_ini.started,fix_ini.stopped,fix_trial.started,fix_trial.stopped,trialBlue.started,trialBlue.stopped,trialOrange.started,trialOrange.stopped,trialResp.keys,trialResp.corr,trialResp.rt,trialResp.started,trialResp.stopped,Instructions_2.started,Instructions_2.stopped,participant,session,date,expName,psychopyVersion,frameRate,
1,same,4,0.14,0.14,orange,1,0.14,-0.41,blue,1,-0.14,-0.27,white,1,-0.41,0.14,red,1,0.14,0.41,black,0,0.27,-0.27,green,0,-0.41,-0.27,magenta,0,-0.41,0.41,yellow,0,0.05,0.05,0.15,0.14,-0.41,blue,k,,,0,0,0,0,,,,,,,,,,,,,,,,,8.022503105006763,None,k,1,2.834317810003995,,,,,,,,,,,,,,,,,,,,,,,jk,001,2020_jul_23_1729,jul30online,2020.1.2,59.79834908402298,
2,different,4,0.14,0.41,black,1,0.14,-0.41,green,1,-0.41,-0.27,orange,1,-0.27,0.41,magenta,1,0.14,0.27,red,0,0.41,-0.27,white,0,-0.27,-0.41,yellow,0,-0.27,0.27,blue,0,0.05,0.05,0.15,-0.27,0.41,white,l,,,0,1,1,1,,,,,,,,,,,,,,,,,,,l,1,1.5347884360016906,,,,,,,,,,,,,,,,,,,,,,,jk,001,2020_jul_23_1729,jul30online,2020.1.2,59.79834908402298,
3,same,8,0.27,0.41,yellow,1,0.14,-0.41,white,1,-0.14,-0.27,blue,1,-0.14,0.27,green,1,0.14,0.14,red,1,0.27,-0.27,black,1,-0.27,-0.27,magenta,1,-0.27,0.14,orange,1,0.05,0.05,0.15,-0.14,0.27,green,k,,,0,2,2,2,,,,,,,,,,,,,,,,,,,k,1,1.5339026970032137,,,,,,,,,,,,,,,,,,,,,,,jk,001,2020_jul_23_1729,jul30online,2020.1.2,59.79834908402298,
4,different,8,0.14,0.41,green,1,0.27,-0.14,red,1,-0.27,-0.14,black,1,-0.14,0.41,orange,1,0.41,0.27,blue,1,0.41,-0.27,magenta,1,-0.14,-0.14,white,1,-0.27,0.14,yellow,1,0.05,0.05,0.15,0.27,-0.14,white,l,,,0,3,3,3,,,,,,,,,,,,,,,,,,,l,1,1.4173379139974713,,,,,,,,,,,,,,,,,,,,,,,jk,001,2020_jul_23_1729,jul30online,2020.1.2,59.79834908402298,
120,different,8,0.41,0.41,blue,1,0.14,-0.14,magenta,1,-0.27,-0.27,white,1,-0.27,0.41,orange,1,0.27,0.41,yellow,1,0.14,-0.41,red,1,-0.14,-0.27,green,1,-0.14,0.41,black,1,0.05,0.05,0.15,-0.14,0.41,orange,l,,,,,,,0,0,0,119,,,,,,,,,,,,,,,,,,37.60354487400036,None,k,0,1.1007642969998415,,,,,,,,,,,,,,,,,,jk,001,2020_jul_23_1729,jul30online,2020.1.2,59.79834908402298,
9,same,4,0.27,0.27,red,1,0.14,-0.27,orange,1,-0.14,-0.41,yellow,1,-0.27,0.41,blue,1,0.41,0.41,green,0,0.41,-0.41,white,0,-0.27,-0.41,magenta,0,-0.27,0.27,black,0,0.05,0.05,0.15,0.27,0.27,red,k,,,,,,,0,1,1,8,,,,,,,,,,,,,,,,,,,,k,1,1.3160846210012096,,,,,,,,,,,,,,,,,,jk,001,2020_jul_23_1729,jul30online,2020.1.2,59.79834908402298,
26,same,4,0.14,0.14,black,1,0.14,-0.14,red,1,-0.41,-0.14,yellow,1,-0.14,0.41,orange,1,0.27,0.14,blue,0,0.14,-0.27,magenta,0,-0.27,-0.41,green,0,-0.14,0.27,white,0,0.05,0.05,0.15,-0.41,-0.14,yellow,k,,,,,,,0,2,2,25,,,,,,,,,,,,,,,,,,,,k,1,1.6170339910022449,,,,,,,,,,,,,,,,,,jk,001,2020_jul_23_1729,jul30online,2020.1.2,59.79834908402298,
50,different,4,0.41,0.14,black,1,0.14,-0.14,blue,1,-0.41,-0.41,red,1,-0.27,0.14,green,1,0.14,0.41,white,0,0.41,-0.14,magenta,0,-0.14,-0.27,yellow,0,-0.27,0.41,orange,0,0.05,0.05,0.15,-0.41,-0.41,orange,l,,,,,,,0,3,3,49,,,,,,,,,,,,,,,,,,,,l,1,1.1338288150000153,,,,,,,,,,,,,,,,,,jk,001,2020_jul_23_1729,jul30online,2020.1.2,59.79834908402298,
99,different,8,0.14,0.27,blue,1,0.41,-0.41,yellow,1,-0.14,-0.14,green,1,-0.41,0.14,black,1,0.41,0.27,red,1,0.27,-0.27,magenta,1,-0.27,-0.27,orange,1,-0.27,0.27,white,1,0.05,0.05,0.15,0.14,0.27,black,l,,,,,,,0,4,4,98,,,,,,,,,,,,,,,,,,,,l,1,1.516999831997964,,,,,,,,,,,,,,,,,,jk,001,2020_jul_23_1729,jul30online,2020.1.2,59.79834908402298,
119,different,8,0.27,0.27,green,1,0.27,-0.14,orange,1,-0.41,-0.41,white,1,-0.27,0.27,blue,1,0.41,0.27,black,1,0.14,-0.41,red,1,-0.14,-0.41,yellow,1,-0.41,0.27,magenta,1,0.05,0.05,0.15,-0.41,0.27,white,l,,,,,,,0,5,5,118,,,,,,,,,,,,,,,,,,,,l,1,2.6005812250004965,,,,,,,,,,,,,,,,,,jk,001,2020_jul_23_1729,jul30online,2020.1.2,59.79834908402298,
37,different,4,0.41,0.41,yellow,1,0.27,-0.14,black,1,-0.14,-0.14,orange,1,-0.41,0.14,green,1,0.14,0.14,white,0,0.27,-0.41,blue,0,-0.14,-0.27,magenta,0,-0.14,0.14,red,0,0.05,0.05,0.15,0.41,0.41,red,l,,,,,,,0,6,6,36,,,,,,,,,,,,,,,,,,,,l,1,1.2003688249969855,,,,,,,,,,,,,,,,,,jk,001,2020_jul_23_1729,jul30online,2020.1.2,59.79834908402298,
110,different,8,0.41,0.14,orange,1,0.27,-0.27,black,1,-0.14,-0.27,blue,1,-0.27,0.27,white,1,0.27,0.41,magenta,1,0.27,-0.41,red,1,-0.27,-0.41,yellow,1,-0.27,0.41,green,1,0.05,0.05,0.15,-0.27,-0.41,red,l,,,,,,,0,7,7,109,,,,,,,,,,,,,,,,,,,,l,1,1.1180632269970374,,,,,,,,,,,,,,,,,,jk,001,2020_jul_23_1729,jul30online,2020.1.2,59.79834908402298,
82,same,8,0.27,0.41,yellow,1,0.14,-0.14,magenta,1,-0.14,-0.14,orange,1,-0.14,0.41,black,1,0.14,0.41,red,1,0.27,-0.14,green,1,-0.27,-0.27,white,1,-0.41,0.41,blue,1,0.05,0.05,0.15,0.14,-0.14,magenta,k,,,,,,,0,8,8,81,,,,,,,,,,,,,,,,,,,,l,0,1.067178099998273,,,,,,,,,,,,,,,,,,jk,001,2020_jul_23_1729,jul30online,2020.1.2,59.79834908402298,
18,same,4,0.41,0.27,orange,1,0.14,-0.27,blue,1,-0.27,-0.41,yellow,1,-0.41,0.27,magenta,1,0.14,0.41,red,0,0.14,-0.14,black,0,-0.41,-0.27,green,0,-0.41,0.41,white,0,0.05,0.05,0.15,0.14,-0.27,blue,k,,,,,,,0,9,9,17,,,,,,,,,,,,,,,,,,,,l,0,1.133131416994729,,,,,,,,,,,,,,,,,,jk,001,2020_jul_23_1729,jul30online,2020.1.2,59.79834908402298,
66,same,8,0.27,0.27,magenta,1,0.14,-0.41,green,1,-0.27,-0.14,yellow,1,-0.14,0.27,orange,1,0.41,0.41,red,1,0.14,-0.14,white,1,-0.14,-0.27,black,1,-0.27,0.41,blue,1,0.05,0.05,0.15,0.41,0.41,red,k,,,,,,,0,10,10,65,,,,,,,,,,,,,,,,,,,,l,0,1.234264623002673,,,,,,,,,,,,,,,,,,jk,001,2020_jul_23_1729,jul30online,2020.1.2,59.79834908402298,
74,same,8,0.41,0.41,blue,1,0.14,-0.14,orange,1,-0.27,-0.41,white,1,-0.27,0.41,yellow,1,0.41,0.27,black,1,0.41,-0.41,red,1,-0.14,-0.27,magenta,1,-0.27,0.14,green,1,0.05,0.05,0.15,0.41,0.27,black,k,,,,,,,0,11,11,73,,,,,,,,,,,,,,,,,,,,k,1,0.884362347998831,,,,,,,,,,,,,,,,,,jk,001,2020_jul_23_1729,jul30online,2020.1.2,59.79834908402298,
61,same,8,0.41,0.41,orange,1,0.41,-0.41,magenta,1,-0.27,-0.41,blue,1,-0.14,0.27,yellow,1,0.14,0.41,red,1,0.14,-0.27,black,1,-0.41,-0.41,white,1,-0.27,0.14,green,1,0.05,0.05,0.15,-0.27,-0.41,blue,k,,,,,,,0,12,12,60,,,,,,,,,,,,,,,,,,,,l,0,1.284230461998959,,,,,,,,,,,,,,,,,,jk,001,2020_jul_23_1729,jul30online,2020.1.2,59.79834908402298,
86,same,8,0.41,0.27,magenta,1,0.14,-0.14,green,1,-0.14,-0.41,orange,1,-0.14,0.41,red,1,0.27,0.14,black,1,0.14,-0.41,white,1,-0.41,-0.27,yellow,1,-0.27,0.14,blue,1,0.05,0.05,0.15,0.14,-0.41,white,k,,,,,,,0,13,13,85,,,,,,,,,,,,,,,,,,,,l,0,1.46645535499556,,,,,,,,,,,,,,,,,,jk,001,2020_jul_23_1729,jul30online,2020.1.2,59.79834908402298,
113,different,8,0.41,0.27,magenta,1,0.27,-0.27,red,1,-0.41,-0.41,yellow,1,-0.14,0.27,green,1,0.41,0.14,orange,1,0.14,-0.41,blue,1,-0.14,-0.41,black,1,-0.41,0.27,white,1,0.05,0.05,0.15,0.41,0.14,yellow,l,,,,,,,0,14,14,112,,,,,,,,,,,,,,,,,,,,l,1,1.0011433249965194,,,,,,,,,,,,,,,,,,jk,001,2020_jul_23_1729,jul30online,2020.1.2,59.79834908402298,
19,same,4,0.27,0.41,blue,1,0.14,-0.41,red,1,-0.14,-0.27,black,1,-0.14,0.27,magenta,1,0.27,0.14,yellow,0,0.27,-0.14,orange,0,-0.14,-0.41,green,0,-0.14,0.14,white,0,0.05,0.05,0.15,0.27,0.41,blue,k,,,,,,,0,15,15,18,,,,,,,,,,,,,,,,,,,,l,0,1.0174808809970273,,,,,,,,,,,,,,,,,,jk,001,2020_jul_23_1729,jul30online,2020.1.2,59.79834908402298,
57,different,4,0.14,0.41,black,1,0.14,-0.14,blue,1,-0.41,-0.14,red,1,-0.41,0.14,orange,1,0.41,0.41,magenta,0,0.41,-0.14,white,0,-0.14,-0.27,yellow,0,-0.27,0.41,green,0,0.05,0.05,0.15,-0.41,0.14,blue,l,,,,,,,0,16,16,56,,,,,,,,,,,,,,,,,,,,l,1,1.0003509759990266,,,,,,,,,,,,,,,,,,jk,001,2020_jul_23_1729,jul30online,2020.1.2,59.79834908402298,
17,same,4,0.41,0.27,white,1,0.41,-0.41,black,1,-0.14,-0.27,magenta,1,-0.14,0.41,green,1,0.14,0.14,orange,0,0.14,-0.41,yellow,0,-0.14,-0.41,red,0,-0.27,0.14,blue,0,0.05,0.05,0.15,-0.14,0.41,green,k,,,,,,,0,17,17,16,,,,,,,,,,,,,,,,,,,,k,1,1.2356782919960096,,,,,,,,,,,,,,,,,,jk,001,2020_jul_23_1729,jul30online,2020.1.2,59.79834908402298,
100,different,8,0.41,0.27,black,1,0.41,-0.27,red,1,-0.14,-0.27,magenta,1,-0.14,0.27,orange,1,0.14,0.27,blue,1,0.27,-0.14,yellow,1,-0.41,-0.14,white,1,-0.41,0.14,green,1,0.05,0.05,0.15,0.41,0.27,orange,l,,,,,,,0,18,18,99,,,,,,,,,,,,,,,,,,,,l,1,1.2341086710002855,,,,,,,,,,,,,,,,,,jk,001,2020_jul_23_1729,jul30online,2020.1.2,59.79834908402298,
1,same,4,0.14,0.14,magenta,1,0.27,-0.14,blue,1,-0.27,-0.14,black,1,-0.27,0.27,green,1,0.41,0.41,red,0,0.27,-0.27,white,0,-0.14,-0.14,yellow,0,-0.27,0.41,orange,0,0.05,0.05,0.15,0.14,0.14,magenta,k,,,,,,,0,19,19,0,,,,,,,,,,,,,,,,,,,,k,1,0.8670455899991794,,,,,,,,,,,,,,,,,,jk,001,2020_jul_23_1729,jul30online,2020.1.2,59.79834908402298,
104,different,8,0.41,0.41,white,1,0.41,-0.41,blue,1,-0.27,-0.14,green,1,-0.27,0.14,orange,1,0.14,0.41,red,1,0.27,-0.27,yellow,1,-0.41,-0.27,magenta,1,-0.14,0.41,black,1,0.05,0.05,0.15,-0.14,0.41,magenta,l,,,,,,,0,20,20,103,,,,,,,,,,,,,,,,,,,,l,1,1.1676505790019291,,,,,,,,,,,,,,,,,,jk,001,2020_jul_23_1729,jul30online,2020.1.2,59.79834908402298,
47,different,4,0.27,0.27,magenta,1,0.41,-0.27,black,1,-0.14,-0.41,red,1,-0.14,0.41,green,1,0.41,0.41,white,0,0.27,-0.14,orange,0,-0.27,-0.14,blue,0,-0.27,0.14,yellow,0,0.05,0.05,0.15,0.27,0.27,blue,l,,,,,,,0,21,21,46,,,,,,,,,,,,,,,,,,,,l,1,0.9177976479986683,,,,,,,,,,,,,,,,,,jk,001,2020_jul_23_1729,jul30online,2020.1.2,59.79834908402298,
46,different,4,0.14,0.14,red,1,0.14,-0.14,green,1,-0.14,-0.41,orange,1,-0.27,0.41,blue,1,0.41,0.27,white,0,0.14,-0.27,magenta,0,-0.14,-0.14,black,0,-0.41,0.27,yellow,0,0.05,0.05,0.15,-0.14,-0.41,blue,l,,,,,,,0,22,22,45,,,,,,,,,,,,,,,,,,,,l,1,1.1846137879983871,,,,,,,,,,,,,,,,,,jk,001,2020_jul_23_1729,jul30online,2020.1.2,59.79834908402298,
20,same,4,0.27,0.14,white,1,0.14,-0.14,orange,1,-0.27,-0.27,green,1,-0.41,0.27,yellow,1,0.14,0.41,black,0,0.41,-0.41,red,0,-0.27,-0.41,magenta,0,-0.27,0.27,blue,0,0.05,0.05,0.15,-0.27,-0.27,green,k,,,,,,,0,23,23,19,,,,,,,,,,,,,,,,,,,,l,0,1.1676726700025029,,,,,,,,,,,,,,,,,,jk,001,2020_jul_23_1729,jul30online,2020.1.2,59.79834908402298,
117,different,8,0.14,0.41,black,1,0.14,-0.41,white,1,-0.41,-0.27,magenta,1,-0.27,0.41,yellow,1,0.41,0.27,orange,1,0.41,-0.14,red,1,-0.27,-0.27,green,1,-0.14,0.14,blue,1,0.05,0.05,0.15,0.41,-0.14,black,l,,,,,,,0,24,24,116,,,,,,,,,,,,,,,,,,,,l,1,0.9182782539937762,,,,,,,,,,,,,,,,,,jk,001,2020_jul_23_1729,jul30online,2020.1.2,59.79834908402298,
39,different,4,0.41,0.27,green,1,0.41,-0.27,yellow,1,-0.27,-0.27,orange,1,-0.14,0.14,white,1,0.14,0.14,magenta,0,0.27,-0.41,blue,0,-0.14,-0.27,red,0,-0.41,0.27,black,0,0.05,0.05,0.15,-0.14,0.14,green,l,,,,,,,0,25,25,38,,,,,,,,,,,,,,,,,,,,l,1,1.1341150809967075,,,,,,,,,,,,,,,,,,jk,001,2020_jul_23_1729,jul30online,2020.1.2,59.79834908402298,
89,same,8,0.14,0.14,blue,1,0.14,-0.27,orange,1,-0.14,-0.27,yellow,1,-0.41,0.27,red,1,0.27,0.27,white,1,0.14,-0.14,green,1,-0.14,-0.41,magenta,1,-0.41,0.41,black,1,0.05,0.05,0.15,0.14,-0.27,orange,k,,,,,,,0,26,26,88,,,,,,,,,,,,,,,,,,,,l,0,1.334284373006085,,,,,,,,,,,,,,,,,,jk,001,2020_jul_23_1729,jul30online,2020.1.2,59.79834908402298,
72,same,8,0.27,0.41,blue,1,0.41,-0.27,magenta,1,-0.41,-0.41,yellow,1,-0.27,0.41,black,1,0.41,0.41,white,1,0.27,-0.41,green,1,-0.41,-0.27,orange,1,-0.14,0.27,red,1,0.05,0.05,0.15,-0.14,0.27,red,k,,,,,,,0,27,27,71,,,,,,,,,,,,,,,,,,,,l,0,0.9340824329992756,,,,,,,,,,,,,,,,,,jk,001,2020_jul_23_1729,jul30online,2020.1.2,59.79834908402298,
105,different,8,0.41,0.27,white,1,0.14,-0.14,magenta,1,-0.27,-0.14,blue,1,-0.41,0.41,yellow,1,0.41,0.41,red,1,0.14,-0.41,green,1,-0.27,-0.27,orange,1,-0.27,0.41,black,1,0.05,0.05,0.15,0.41,0.27,orange,l,,,,,,,0,28,28,104,,,,,,,,,,,,,,,,,,,,l,1,1.1343543600014527,,,,,,,,,,,,,,,,,,jk,001,2020_jul_23_1729,jul30online,2020.1.2,59.79834908402298,
3,same,4,0.27,0.14,green,1,0.27,-0.27,orange,1,-0.27,-0.41,yellow,1,-0.41,0.41,magenta,1,0.14,0.41,black,0,0.14,-0.41,red,0,-0.27,-0.14,white,0,-0.14,0.14,blue,0,0.05,0.05,0.15,-0.27,-0.41,yellow,k,,,,,,,0,29,29,2,,,,,,,,,,,,,,,,,,,,l,0,0.9843688309993013,,,,,,,,,,,,,,,,,,jk,001,2020_jul_23_1729,jul30online,2020.1.2,59.79834908402298,
95,different,8,0.41,0.41,black,1,0.14,-0.14,white,1,-0.14,-0.41,orange,1,-0.14,0.27,blue,1,0.41,0.27,magenta,1,0.14,-0.41,green,1,-0.27,-0.27,red,1,-0.41,0.14,yellow,1,0.05,0.05,0.15,-0.14,0.27,green,l,,,,,,,0,30,30,94,,,,,,,,,,,,,,,,,,,,l,1,1.967275906004943,,,,,,,,,,,,,,,,,,jk,001,2020_jul_23_1729,jul30online,2020.1.2,59.79834908402298,
94,different,8,0.41,0.27,yellow,1,0.41,-0.27,blue,1,-0.41,-0.14,magenta,1,-0.41,0.27,orange,1,0.41,0.41,red,1,0.41,-0.41,green,1,-0.14,-0.14,black,1,-0.41,0.14,white,1,0.05,0.05,0.15,-0.41,0.14,black,l,,,,,,,0,31,31,93,,,,,,,,,,,,,,,,,,,,l,1,0.934323333996872,,,,,,,,,,,,,,,,,,jk,001,2020_jul_23_1729,jul30online,2020.1.2,59.79834908402298,
60,different,4,0.41,0.14,white,1,0.14,-0.41,green,1,-0.41,-0.41,yellow,1,-0.41,0.41,magenta,1,0.14,0.14,orange,0,0.41,-0.41,red,0,-0.14,-0.41,black,0,-0.27,0.27,blue,0,0.05,0.05,0.15,0.41,0.14,blue,l,,,,,,,0,32,32,59,,,,,,,,,,,,,,,,,,,,l,1,0.7346424220013432,,,,,,,,,,,,,,,,,,jk,001,2020_jul_23_1729,jul30online,2020.1.2,59.79834908402298,
76,same,8,0.14,0.27,orange,1,0.41,-0.14,white,1,-0.27,-0.27,blue,1,-0.14,0.14,black,1,0.27,0.41,green,1,0.27,-0.14,red,1,-0.27,-0.14,yellow,1,-0.27,0.27,magenta,1,0.05,0.05,0.15,0.41,-0.14,white,k,,,,,,,0,33,33,75,,,,,,,,,,,,,,,,,,,,l,0,0.8343356920013321,,,,,,,,,,,,,,,,,,jk,001,2020_jul_23_1729,jul30online,2020.1.2,59.79834908402298,
8,same,4,0.27,0.41,orange,1,0.41,-0.14,white,1,-0.14,-0.41,green,1,-0.14,0.41,black,1,0.41,0.41,blue,0,0.27,-0.41,yellow,0,-0.41,-0.27,red,0,-0.41,0.41,magenta,0,0.05,0.05,0.15,-0.14,-0.41,green,k,,,,,,,0,34,34,7,,,,,,,,,,,,,,,,,,,,l,0,1.1681393190010567,,,,,,,,,,,,,,,,,,jk,001,2020_jul_23_1729,jul30online,2020.1.2,59.79834908402298,
69,same,8,0.27,0.14,magenta,1,0.27,-0.41,yellow,1,-0.14,-0.41,green,1,-0.14,0.41,orange,1,0.14,0.41,red,1,0.14,-0.27,black,1,-0.14,-0.27,blue,1,-0.27,0.14,white,1,0.05,0.05,0.15,0.14,-0.27,black,k,,,,,,,0,35,35,68,,,,,,,,,,,,,,,,,,,,l,0,0.9842941039969446,,,,,,,,,,,,,,,,,,jk,001,2020_jul_23_1729,jul30online,2020.1.2,59.79834908402298,
54,different,4,0.14,0.14,yellow,1,0.41,-0.41,magenta,1,-0.14,-0.41,black,1,-0.14,0.27,orange,1,0.41,0.27,white,0,0.41,-0.27,red,0,-0.27,-0.14,green,0,-0.27,0.27,blue,0,0.05,0.05,0.15,0.41,-0.41,white,l,,,,,,,0,36,36,53,,,,,,,,,,,,,,,,,,,,l,1,0.9171735619966057,,,,,,,,,,,,,,,,,,jk,001,2020_jul_23_1729,jul30online,2020.1.2,59.79834908402298,
90,same,8,0.27,0.14,orange,1,0.14,-0.27,green,1,-0.14,-0.41,magenta,1,-0.14,0.27,white,1,0.41,0.41,blue,1,0.14,-0.14,black,1,-0.14,-0.14,yellow,1,-0.27,0.27,red,1,0.05,0.05,0.15,0.14,-0.14,black,k,,,,,,,0,37,37,89,,,,,,,,,,,,,,,,,,,,l,0,2.60109959699912,,,,,,,,,,,,,,,,,,jk,001,2020_jul_23_1729,jul30online,2020.1.2,59.79834908402298,
63,same,8,0.27,0.27,magenta,1,0.27,-0.27,yellow,1,-0.27,-0.14,orange,1,-0.14,0.14,green,1,0.41,0.27,blue,1,0.41,-0.27,white,1,-0.41,-0.41,red,1,-0.41,0.27,black,1,0.05,0.05,0.15,0.27,0.27,magenta,k,,,,,,,0,38,38,62,,,,,,,,,,,,,,,,,,,,l,0,1.316998654998315,,,,,,,,,,,,,,,,,,jk,001,2020_jul_23_1729,jul30online,2020.1.2,59.79834908402298,
11,same,4,0.27,0.14,red,1,0.14,-0.14,white,1,-0.27,-0.41,blue,1,-0.27,0.14,yellow,1,0.27,0.27,green,0,0.41,-0.27,black,0,-0.41,-0.41,magenta,0,-0.41,0.14,orange,0,0.05,0.05,0.15,-0.27,-0.41,blue,k,,,,,,,0,39,39,10,,,,,,,,,,,,,,,,,,,,k,1,0.9503716420003911,,,,,,,,,,,,,,,,,,jk,001,2020_jul_23_1729,jul30online,2020.1.2,59.79834908402298,
2,same,4,0.27,0.41,magenta,1,0.41,-0.14,red,1,-0.27,-0.14,orange,1,-0.27,0.14,blue,1,0.14,0.14,white,0,0.14,-0.14,green,0,-0.14,-0.14,black,0,-0.14,0.41,yellow,0,0.05,0.05,0.15,-0.27,-0.14,orange,k,,,,,,,0,40,40,1,,,,,,,,,,,,,,,,,,,,l,0,2.150460329998168,,,,,,,,,,,,,,,,,,jk,001,2020_jul_23_1729,jul30online,2020.1.2,59.79834908402298,
12,same,4,0.14,0.41,red,1,0.14,-0.41,green,1,-0.41,-0.41,black,1,-0.27,0.27,white,1,0.27,0.41,magenta,0,0.41,-0.14,orange,0,-0.27,-0.41,yellow,0,-0.41,0.27,blue,0,0.05,0.05,0.15,-0.41,-0.41,black,k,,,,,,,0,41,41,11,,,,,,,,,,,,,,,,,,,,k,1,1.2509819029946811,,,,,,,,,,,,,,,,,,jk,001,2020_jul_23_1729,jul30online,2020.1.2,59.79834908402298,
58,different,4,0.14,0.41,blue,1,0.14,-0.14,black,1,-0.14,-0.14,yellow,1,-0.27,0.41,magenta,1,0.27,0.41,red,0,0.14,-0.27,white,0,-0.41,-0.27,orange,0,-0.27,0.27,green,0,0.05,0.05,0.15,0.14,0.41,yellow,l,,,,,,,0,42,42,57,,,,,,,,,,,,,,,,,,,,l,1,1.6503469870003755,,,,,,,,,,,,,,,,,,jk,001,2020_jul_23_1729,jul30online,2020.1.2,59.79834908402298,
55,different,4,0.14,0.14,black,1,0.41,-0.14,white,1,-0.27,-0.27,magenta,1,-0.14,0.41,blue,1,0.27,0.14,yellow,0,0.14,-0.27,red,0,-0.27,-0.41,orange,0,-0.27,0.41,green,0,0.05,0.05,0.15,0.14,0.14,yellow,l,,,,,,,0,43,43,54,,,,,,,,,,,,,,,,,,,,l,1,3.2847650480034645,,,,,,,,,,,,,,,,,,jk,001,2020_jul_23_1729,jul30online,2020.1.2,59.79834908402298,
30,same,4,0.14,0.41,black,1,0.41,-0.27,yellow,1,-0.14,-0.27,green,1,-0.41,0.14,orange,1,0.41,0.27,blue,0,0.14,-0.41,magenta,0,-0.27,-0.27,white,0,-0.41,0.41,red,0,0.05,0.05,0.15,0.14,0.41,black,k,,,,,,,0,44,44,29,,,,,,,,,,,,,,,,,,,,k,1,1.0338560000018333,,,,,,,,,,,,,,,,,,jk,001,2020_jul_23_1729,jul30online,2020.1.2,59.79834908402298,
85,same,8,0.14,0.41,green,1,0.14,-0.41,magenta,1,-0.41,-0.14,black,1,-0.14,0.27,blue,1,0.27,0.27,orange,1,0.41,-0.41,red,1,-0.27,-0.14,white,1,-0.41,0.27,yellow,1,0.05,0.05,0.15,0.27,0.27,orange,k,,,,,,,0,45,45,84,,,,,,,,,,,,,,,,,,,,l,0,1.1345101749975584,,,,,,,,,,,,,,,,,,jk,001,2020_jul_23_1729,jul30online,2020.1.2,59.79834908402298,
62,same,8,0.41,0.14,red,1,0.14,-0.27,white,1,-0.41,-0.27,orange,1,-0.27,0.27,magenta,1,0.14,0.27,green,1,0.14,-0.14,blue,1,-0.27,-0.41,black,1,-0.41,0.14,yellow,1,0.05,0.05,0.15,-0.27,0.27,magenta,k,,,,,,,0,46,46,61,,,,,,,,,,,,,,,,,,,,l,0,1.101460865997069,,,,,,,,,,,,,,,,,,jk,001,2020_jul_23_1729,jul30online,2020.1.2,59.79834908402298,
52,different,4,0.27,0.41,white,1,0.14,-0.14,orange,1,-0.41,-0.14,black,1,-0.27,0.41,blue,1,0.14,0.27,magenta,0,0.27,-0.14,green,0,-0.27,-0.14,red,0,-0.14,0.41,yellow,0,0.05,0.05,0.15,0.14,-0.14,green,l,,,,,,,0,47,47,51,,,,,,,,,,,,,,,,,,,,l,1,0.7677546929990058,,,,,,,,,,,,,,,,,,jk,001,2020_jul_23_1729,jul30online,2020.1.2,59.79834908402298,
83,same,8,0.14,0.27,yellow,1,0.27,-0.41,orange,1,-0.27,-0.41,green,1,-0.41,0.14,white,1,0.41,0.27,blue,1,0.14,-0.14,magenta,1,-0.14,-0.14,red,1,-0.41,0.41,black,1,0.05,0.05,0.15,-0.41,0.41,black,k,,,,,,,0,48,48,82,,,,,,,,,,,,,,,,,,,,l,0,1.0335741470044013,,,,,,,,,,,,,,,,,,jk,001,2020_jul_23_1729,jul30online,2020.1.2,59.79834908402298,
73,same,8,0.14,0.14,blue,1,0.14,-0.41,yellow,1,-0.41,-0.41,red,1,-0.41,0.27,orange,1,0.27,0.41,magenta,1,0.14,-0.27,green,1,-0.41,-0.27,black,1,-0.27,0.27,white,1,0.05,0.05,0.15,0.27,0.41,magenta,k,,,,,,,0,49,49,72,,,,,,,,,,,,,,,,,,,,l,0,1.2847789400038891,,,,,,,,,,,,,,,,,,jk,001,2020_jul_23_1729,jul30online,2020.1.2,59.79834908402298,
29,same,4,0.14,0.27,black,1,0.41,-0.14,blue,1,-0.41,-0.14,magenta,1,-0.27,0.27,green,1,0.27,0.27,yellow,0,0.41,-0.41,orange,0,-0.41,-0.27,white,0,-0.14,0.14,red,0,0.05,0.05,0.15,0.41,-0.14,blue,k,,,,,,,0,50,50,28,,,,,,,,,,,,,,,,,,,,l,0,1.0003985060029663,,,,,,,,,,,,,,,,,,jk,001,2020_jul_23_1729,jul30online,2020.1.2,59.79834908402298,
59,different,4,0.27,0.41,black,1,0.41,-0.14,blue,1,-0.27,-0.27,white,1,-0.14,0.41,green,1,0.14,0.27,red,0,0.41,-0.41,magenta,0,-0.14,-0.27,orange,0,-0.41,0.27,yellow,0,0.05,0.05,0.15,0.27,0.41,yellow,l,,,,,,,0,51,51,58,,,,,,,,,,,,,,,,,,,,l,1,0.8670117709989427,,,,,,,,,,,,,,,,,,jk,001,2020_jul_23_1729,jul30online,2020.1.2,59.79834908402298,
87,same,8,0.27,0.14,red,1,0.14,-0.14,yellow,1,-0.27,-0.14,orange,1,-0.27,0.27,magenta,1,0.41,0.27,blue,1,0.41,-0.41,green,1,-0.27,-0.27,black,1,-0.14,0.27,white,1,0.05,0.05,0.15,0.41,-0.41,green,k,,,,,,,0,52,52,86,,,,,,,,,,,,,,,,,,,,l,0,0.8837663540034555,,,,,,,,,,,,,,,,,,jk,001,2020_jul_23_1729,jul30online,2020.1.2,59.79834908402298,
116,different,8,0.27,0.14,green,1,0.41,-0.14,black,1,-0.27,-0.41,magenta,1,-0.41,0.14,white,1,0.41,0.41,blue,1,0.41,-0.27,yellow,1,-0.41,-0.27,red,1,-0.27,0.14,orange,1,0.05,0.05,0.15,0.41,-0.27,magenta,l,,,,,,,0,53,53,115,,,,,,,,,,,,,,,,,,,,l,1,0.9851828110040515,,,,,,,,,,,,,,,,,,jk,001,2020_jul_23_1729,jul30online,2020.1.2,59.79834908402298,
16,same,4,0.27,0.27,magenta,1,0.14,-0.14,orange,1,-0.14,-0.41,blue,1,-0.27,0.14,red,1,0.14,0.14,black,0,0.14,-0.27,green,0,-0.27,-0.27,yellow,0,-0.27,0.27,white,0,0.05,0.05,0.15,-0.27,0.14,red,k,,,,,,,0,54,54,15,,,,,,,,,,,,,,,,,,,,l,0,0.8165273670019815,,,,,,,,,,,,,,,,,,jk,001,2020_jul_23_1729,jul30online,2020.1.2,59.79834908402298,
31,different,4,0.27,0.41,orange,1,0.14,-0.14,black,1,-0.41,-0.41,yellow,1,-0.41,0.27,white,1,0.27,0.14,green,0,0.41,-0.27,blue,0,-0.14,-0.41,red,0,-0.41,0.14,magenta,0,0.05,0.05,0.15,-0.41,0.27,yellow,l,,,,,,,0,55,55,30,,,,,,,,,,,,,,,,,,,,l,1,0.8348248340043938,,,,,,,,,,,,,,,,,,jk,001,2020_jul_23_1729,jul30online,2020.1.2,59.79834908402298,
49,different,4,0.27,0.14,green,1,0.41,-0.14,yellow,1,-0.27,-0.41,red,1,-0.14,0.14,white,1,0.14,0.14,blue,0,0.27,-0.27,black,0,-0.14,-0.41,orange,0,-0.41,0.14,magenta,0,0.05,0.05,0.15,0.27,0.14,yellow,l,,,,,,,0,56,56,48,,,,,,,,,,,,,,,,,,,,l,1,0.7667458830037504,,,,,,,,,,,,,,,,,,jk,001,2020_jul_23_1729,jul30online,2020.1.2,59.79834908402298,
40,different,4,0.41,0.41,magenta,1,0.41,-0.27,white,1,-0.27,-0.41,yellow,1,-0.14,0.41,black,1,0.27,0.27,blue,0,0.41,-0.41,green,0,-0.14,-0.27,red,0,-0.27,0.27,orange,0,0.05,0.05,0.15,-0.27,-0.41,orange,l,,,,,,,0,57,57,39,,,,,,,,,,,,,,,,,,,,l,1,1.4344077019995893,,,,,,,,,,,,,,,,,,jk,001,2020_jul_23_1729,jul30online,2020.1.2,59.79834908402298,
65,same,8,0.41,0.41,blue,1,0.27,-0.41,yellow,1,-0.27,-0.41,red,1,-0.41,0.27,white,1,0.14,0.27,black,1,0.27,-0.27,orange,1,-0.41,-0.41,magenta,1,-0.41,0.41,green,1,0.05,0.05,0.15,0.27,-0.27,orange,k,,,,,,,0,58,58,64,,,,,,,,,,,,,,,,,,,,l,0,1.0511632010020548,,,,,,,,,,,,,,,,,,jk,001,2020_jul_23_1729,jul30online,2020.1.2,59.79834908402298,
4,same,4,0.41,0.27,magenta,1,0.27,-0.41,orange,1,-0.41,-0.41,red,1,-0.14,0.41,green,1,0.27,0.41,blue,0,0.14,-0.41,black,0,-0.27,-0.14,white,0,-0.41,0.27,yellow,0,0.05,0.05,0.15,0.27,-0.41,orange,k,,,,,,,0,59,59,3,,,,,,,,,,,,,,,,,,,,k,1,1.1333044720013277,,,,,,,,,,,,,,,,,,jk,001,2020_jul_23_1729,jul30online,2020.1.2,59.79834908402298,
33,different,4,0.27,0.41,magenta,1,0.41,-0.41,red,1,-0.27,-0.41,yellow,1,-0.14,0.41,black,1,0.14,0.41,blue,0,0.14,-0.41,orange,0,-0.41,-0.14,white,0,-0.41,0.27,green,0,0.05,0.05,0.15,0.27,0.41,black,l,,,,,,,0,60,60,32,,,,,,,,,,,,,,,,,,,,l,1,1.1340290430016466,,,,,,,,,,,,,,,,,,jk,001,2020_jul_23_1729,jul30online,2020.1.2,59.79834908402298,
45,different,4,0.14,0.14,red,1,0.27,-0.27,black,1,-0.41,-0.27,white,1,-0.41,0.27,blue,1,0.27,0.27,magenta,0,0.14,-0.41,orange,0,-0.14,-0.14,green,0,-0.27,0.14,yellow,0,0.05,0.05,0.15,0.14,0.14,blue,l,,,,,,,0,61,61,44,,,,,,,,,,,,,,,,,,,,l,1,0.8011272680014372,,,,,,,,,,,,,,,,,,jk,001,2020_jul_23_1729,jul30online,2020.1.2,59.79834908402298,
23,same,4,0.41,0.14,white,1,0.14,-0.27,magenta,1,-0.14,-0.27,red,1,-0.14,0.27,green,1,0.41,0.27,blue,0,0.14,-0.41,yellow,0,-0.41,-0.27,orange,0,-0.27,0.41,black,0,0.05,0.05,0.15,-0.14,0.27,green,k,,,,,,,0,62,62,22,,,,,,,,,,,,,,,,,,,,k,1,1.1501098899971112,,,,,,,,,,,,,,,,,,jk,001,2020_jul_23_1729,jul30online,2020.1.2,59.79834908402298,
25,same,4,0.41,0.27,white,1,0.27,-0.27,yellow,1,-0.41,-0.14,black,1,-0.14,0.27,blue,1,0.41,0.14,green,0,0.14,-0.41,magenta,0,-0.41,-0.41,orange,0,-0.27,0.41,red,0,0.05,0.05,0.15,0.27,-0.27,yellow,k,,,,,,,0,63,63,24,,,,,,,,,,,,,,,,,,,,k,1,1.200670074998925,,,,,,,,,,,,,,,,,,jk,001,2020_jul_23_1729,jul30online,2020.1.2,59.79834908402298,
97,different,8,0.27,0.27,blue,1,0.14,-0.27,orange,1,-0.14,-0.14,black,1,-0.27,0.14,white,1,0.14,0.14,magenta,1,0.27,-0.41,yellow,1,-0.27,-0.41,green,1,-0.41,0.14,red,1,0.05,0.05,0.15,-0.27,0.14,black,l,,,,,,,0,64,64,96,,,,,,,,,,,,,,,,,,,,l,1,0.9503198770034942,,,,,,,,,,,,,,,,,,jk,001,2020_jul_23_1729,jul30online,2020.1.2,59.79834908402298,
24,same,4,0.41,0.27,green,1,0.14,-0.27,black,1,-0.27,-0.27,yellow,1,-0.14,0.14,orange,1,0.41,0.14,blue,0,0.14,-0.14,white,0,-0.41,-0.14,red,0,-0.27,0.41,magenta,0,0.05,0.05,0.15,-0.14,0.14,orange,k,,,,,,,0,65,65,23,,,,,,,,,,,,,,,,,,,,k,1,0.9168807050009491,,,,,,,,,,,,,,,,,,jk,001,2020_jul_23_1729,jul30online,2020.1.2,59.79834908402298,
101,different,8,0.14,0.27,magenta,1,0.14,-0.27,white,1,-0.41,-0.14,yellow,1,-0.41,0.14,black,1,0.14,0.41,red,1,0.41,-0.41,blue,1,-0.14,-0.41,green,1,-0.27,0.27,orange,1,0.05,0.05,0.15,-0.41,0.14,magenta,l,,,,,,,0,66,66,100,,,,,,,,,,,,,,,,,,,,l,1,1.0183859230019152,,,,,,,,,,,,,,,,,,jk,001,2020_jul_23_1729,jul30online,2020.1.2,59.79834908402298,
5,same,4,0.27,0.27,blue,1,0.14,-0.14,orange,1,-0.27,-0.27,black,1,-0.27,0.41,magenta,1,0.27,0.41,green,0,0.14,-0.41,white,0,-0.27,-0.41,yellow,0,-0.27,0.14,red,0,0.05,0.05,0.15,0.14,-0.14,orange,k,,,,,,,0,67,67,4,,,,,,,,,,,,,,,,,,,,l,0,1.3162522270067711,,,,,,,,,,,,,,,,,,jk,001,2020_jul_23_1729,jul30online,2020.1.2,59.79834908402298,
103,different,8,0.14,0.14,black,1,0.14,-0.27,white,1,-0.41,-0.41,green,1,-0.41,0.27,red,1,0.27,0.41,orange,1,0.27,-0.27,blue,1,-0.41,-0.14,magenta,1,-0.41,0.41,yellow,1,0.05,0.05,0.15,0.27,-0.27,magenta,l,,,,,,,0,68,68,102,,,,,,,,,,,,,,,,,,,,l,1,1.2157140080016688,,,,,,,,,,,,,,,,,,jk,001,2020_jul_23_1729,jul30online,2020.1.2,59.79834908402298,
51,different,4,0.41,0.41,yellow,1,0.14,-0.27,red,1,-0.14,-0.27,white,1,-0.41,0.14,orange,1,0.14,0.41,green,0,0.27,-0.41,black,0,-0.27,-0.14,blue,0,-0.41,0.27,magenta,0,0.05,0.05,0.15,0.41,0.41,red,l,,,,,,,0,69,69,50,,,,,,,,,,,,,,,,,,,,l,1,0.8843272049998632,,,,,,,,,,,,,,,,,,jk,001,2020_jul_23_1729,jul30online,2020.1.2,59.79834908402298,
115,different,8,0.14,0.27,green,1,0.27,-0.41,orange,1,-0.14,-0.14,yellow,1,-0.27,0.41,magenta,1,0.27,0.14,blue,1,0.14,-0.27,red,1,-0.41,-0.14,white,1,-0.41,0.14,black,1,0.05,0.05,0.15,0.14,-0.27,white,l,,,,,,,0,70,70,114,,,,,,,,,,,,,,,,,,,,l,1,0.8173699249964557,,,,,,,,,,,,,,,,,,jk,001,2020_jul_23_1729,jul30online,2020.1.2,59.79834908402298,
36,different,4,0.41,0.27,magenta,1,0.27,-0.14,orange,1,-0.41,-0.41,yellow,1,-0.14,0.14,blue,1,0.14,0.41,green,0,0.27,-0.27,black,0,-0.41,-0.27,white,0,-0.41,0.41,red,0,0.05,0.05,0.15,0.27,-0.14,black,l,,,,,,,0,71,71,35,,,,,,,,,,,,,,,,,,,,l,1,1.0337614079980995,,,,,,,,,,,,,,,,,,jk,001,2020_jul_23_1729,jul30online,2020.1.2,59.79834908402298,
114,different,8,0.41,0.41,yellow,1,0.14,-0.41,red,1,-0.41,-0.41,blue,1,-0.27,0.14,white,1,0.41,0.27,black,1,0.27,-0.41,green,1,-0.14,-0.41,orange,1,-0.14,0.41,magenta,1,0.05,0.05,0.15,-0.14,0.41,orange,l,,,,,,,0,72,72,113,,,,,,,,,,,,,,,,,,,,l,1,1.0674858840066008,,,,,,,,,,,,,,,,,,jk,001,2020_jul_23_1729,jul30online,2020.1.2,59.79834908402298,
111,different,8,0.27,0.14,red,1,0.41,-0.27,green,1,-0.27,-0.14,yellow,1,-0.14,0.14,orange,1,0.41,0.41,black,1,0.27,-0.27,white,1,-0.27,-0.41,blue,1,-0.27,0.14,magenta,1,0.05,0.05,0.15,-0.27,-0.41,red,l,,,,,,,0,73,73,110,,,,,,,,,,,,,,,,,,,,l,1,0.8990923520032084,,,,,,,,,,,,,,,,,,jk,001,2020_jul_23_1729,jul30online,2020.1.2,59.79834908402298,
21,same,4,0.41,0.27,magenta,1,0.27,-0.41,black,1,-0.27,-0.14,orange,1,-0.41,0.41,green,1,0.27,0.14,yellow,0,0.27,-0.14,white,0,-0.27,-0.27,red,0,-0.41,0.27,blue,0,0.05,0.05,0.15,0.27,-0.41,black,k,,,,,,,0,74,74,20,,,,,,,,,,,,,,,,,,,,k,1,1.200762914995721,,,,,,,,,,,,,,,,,,jk,001,2020_jul_23_1729,jul30online,2020.1.2,59.79834908402298,
67,same,8,0.14,0.27,yellow,1,0.27,-0.14,magenta,1,-0.27,-0.27,black,1,-0.41,0.41,blue,1,0.41,0.14,white,1,0.14,-0.14,red,1,-0.41,-0.14,orange,1,-0.41,0.27,green,1,0.05,0.05,0.15,-0.27,-0.27,black,k,,,,,,,0,75,75,66,,,,,,,,,,,,,,,,,,,,k,1,1.1671302730028401,,,,,,,,,,,,,,,,,,jk,001,2020_jul_23_1729,jul30online,2020.1.2,59.79834908402298,
70,same,8,0.41,0.41,black,1,0.14,-0.27,red,1,-0.41,-0.41,magenta,1,-0.27,0.41,green,1,0.27,0.14,yellow,1,0.41,-0.41,orange,1,-0.27,-0.14,blue,1,-0.27,0.27,white,1,0.05,0.05,0.15,0.14,-0.27,red,k,,,,,,,0,76,76,69,,,,,,,,,,,,,,,,,,,,l,0,1.3513564399981988,,,,,,,,,,,,,,,,,,jk,001,2020_jul_23_1729,jul30online,2020.1.2,59.79834908402298,
6,same,4,0.41,0.27,orange,1,0.41,-0.14,magenta,1,-0.14,-0.27,black,1,-0.27,0.41,white,1,0.14,0.41,red,0,0.14,-0.41,blue,0,-0.14,-0.14,green,0,-0.41,0.41,yellow,0,0.05,0.05,0.15,-0.14,-0.27,black,k,,,,,,,0,77,77,5,,,,,,,,,,,,,,,,,,,,k,1,1.033646982999926,,,,,,,,,,,,,,,,,,jk,001,2020_jul_23_1729,jul30online,2020.1.2,59.79834908402298,
34,different,4,0.14,0.14,white,1,0.14,-0.14,magenta,1,-0.41,-0.41,black,1,-0.41,0.14,yellow,1,0.27,0.27,orange,0,0.14,-0.41,green,0,-0.41,-0.14,red,0,-0.14,0.14,blue,0,0.05,0.05,0.15,0.14,-0.14,white,l,,,,,,,0,78,78,33,,,,,,,,,,,,,,,,,,,,l,1,1.1500480389950098,,,,,,,,,,,,,,,,,,jk,001,2020_jul_23_1729,jul30online,2020.1.2,59.79834908402298,
91,different,8,0.27,0.27,red,1,0.41,-0.14,orange,1,-0.14,-0.27,green,1,-0.27,0.27,yellow,1,0.14,0.27,white,1,0.14,-0.14,black,1,-0.41,-0.41,blue,1,-0.14,0.41,magenta,1,0.05,0.05,0.15,-0.14,0.41,yellow,l,,,,,,,0,79,79,90,,,,,,,,,,,,,,,,,,,,l,1,1.2003685290037538,,,,,,,,,,,,,,,,,,jk,001,2020_jul_23_1729,jul30online,2020.1.2,59.79834908402298,
71,same,8,0.14,0.41,red,1,0.27,-0.14,yellow,1,-0.27,-0.41,white,1,-0.41,0.27,blue,1,0.41,0.27,magenta,1,0.14,-0.41,orange,1,-0.14,-0.14,black,1,-0.41,0.14,green,1,0.05,0.05,0.15,-0.41,0.27,blue,k,,,,,,,0,80,80,70,,,,,,,,,,,,,,,,,,,,l,0,0.800346679003269,,,,,,,,,,,,,,,,,,jk,001,2020_jul_23_1729,jul30online,2020.1.2,59.79834908402298,
42,different,4,0.41,0.41,green,1,0.14,-0.14,red,1,-0.27,-0.14,white,1,-0.27,0.27,blue,1,0.27,0.27,orange,0,0.14,-0.27,black,0,-0.27,-0.41,yellow,0,-0.27,0.41,magenta,0,0.05,0.05,0.15,-0.27,0.27,red,l,,,,,,,0,81,81,41,,,,,,,,,,,,,,,,,,,,l,1,0.8512816340007703,,,,,,,,,,,,,,,,,,jk,001,2020_jul_23_1729,jul30online,2020.1.2,59.79834908402298,
43,different,4,0.27,0.27,red,1,0.14,-0.27,orange,1,-0.41,-0.14,green,1,-0.27,0.27,white,1,0.41,0.41,black,0,0.27,-0.14,magenta,0,-0.41,-0.41,yellow,0,-0.41,0.41,blue,0,0.05,0.05,0.15,-0.41,-0.14,magenta,l,,,,,,,0,82,82,42,,,,,,,,,,,,,,,,,,,,l,1,1.1655614489936852,,,,,,,,,,,,,,,,,,jk,001,2020_jul_23_1729,jul30online,2020.1.2,59.79834908402298,
22,same,4,0.41,0.27,green,1,0.27,-0.14,black,1,-0.27,-0.41,white,1,-0.41,0.14,blue,1,0.14,0.14,magenta,0,0.41,-0.41,orange,0,-0.14,-0.27,red,0,-0.41,0.41,yellow,0,0.05,0.05,0.15,0.27,-0.14,black,k,,,,,,,0,83,83,21,,,,,,,,,,,,,,,,,,,,k,1,2.8510978920021444,,,,,,,,,,,,,,,,,,jk,001,2020_jul_23_1729,jul30online,2020.1.2,59.79834908402298,
88,same,8,0.27,0.41,red,1,0.41,-0.14,white,1,-0.14,-0.14,green,1,-0.41,0.41,orange,1,0.14,0.27,magenta,1,0.27,-0.27,yellow,1,-0.41,-0.41,black,1,-0.27,0.41,blue,1,0.05,0.05,0.15,-0.41,0.41,orange,k,,,,,,,0,84,84,87,,,,,,,,,,,,,,,,,,,,l,0,0.966778488997079,,,,,,,,,,,,,,,,,,jk,001,2020_jul_23_1729,jul30online,2020.1.2,59.79834908402298,
56,different,4,0.27,0.14,yellow,1,0.41,-0.14,blue,1,-0.14,-0.27,green,1,-0.41,0.14,white,1,0.14,0.14,magenta,0,0.41,-0.41,red,0,-0.41,-0.14,orange,0,-0.41,0.27,black,0,0.05,0.05,0.15,-0.14,-0.27,magenta,l,,,,,,,0,85,85,55,,,,,,,,,,,,,,,,,,,,l,1,1.0008355489990208,,,,,,,,,,,,,,,,,,jk,001,2020_jul_23_1729,jul30online,2020.1.2,59.79834908402298,
41,different,4,0.41,0.41,green,1,0.27,-0.41,orange,1,-0.27,-0.41,black,1,-0.27,0.41,magenta,1,0.14,0.41,white,0,0.41,-0.27,blue,0,-0.14,-0.27,red,0,-0.27,0.14,yellow,0,0.05,0.05,0.15,-0.27,-0.41,white,l,,,,,,,0,86,86,40,,,,,,,,,,,,,,,,,,,,l,1,0.8504506300014327,,,,,,,,,,,,,,,,,,jk,001,2020_jul_23_1729,jul30online,2020.1.2,59.79834908402298,
44,different,4,0.27,0.27,black,1,0.41,-0.14,red,1,-0.41,-0.27,magenta,1,-0.14,0.14,green,1,0.41,0.41,white,0,0.14,-0.14,yellow,0,-0.27,-0.41,blue,0,-0.27,0.14,orange,0,0.05,0.05,0.15,0.41,-0.14,magenta,l,,,,,,,0,87,87,43,,,,,,,,,,,,,,,,,,,,l,1,0.7668412190032541,,,,,,,,,,,,,,,,,,jk,001,2020_jul_23_1729,jul30online,2020.1.2,59.79834908402298,
98,different,8,0.41,0.27,black,1,0.14,-0.27,yellow,1,-0.14,-0.27,white,1,-0.27,0.14,red,1,0.27,0.27,green,1,0.41,-0.41,magenta,1,-0.41,-0.14,blue,1,-0.41,0.41,orange,1,0.05,0.05,0.15,0.41,0.27,red,l,,,,,,,0,88,88,97,,,,,,,,,,,,,,,,,,,,l,1,1.9508043079986237,,,,,,,,,,,,,,,,,,jk,001,2020_jul_23_1729,jul30online,2020.1.2,59.79834908402298,
77,same,8,0.41,0.41,black,1,0.14,-0.14,white,1,-0.27,-0.41,yellow,1,-0.14,0.27,orange,1,0.41,0.14,blue,1,0.41,-0.14,magenta,1,-0.14,-0.27,green,1,-0.27,0.14,red,1,0.05,0.05,0.15,0.41,-0.14,magenta,k,,,,,,,0,89,89,76,,,,,,,,,,,,,,,,,,,,l,0,0.815694318000169,,,,,,,,,,,,,,,,,,jk,001,2020_jul_23_1729,jul30online,2020.1.2,59.79834908402298,
81,same,8,0.27,0.14,yellow,1,0.41,-0.14,blue,1,-0.41,-0.14,green,1,-0.41,0.14,orange,1,0.14,0.41,red,1,0.14,-0.27,magenta,1,-0.14,-0.27,white,1,-0.14,0.14,black,1,0.05,0.05,0.15,-0.41,0.14,orange,k,,,,,,,0,90,90,80,,,,,,,,,,,,,,,,,,,,l,0,0.9847823509990121,,,,,,,,,,,,,,,,,,jk,001,2020_jul_23_1729,jul30online,2020.1.2,59.79834908402298,
79,same,8,0.27,0.14,green,1,0.41,-0.14,yellow,1,-0.27,-0.41,orange,1,-0.14,0.14,black,1,0.41,0.27,white,1,0.14,-0.14,red,1,-0.14,-0.27,blue,1,-0.27,0.41,magenta,1,0.05,0.05,0.15,0.41,0.27,white,k,,,,,,,0,91,91,78,,,,,,,,,,,,,,,,,,,,l,0,1.3339720980002312,,,,,,,,,,,,,,,,,,jk,001,2020_jul_23_1729,jul30online,2020.1.2,59.79834908402298,
64,same,8,0.41,0.14,green,1,0.14,-0.41,white,1,-0.14,-0.14,yellow,1,-0.14,0.27,red,1,0.27,0.14,blue,1,0.27,-0.27,magenta,1,-0.14,-0.27,orange,1,-0.14,0.41,black,1,0.05,0.05,0.15,-0.14,0.27,red,k,,,,,,,0,92,92,63,,,,,,,,,,,,,,,,,,,,l,0,1.5348144720046548,,,,,,,,,,,,,,,,,,jk,001,2020_jul_23_1729,jul30online,2020.1.2,59.79834908402298,
38,different,4,0.27,0.27,black,1,0.14,-0.27,green,1,-0.14,-0.27,magenta,1,-0.41,0.14,blue,1,0.14,0.41,orange,0,0.27,-0.41,yellow,0,-0.41,-0.14,white,0,-0.27,0.41,red,0,0.05,0.05,0.15,-0.14,-0.27,orange,l,,,,,,,0,93,93,37,,,,,,,,,,,,,,,,,,,,l,1,1.1524956150024082,,,,,,,,,,,,,,,,,,jk,001,2020_jul_23_1729,jul30online,2020.1.2,59.79834908402298,
28,same,4,0.41,0.41,magenta,1,0.27,-0.14,blue,1,-0.14,-0.14,red,1,-0.14,0.41,orange,1,0.14,0.14,black,0,0.41,-0.14,green,0,-0.27,-0.14,yellow,0,-0.14,0.27,white,0,0.05,0.05,0.15,0.27,-0.14,blue,k,,,,,,,0,94,94,27,,,,,,,,,,,,,,,,,,,,l,0,1.4520359540038044,,,,,,,,,,,,,,,,,,jk,001,2020_jul_23_1729,jul30online,2020.1.2,59.79834908402298,
27,same,4,0.27,0.27,yellow,1,0.27,-0.27,green,1,-0.27,-0.41,white,1,-0.14,0.41,black,1,0.14,0.41,blue,0,0.41,-0.14,red,0,-0.14,-0.14,orange,0,-0.27,0.41,magenta,0,0.05,0.05,0.15,0.27,-0.27,green,k,,,,,,,0,95,95,26,,,,,,,,,,,,,,,,,,,,l,0,1.3179625800039503,,,,,,,,,,,,,,,,,,jk,001,2020_jul_23_1729,jul30online,2020.1.2,59.79834908402298,
32,different,4,0.41,0.27,orange,1,0.41,-0.41,green,1,-0.14,-0.14,white,1,-0.41,0.41,red,1,0.27,0.41,black,0,0.27,-0.41,magenta,0,-0.27,-0.14,blue,0,-0.14,0.14,yellow,0,0.05,0.05,0.15,-0.14,-0.14,blue,l,,,,,,,0,96,96,31,,,,,,,,,,,,,,,,,,,,l,1,0.8505427410054835,,,,,,,,,,,,,,,,,,jk,001,2020_jul_23_1729,jul30online,2020.1.2,59.79834908402298,
48,different,4,0.14,0.27,red,1,0.27,-0.14,yellow,1,-0.27,-0.41,magenta,1,-0.41,0.14,green,1,0.14,0.14,orange,0,0.41,-0.14,white,0,-0.27,-0.27,black,0,-0.41,0.41,blue,0,0.05,0.05,0.15,0.14,0.27,blue,l,,,,,,,0,97,97,47,,,,,,,,,,,,,,,,,,,,l,1,1.0509350779975648,,,,,,,,,,,,,,,,,,jk,001,2020_jul_23_1729,jul30online,2020.1.2,59.79834908402298,
14,same,4,0.27,0.41,white,1,0.27,-0.41,black,1,-0.27,-0.27,yellow,1,-0.27,0.27,green,1,0.41,0.41,blue,0,0.14,-0.27,red,0,-0.14,-0.14,orange,0,-0.41,0.41,magenta,0,0.05,0.05,0.15,0.27,-0.41,black,k,,,,,,,0,98,98,13,,,,,,,,,,,,,,,,,,,,k,1,0.9836883930038312,,,,,,,,,,,,,,,,,,jk,001,2020_jul_23_1729,jul30online,2020.1.2,59.79834908402298,
92,different,8,0.27,0.27,yellow,1,0.14,-0.27,green,1,-0.41,-0.14,blue,1,-0.41,0.41,red,1,0.14,0.27,magenta,1,0.27,-0.14,white,1,-0.14,-0.14,orange,1,-0.27,0.27,black,1,0.05,0.05,0.15,-0.41,-0.14,magenta,l,,,,,,,0,99,99,91,,,,,,,,,,,,,,,,,,,,l,1,1.0005633439941448,,,,,,,,,,,,,,,,,,jk,001,2020_jul_23_1729,jul30online,2020.1.2,59.79834908402298,
93,different,8,0.14,0.41,blue,1,0.14,-0.27,red,1,-0.41,-0.14,magenta,1,-0.14,0.27,black,1,0.41,0.27,yellow,1,0.41,-0.14,orange,1,-0.27,-0.14,green,1,-0.14,0.41,white,1,0.05,0.05,0.15,0.41,-0.14,blue,l,,,,,,,0,100,100,92,,,,,,,,,,,,,,,,,,,,l,1,1.5488261350037646,,,,,,,,,,,,,,,,,,jk,001,2020_jul_23_1729,jul30online,2020.1.2,59.79834908402298,
108,different,8,0.27,0.41,magenta,1,0.27,-0.14,green,1,-0.14,-0.41,yellow,1,-0.41,0.41,red,1,0.41,0.27,blue,1,0.14,-0.27,white,1,-0.27,-0.27,orange,1,-0.41,0.14,black,1,0.05,0.05,0.15,0.27,0.41,black,l,,,,,,,0,101,101,107,,,,,,,,,,,,,,,,,,,,l,1,0.850565574997745,,,,,,,,,,,,,,,,,,jk,001,2020_jul_23_1729,jul30online,2020.1.2,59.79834908402298,
80,same,8,0.41,0.14,red,1,0.41,-0.14,blue,1,-0.41,-0.41,black,1,-0.41,0.14,green,1,0.14,0.41,orange,1,0.27,-0.41,white,1,-0.41,-0.14,magenta,1,-0.41,0.41,yellow,1,0.05,0.05,0.15,0.27,-0.41,white,k,,,,,,,0,102,102,79,,,,,,,,,,,,,,,,,,,,l,0,0.8346978049958125,,,,,,,,,,,,,,,,,,jk,001,2020_jul_23_1729,jul30online,2020.1.2,59.79834908402298,
118,different,8,0.14,0.14,red,1,0.27,-0.27,yellow,1,-0.27,-0.14,orange,1,-0.41,0.41,magenta,1,0.27,0.27,white,1,0.14,-0.41,green,1,-0.27,-0.41,blue,1,-0.41,0.14,black,1,0.05,0.05,0.15,-0.27,-0.41,black,l,,,,,,,0,103,103,117,,,,,,,,,,,,,,,,,,,,l,1,0.9176784049996058,,,,,,,,,,,,,,,,,,jk,001,2020_jul_23_1729,jul30online,2020.1.2,59.79834908402298,
53,different,4,0.14,0.27,white,1,0.41,-0.14,yellow,1,-0.41,-0.41,green,1,-0.14,0.41,black,1,0.41,0.27,red,0,0.14,-0.14,magenta,0,-0.27,-0.27,blue,0,-0.27,0.27,orange,0,0.05,0.05,0.15,0.14,0.27,blue,l,,,,,,,0,104,104,52,,,,,,,,,,,,,,,,,,,,l,1,0.7698462749976898,,,,,,,,,,,,,,,,,,jk,001,2020_jul_23_1729,jul30online,2020.1.2,59.79834908402298,
13,same,4,0.41,0.41,black,1,0.14,-0.14,red,1,-0.14,-0.14,orange,1,-0.14,0.14,white,1,0.14,0.14,green,0,0.27,-0.27,magenta,0,-0.27,-0.14,yellow,0,-0.14,0.41,blue,0,0.05,0.05,0.15,0.41,0.41,black,k,,,,,,,0,105,105,12,,,,,,,,,,,,,,,,,,,,k,1,1.2010482929981663,,,,,,,,,,,,,,,,,,jk,001,2020_jul_23_1729,jul30online,2020.1.2,59.79834908402298,
10,same,4,0.14,0.41,magenta,1,0.41,-0.14,black,1,-0.27,-0.27,orange,1,-0.41,0.27,green,1,0.27,0.41,blue,0,0.41,-0.41,yellow,0,-0.41,-0.41,white,0,-0.27,0.27,red,0,0.05,0.05,0.15,0.41,-0.14,black,k,,,,,,,0,106,106,9,,,,,,,,,,,,,,,,,,,,k,1,0.7503600380005082,,,,,,,,,,,,,,,,,,jk,001,2020_jul_23_1729,jul30online,2020.1.2,59.79834908402298,
15,same,4,0.41,0.14,magenta,1,0.41,-0.27,blue,1,-0.27,-0.14,yellow,1,-0.14,0.41,green,1,0.41,0.27,red,0,0.14,-0.14,orange,0,-0.14,-0.14,white,0,-0.27,0.27,black,0,0.05,0.05,0.15,-0.14,0.41,green,k,,,,,,,0,107,107,14,,,,,,,,,,,,,,,,,,,,k,1,0.7688605759976781,,,,,,,,,,,,,,,,,,jk,001,2020_jul_23_1729,jul30online,2020.1.2,59.79834908402298,
102,different,8,0.14,0.27,yellow,1,0.14,-0.41,green,1,-0.41,-0.27,red,1,-0.14,0.41,orange,1,0.41,0.41,magenta,1,0.27,-0.41,blue,1,-0.27,-0.41,white,1,-0.27,0.27,black,1,0.05,0.05,0.15,-0.27,0.27,yellow,l,,,,,,,0,108,108,101,,,,,,,,,,,,,,,,,,,,l,1,1.2343943960004253,,,,,,,,,,,,,,,,,,jk,001,2020_jul_23_1729,jul30online,2020.1.2,59.79834908402298,
84,same,8,0.27,0.14,magenta,1,0.14,-0.14,yellow,1,-0.14,-0.14,blue,1,-0.27,0.27,red,1,0.41,0.14,white,1,0.41,-0.27,orange,1,-0.14,-0.27,black,1,-0.41,0.14,green,1,0.05,0.05,0.15,-0.27,0.27,red,k,,,,,,,0,109,109,83,,,,,,,,,,,,,,,,,,,,l,0,0.7509403520016349,,,,,,,,,,,,,,,,,,jk,001,2020_jul_23_1729,jul30online,2020.1.2,59.79834908402298,
109,different,8,0.41,0.14,yellow,1,0.27,-0.27,white,1,-0.14,-0.27,magenta,1,-0.27,0.14,orange,1,0.41,0.41,green,1,0.27,-0.41,red,1,-0.27,-0.41,black,1,-0.27,0.41,blue,1,0.05,0.05,0.15,0.27,-0.27,green,l,,,,,,,0,110,110,108,,,,,,,,,,,,,,,,,,,,l,1,0.8678251780002029,,,,,,,,,,,,,,,,,,jk,001,2020_jul_23_1729,jul30online,2020.1.2,59.79834908402298,
112,different,8,0.27,0.41,magenta,1,0.14,-0.41,green,1,-0.14,-0.14,black,1,-0.27,0.27,white,1,0.41,0.41,red,1,0.14,-0.27,blue,1,-0.41,-0.14,orange,1,-0.14,0.14,yellow,1,0.05,0.05,0.15,0.41,0.41,blue,l,,,,,,,0,111,111,111,,,,,,,,,,,,,,,,,,,,l,1,1.1343135889983387,,,,,,,,,,,,,,,,,,jk,001,2020_jul_23_1729,jul30online,2020.1.2,59.79834908402298,
96,different,8,0.14,0.14,yellow,1,0.14,-0.41,black,1,-0.27,-0.27,orange,1,-0.14,0.41,blue,1,0.14,0.27,magenta,1,0.41,-0.27,white,1,-0.41,-0.41,red,1,-0.41,0.41,green,1,0.05,0.05,0.15,0.41,-0.27,magenta,l,,,,,,,0,112,112,95,,,,,,,,,,,,,,,,,,,,l,1,0.9657620850048261,,,,,,,,,,,,,,,,,,jk,001,2020_jul_23_1729,jul30online,2020.1.2,59.79834908402298,
106,different,8,0.41,0.41,black,1,0.14,-0.41,yellow,1,-0.41,-0.14,orange,1,-0.27,0.27,blue,1,0.14,0.41,red,1,0.41,-0.27,green,1,-0.14,-0.14,white,1,-0.14,0.14,magenta,1,0.05,0.05,0.15,-0.41,-0.14,green,l,,,,,,,0,113,113,105,,,,,,,,,,,,,,,,,,,,l,1,0.9510806799953571,,,,,,,,,,,,,,,,,,jk,001,2020_jul_23_1729,jul30online,2020.1.2,59.79834908402298,
35,different,4,0.27,0.41,orange,1,0.41,-0.14,white,1,-0.27,-0.27,green,1,-0.14,0.27,yellow,1,0.41,0.27,black,0,0.41,-0.41,magenta,0,-0.14,-0.14,blue,0,-0.27,0.14,red,0,0.05,0.05,0.15,-0.14,0.27,blue,l,,,,,,,0,114,114,34,,,,,,,,,,,,,,,,,,,,l,1,0.9065449379995698,,,,,,,,,,,,,,,,,,jk,001,2020_jul_23_1729,jul30online,2020.1.2,59.79834908402298,
7,same,4,0.41,0.41,yellow,1,0.41,-0.41,blue,1,-0.14,-0.41,black,1,-0.14,0.14,magenta,1,0.27,0.41,red,0,0.41,-0.27,green,0,-0.41,-0.14,white,0,-0.14,0.27,orange,0,0.05,0.05,0.15,-0.14,0.14,magenta,k,,,,,,,0,115,115,6,,,,,,,,,,,,,,,,,,,,k,1,1.0338150030001998,,,,,,,,,,,,,,,,,,jk,001,2020_jul_23_1729,jul30online,2020.1.2,59.79834908402298,
78,same,8,0.41,0.14,green,1,0.14,-0.27,magenta,1,-0.41,-0.27,blue,1,-0.41,0.41,black,1,0.41,0.27,white,1,0.41,-0.14,orange,1,-0.14,-0.41,yellow,1,-0.14,0.41,red,1,0.05,0.05,0.15,-0.41,-0.27,blue,k,,,,,,,0,116,116,77,,,,,,,,,,,,,,,,,,,,l,0,1.1673155120006413,,,,,,,,,,,,,,,,,,jk,001,2020_jul_23_1729,jul30online,2020.1.2,59.79834908402298,
75,same,8,0.41,0.27,blue,1,0.41,-0.41,black,1,-0.41,-0.41,red,1,-0.27,0.14,magenta,1,0.27,0.14,yellow,1,0.27,-0.27,white,1,-0.14,-0.27,green,1,-0.41,0.27,orange,1,0.05,0.05,0.15,-0.14,-0.27,green,k,,,,,,,0,117,117,74,,,,,,,,,,,,,,,,,,,,l,0,1.2000839979955344,,,,,,,,,,,,,,,,,,jk,001,2020_jul_23_1729,jul30online,2020.1.2,59.79834908402298,
107,different,8,0.27,0.41,green,1,0.27,-0.41,white,1,-0.41,-0.41,black,1,-0.14,0.41,blue,1,0.14,0.14,red,1,0.27,-0.27,yellow,1,-0.14,-0.41,magenta,1,-0.14,0.14,orange,1,0.05,0.05,0.15,-0.14,0.14,black,l,,,,,,,0,118,118,106,,,,,,,,,,,,,,,,,,,,l,1,0.9502141379998648,,,,,,,,,,,,,,,,,,jk,001,2020_jul_23_1729,jul30online,2020.1.2,59.79834908402298,
68,same,8,0.14,0.27,green,1,0.41,-0.27,magenta,1,-0.14,-0.27,white,1,-0.41,0.14,red,1,0.41,0.14,yellow,1,0.27,-0.14,blue,1,-0.14,-0.41,orange,1,-0.14,0.14,black,1,0.05,0.05,0.15,0.27,-0.14,blue,k,,,,,,,0,119,119,67,,,,,,,,,,,,,,,,,,,,l,0,0.8345705100000487,,,,,,,,,,,,,,,,,,jk,001,2020_jul_23_1729,jul30online,2020.1.2,59.79834908402298,
,,,,,,,,,,,,,,,,,,,,,,,,,,,,,,,,,,,,,,,,,space,1,0,,,,,,,,,0,0,0,39,,,,,,,,,,,,,,,,,,,429.2157424120014,None,436.1377497890062,None,437.16488033600035,None,437.16488033600035,437.3711918820045,437.16488033600035,437.3711918820045,space,1,0.4910423159963102,437.16488033600035,None,,,jk,001,2020_jul_23_1729,jul30online,2020.1.2,59.79834908402298,
,,,,,,,,,,,,,,,,,,,,,,,,,,,,,,,,,,,,,,,,,None,0,1,,,,,,,,,0,1,1,7,,,,,,,,,,,,,,,,,,,,,,,438.1581848430069,None,438.1581848430069,438.37118499000644,438.1581848430069,438.37118499000644,None,1,,438.1581848430069,None,,,jk,001,2020_jul_23_1729,jul30online,2020.1.2,59.79834908402298,
,,,,,,,,,,,,,,,,,,,,,,,,,,,,,,,,,,,,,,,,,None,0,1,,,,,,,,,0,2,2,3,,,,,,,,,,,,,,,,,,,,,,,439.1549435650013,None,439.1549435650013,439.35450112500257,439.1549435650013,439.35450112500257,None,1,,439.1549435650013,None,,,jk,001,2020_jul_23_1729,jul30online,2020.1.2,59.79834908402298,
,,,,,,,,,,,,,,,,,,,,,,,,,,,,,,,,,,,,,,,,,space,1,0,,,,,,,,,0,3,3,25,,,,,,,,,,,,,,,,,,,,,,,440.155530875003,None,440.155530875003,440.35471437200613,440.155530875003,440.35471437200613,space,1,0.38348223800130654,440.155530875003,None,,,jk,001,2020_jul_23_1729,jul30online,2020.1.2,59.79834908402298,
,,,,,,,,,,,,,,,,,,,,,,,,,,,,,,,,,,,,,,,,,space,1,0,,,,,,,,,0,4,4,11,,,,,,,,,,,,,,,,,,,,,,,441.1566986500038,None,441.1566986500038,441.37144517000706,441.1566986500038,441.37144517000706,space,1,0.4481514689978212,441.1566986500038,None,,,jk,001,2020_jul_23_1729,jul30online,2020.1.2,59.79834908402298,
,,,,,,,,,,,,,,,,,,,,,,,,,,,,,,,,,,,,,,,,,space,1,0,,,,,,,,,0,5,5,34,,,,,,,,,,,,,,,,,,,,,,,442.15540625200083,None,442.15540625200083,442.3550054130028,442.15540625200083,442.3550054130028,space,1,0.41712157300207764,442.15540625200083,None,,,jk,001,2020_jul_23_1729,jul30online,2020.1.2,59.79834908402298,
,,,,,,,,,,,,,,,,,,,,,,,,,,,,,,,,,,,,,,,,,space,1,0,,,,,,,,,0,6,6,27,,,,,,,,,,,,,,,,,,,,,,,443.1551035220036,None,443.1551035220036,443.3547860040053,443.1551035220036,443.3547860040053,space,1,0.4498567280024872,443.1551035220036,None,,,jk,001,2020_jul_23_1729,jul30online,2020.1.2,59.79834908402298,
,,,,,,,,,,,,,,,,,,,,,,,,,,,,,,,,,,,,,,,,,space,1,0,,,,,,,,,0,7,7,10,,,,,,,,,,,,,,,,,,,,,,,444.15679306200036,None,444.15679306200036,444.37148436700227,444.15679306200036,444.37148436700227,space,1,0.39804846499464475,444.15679306200036,None,,,jk,001,2020_jul_23_1729,jul30online,2020.1.2,59.79834908402298,
,,,,,,,,,,,,,,,,,,,,,,,,,,,,,,,,,,,,,,,,,space,1,0,,,,,,,,,0,8,8,44,,,,,,,,,,,,,,,,,,,,,,,445.15615098200215,None,445.15615098200215,445.37153172900435,445.15615098200215,445.37153172900435,space,1,0.3664523370025563,445.15615098200215,None,,,jk,001,2020_jul_23_1729,jul30online,2020.1.2,59.79834908402298,
,,,,,,,,,,,,,,,,,,,,,,,,,,,,,,,,,,,,,,,,,space,1,0,,,,,,,,,0,9,9,45,,,,,,,,,,,,,,,,,,,,,,,446.1563082280045,None,446.1563082280045,446.3550649880053,446.1563082280045,446.3550649880053,space,1,0.3476957009988837,446.1563082280045,None,,,jk,001,2020_jul_23_1729,jul30online,2020.1.2,59.79834908402298,
,,,,,,,,,,,,,,,,,,,,,,,,,,,,,,,,,,,,,,,,,None,0,1,,,,,,,,,0,10,10,0,,,,,,,,,,,,,,,,,,,,,,,447.15377683500265,None,447.15377683500265,447.3548292380001,447.15377683500265,447.3548292380001,None,1,,447.15377683500265,None,,,jk,001,2020_jul_23_1729,jul30online,2020.1.2,59.79834908402298,
,,,,,,,,,,,,,,,,,,,,,,,,,,,,,,,,,,,,,,,,,space,1,0,,,,,,,,,0,11,11,42,,,,,,,,,,,,,,,,,,,,,,,448.1554310790016,None,448.1554310790016,448.35481039300066,448.1554310790016,448.35481039300066,space,1,0.4172487899995758,448.1554310790016,None,,,jk,001,2020_jul_23_1729,jul30online,2020.1.2,59.79834908402298,
,,,,,,,,,,,,,,,,,,,,,,,,,,,,,,,,,,,,,,,,,None,0,1,,,,,,,,,0,12,12,6,,,,,,,,,,,,,,,,,,,,,,,449.1566037490047,None,449.1566037490047,449.371767896002,449.1566037490047,449.371767896002,None,1,,449.1566037490047,None,,,jk,001,2020_jul_23_1729,jul30online,2020.1.2,59.79834908402298,
,,,,,,,,,,,,,,,,,,,,,,,,,,,,,,,,,,,,,,,,,space,1,0,,,,,,,,,0,13,13,46,,,,,,,,,,,,,,,,,,,,,,,450.15667299800407,None,450.15667299800407,450.37181527800567,450.15667299800407,450.37181527800567,space,1,0.3325324960023863,450.15667299800407,None,,,jk,001,2020_jul_23_1729,jul30online,2020.1.2,59.79834908402298,
,,,,,,,,,,,,,,,,,,,,,,,,,,,,,,,,,,,,,,,,,space,1,0,,,,,,,,,0,14,14,48,,,,,,,,,,,,,,,,,,,,,,,451.15623342500476,None,451.15623342500476,451.3551739750037,451.15623342500476,451.3551739750037,space,1,0.6499290449937689,451.15623342500476,None,,,jk,001,2020_jul_23_1729,jul30online,2020.1.2,59.79834908402298,
,,,,,,,,,,,,,,,,,,,,,,,,,,,,,,,,,,,,,,,,,space,1,0,,,,,,,,,0,15,15,47,,,,,,,,,,,,,,,,,,,,,,,452.15577034600574,None,452.15577034600574,452.3553725100064,452.15577034600574,452.3553725100064,space,1,0.4674018799996702,452.15577034600574,None,,,jk,001,2020_jul_23_1729,jul30online,2020.1.2,59.79834908402298,
,,,,,,,,,,,,,,,,,,,,,,,,,,,,,,,,,,,,,,,,,space,1,0,,,,,,,,,0,16,16,17,,,,,,,,,,,,,,,,,,,,,,,453.1554041700001,None,453.1554041700001,453.3552858080002,453.1554041700001,453.3552858080002,space,1,0.43426988900318975,453.1554041700001,None,,,jk,001,2020_jul_23_1729,jul30online,2020.1.2,59.79834908402298,
,,,,,,,,,,,,,,,,,,,,,,,,,,,,,,,,,,,,,,,,,None,0,1,,,,,,,,,0,17,17,9,,,,,,,,,,,,,,,,,,,,,,,454.15659209100704,None,454.15659209100704,454.3552788730012,454.15659209100704,454.3552788730012,None,1,,454.15659209100704,None,,,jk,001,2020_jul_23_1729,jul30online,2020.1.2,59.79834908402298,
,,,,,,,,,,,,,,,,,,,,,,,,,,,,,,,,,,,,,,,,,space,1,0,,,,,,,,,0,18,18,12,,,,,,,,,,,,,,,,,,,,,,,455.1560622550023,None,455.1560622550023,455.3554054500055,455.1560622550023,455.3554054500055,space,1,0.38410053300322033,455.1560622550023,None,,,jk,001,2020_jul_23_1729,jul30online,2020.1.2,59.79834908402298,
,,,,,,,,,,,,,,,,,,,,,,,,,,,,,,,,,,,,,,,,,space,1,0,,,,,,,,,0,19,19,18,,,,,,,,,,,,,,,,,,,,,,,456.15661394600465,None,456.15661394600465,456.35534537100466,456.15661394600465,456.35534537100466,space,1,0.4000639969963231,456.15661394600465,None,,,jk,001,2020_jul_23_1729,jul30online,2020.1.2,59.79834908402298,
,,,,,,,,,,,,,,,,,,,,,,,,,,,,,,,,,,,,,,,,,space,1,0,,,,,,,,,0,20,20,40,,,,,,,,,,,,,,,,,,,,,,,457.1567955040009,None,457.1567955040009,457.35556036300113,457.1567955040009,457.35556036300113,space,1,0.4491517400019802,457.1567955040009,None,,,jk,001,2020_jul_23_1729,jul30online,2020.1.2,59.79834908402298,
,,,,,,,,,,,,,,,,,,,,,,,,,,,,,,,,,,,,,,,,,None,0,1,,,,,,,,,0,21,21,4,,,,,,,,,,,,,,,,,,,,,,,458.15795044000697,None,458.15795044000697,458.3722281030059,458.15795044000697,458.3722281030059,None,1,,458.15795044000697,None,,,jk,001,2020_jul_23_1729,jul30online,2020.1.2,59.79834908402298,
,,,,,,,,,,,,,,,,,,,,,,,,,,,,,,,,,,,,,,,,,None,0,1,,,,,,,,,0,22,22,2,,,,,,,,,,,,,,,,,,,,,,,459.156877706002,None,459.156877706002,459.3556476580052,459.156877706002,459.3556476580052,None,1,,459.156877706002,None,,,jk,001,2020_jul_23_1729,jul30online,2020.1.2,59.79834908402298,
,,,,,,,,,,,,,,,,,,,,,,,,,,,,,,,,,,,,,,,,,space,1,0,,,,,,,,,0,23,23,43,,,,,,,,,,,,,,,,,,,,,,,460.15670931000204,None,460.15670931000204,460.35558329000196,460.15670931000204,460.35558329000196,space,1,0.41628175799996825,460.15670931000204,None,,,jk,001,2020_jul_23_1729,jul30online,2020.1.2,59.79834908402298,
,,,,,,,,,,,,,,,,,,,,,,,,,,,,,,,,,,,,,,,,,space,1,0,,,,,,,,,0,24,24,16,,,,,,,,,,,,,,,,,,,,,,,461.1576885350005,None,461.1576885350005,461.37241589500627,461.1576885350005,461.37241589500627,space,1,0.5488124930052436,461.1576885350005,None,,,jk,001,2020_jul_23_1729,jul30online,2020.1.2,59.79834908402298,
,,,,,,,,,,,,,,,,,,,,,,,,,,,,,,,,,,,,,,,,,space,1,0,,,,,,,,,0,25,25,41,,,,,,,,,,,,,,,,,,,,,,,462.15644123300444,None,462.15644123300444,462.3553932460054,462.15644123300444,462.3553932460054,space,1,0.4501262920020963,462.15644123300444,None,,,jk,001,2020_jul_23_1729,jul30online,2020.1.2,59.79834908402298,
,,,,,,,,,,,,,,,,,,,,,,,,,,,,,,,,,,,,,,,,,space,1,0,,,,,,,,,0,26,26,21,,,,,,,,,,,,,,,,,,,,,,,463.1573885590042,None,463.1573885590042,463.3726110530042,463.1573885590042,463.3726110530042,space,1,0.3493608770004357,463.1573885590042,None,,,jk,001,2020_jul_23_1729,jul30online,2020.1.2,59.79834908402298,
,,,,,,,,,,,,,,,,,,,,,,,,,,,,,,,,,,,,,,,,,None,0,1,,,,,,,,,0,27,27,5,,,,,,,,,,,,,,,,,,,,,,,464.15699008900265,None,464.15699008900265,464.37254362300155,464.15699008900265,464.37254362300155,None,1,,464.15699008900265,None,,,jk,001,2020_jul_23_1729,jul30online,2020.1.2,59.79834908402298,
,,,,,,,,,,,,,,,,,,,,,,,,,,,,,,,,,,,,,,,,,space,1,0,,,,,,,,,0,28,28,14,,,,,,,,,,,,,,,,,,,,,,,465.1401919370037,None,465.1401919370037,465.3552800230027,465.1401919370037,465.3552800230027,space,1,0.36470794300112175,465.1401919370037,None,,,jk,001,2020_jul_23_1729,jul30online,2020.1.2,59.79834908402298,
,,,,,,,,,,,,,,,,,,,,,,,,,,,,,,,,,,,,,,,,,None,0,1,,,,,,,,,0,29,29,1,,,,,,,,,,,,,,,,,,,,,,,466.1403346710067,466.1403346710067,466.1403346710067,466.3392199450027,466.1403346710067,466.3392199450027,None,1,,466.1403346710067,466.1403346710067,,,jk,001,2020_jul_23_1729,jul30online,2020.1.2,59.79834908402298,
,,,,,,,,,,,,,,,,,,,,,,,,,,,,,,,,,,,,,,,,,space,1,0,,,,,,,,,0,30,30,32,,,,,,,,,,,,,,,,,,,,,,,467.1397748970048,467.1397748970048,467.1397748970048,467.33957167400513,467.1397748970048,467.33957167400513,space,1,0.367082748998655,467.1397748970048,467.1397748970048,,,jk,001,2020_jul_23_1729,jul30online,2020.1.2,59.79834908402298,
,,,,,,,,,,,,,,,,,,,,,,,,,,,,,,,,,,,,,,,,,space,1,0,,,,,,,,,0,31,31,38,,,,,,,,,,,,,,,,,,,,,,,468.1403679090072,468.1403679090072,468.1403679090072,468.339426671002,468.1403679090072,468.339426671002,space,1,0.6333346149986028,468.1403679090072,468.1403679090072,,,jk,001,2020_jul_23_1729,jul30online,2020.1.2,59.79834908402298,
,,,,,,,,,,,,,,,,,,,,,,,,,,,,,,,,,,,,,,,,,space,1,0,,,,,,,,,0,32,32,13,,,,,,,,,,,,,,,,,,,,,,,469.1396256480002,None,469.1396256480002,469.3394714140013,469.1396256480002,469.3394714140013,space,1,0.6001060089984094,469.1396256480002,None,,,jk,001,2020_jul_23_1729,jul30online,2020.1.2,59.79834908402298,
,,,,,,,,,,,,,,,,,,,,,,,,,,,,,,,,,,,,,,,,,space,1,0,,,,,,,,,0,33,33,31,,,,,,,,,,,,,,,,,,,,,,,470.1395005010054,None,470.1395005010054,470.33961176100274,470.1395005010054,470.33961176100274,space,1,0.6678323390005971,470.1395005010054,None,,,jk,001,2020_jul_23_1729,jul30online,2020.1.2,59.79834908402298,
,,,,,,,,,,,,,,,,,,,,,,,,,,,,,,,,,,,,,,,,,space,1,0,,,,,,,,,0,34,34,26,,,,,,,,,,,,,,,,,,,,,,,471.1397940550014,None,471.1397940550014,471.3395542730068,471.1397940550014,471.3395542730068,space,1,0.5168245869936072,471.1397940550014,None,,,jk,001,2020_jul_23_1729,jul30online,2020.1.2,59.79834908402298,
,,,,,,,,,,,,,,,,,,,,,,,,,,,,,,,,,,,,,,,,,space,1,0,,,,,,,,,0,35,35,29,,,,,,,,,,,,,,,,,,,,,,,472.13980922200426,None,472.13980922200426,472.3397751480006,472.13980922200426,472.3397751480006,space,1,0.5339304560038727,472.13980922200426,None,,,jk,001,2020_jul_23_1729,jul30online,2020.1.2,59.79834908402298,
,,,,,,,,,,,,,,,,,,,,,,,,,,,,,,,,,,,,,,,,,space,1,0,,,,,,,,,0,36,36,20,,,,,,,,,,,,,,,,,,,,,,,473.139747609006,None,473.139747609006,473.33971271200426,473.139747609006,473.33971271200426,space,1,0.5173423240048578,473.139747609006,None,,,jk,001,2020_jul_23_1729,jul30online,2020.1.2,59.79834908402298,
,,,,,,,,,,,,,,,,,,,,,,,,,,,,,,,,,,,,,,,,,space,1,0,,,,,,,,,0,37,37,49,,,,,,,,,,,,,,,,,,,,,,,474.1403237900013,None,474.1403237900013,474.3398470350003,474.1403237900013,474.3398470350003,space,1,0.43294192800385645,474.1403237900013,None,,,jk,001,2020_jul_23_1729,jul30online,2020.1.2,59.79834908402298,
,,,,,,,,,,,,,,,,,,,,,,,,,,,,,,,,,,,,,,,,,space,1,0,,,,,,,,,0,38,38,37,,,,,,,,,,,,,,,,,,,,,,,475.1399830570008,None,475.1399830570008,475.3397472630022,475.1399830570008,475.3397472630022,space,1,0.3840451869982644,475.1399830570008,None,,,jk,001,2020_jul_23_1729,jul30online,2020.1.2,59.79834908402298,
,,,,,,,,,,,,,,,,,,,,,,,,,,,,,,,,,,,,,,,,,space,1,0,,,,,,,,,0,39,39,19,,,,,,,,,,,,,,,,,,,,,,,476.13984470600553,None,476.13984470600553,476.3400310560028,476.13984470600553,476.3400310560028,space,1,0.35114316899853293,476.13984470600553,None,,,jk,001,2020_jul_23_1729,jul30online,2020.1.2,59.79834908402298,
,,,,,,,,,,,,,,,,,,,,,,,,,,,,,,,,,,,,,,,,,None,0,1,,,,,,,,,0,40,40,8,,,,,,,,,,,,,,,,,,,,,,,477.1400995370059,None,477.1400995370059,477.3398596210027,477.1400995370059,477.3398596210027,None,1,,477.1400995370059,None,,,jk,001,2020_jul_23_1729,jul30online,2020.1.2,59.79834908402298,
,,,,,,,,,,,,,,,,,,,,,,,,,,,,,,,,,,,,,,,,,space,1,0,,,,,,,,,0,41,41,30,,,,,,,,,,,,,,,,,,,,,,,478.14049669400265,None,478.14049669400265,478.3399127150042,478.14049669400265,478.3399127150042,space,1,0.40033361799578415,478.14049669400265,None,,,jk,001,2020_jul_23_1729,jul30online,2020.1.2,59.79834908402298,
,,,,,,,,,,,,,,,,,,,,,,,,,,,,,,,,,,,,,,,,,space,1,0,,,,,,,,,0,42,42,28,,,,,,,,,,,,,,,,,,,,,,,479.140065243002,None,479.140065243002,479.3400105950059,479.140065243002,479.3400105950059,space,1,0.6677194090007106,479.140065243002,None,,,jk,001,2020_jul_23_1729,jul30online,2020.1.2,59.79834908402298,
,,,,,,,,,,,,,,,,,,,,,,,,,,,,,,,,,,,,,,,,,space,1,0,,,,,,,,,0,43,43,23,,,,,,,,,,,,,,,,,,,,,,,480.1392841440029,None,480.1392841440029,480.34012291399995,480.1392841440029,480.34012291399995,space,1,0.70187430200167,480.1392841440029,None,,,jk,001,2020_jul_23_1729,jul30online,2020.1.2,59.79834908402298,
,,,,,,,,,,,,,,,,,,,,,,,,,,,,,,,,,,,,,,,,,space,1,0,,,,,,,,,0,44,44,33,,,,,,,,,,,,,,,,,,,,,,,481.14050708400464,None,481.14050708400464,481.3402918350039,481.14050708400464,481.3402918350039,space,1,0.567302084993571,481.14050708400464,None,,,jk,001,2020_jul_23_1729,jul30online,2020.1.2,59.79834908402298,
,,,,,,,,,,,,,,,,,,,,,,,,,,,,,,,,,,,,,,,,,space,1,0,,,,,,,,,0,45,45,36,,,,,,,,,,,,,,,,,,,,,,,482.14269928900467,None,482.14269928900467,482.356839883003,482.14269928900467,482.356839883003,space,1,0.5144893350006896,482.14269928900467,None,,,jk,001,2020_jul_23_1729,jul30online,2020.1.2,59.79834908402298,
,,,,,,,,,,,,,,,,,,,,,,,,,,,,,,,,,,,,,,,,,space,1,0,,,,,,,,,0,46,46,35,,,,,,,,,,,,,,,,,,,,,,,483.14105353000195,None,483.14105353000195,483.3404222870013,483.14105353000195,483.3404222870013,space,1,0.417303718997573,483.14105353000195,None,,,jk,001,2020_jul_23_1729,jul30online,2020.1.2,59.79834908402298,
,,,,,,,,,,,,,,,,,,,,,,,,,,,,,,,,,,,,,,,,,space,1,0,,,,,,,,,0,47,47,22,,,,,,,,,,,,,,,,,,,,,,,484.14061461500387,None,484.14061461500387,484.3402036050029,484.14061461500387,484.3402036050029,space,1,0.3840898830021615,484.14061461500387,None,,,jk,001,2020_jul_23_1729,jul30online,2020.1.2,59.79834908402298,
,,,,,,,,,,,,,,,,,,,,,,,,,,,,,,,,,,,,,,,,,space,1,0,,,,,,,,,0,48,48,15,,,,,,,,,,,,,,,,,,,,,,,485.14037660800386,None,485.14037660800386,485.34036061600636,485.14037660800386,485.34036061600636,space,1,0.3843279079956119,485.14037660800386,None,,,jk,001,2020_jul_23_1729,jul30online,2020.1.2,59.79834908402298,
,,,,,,,,,,,,,,,,,,,,,,,,,,,,,,,,,,,,,,,,,space,1,0,,,,,,,,,0,49,49,24,,,,,,,,,,,,,,,,,,,,,,,486.14048912,None,486.14048912,486.3403944130041,486.14048912,486.3403944130041,space,1,0.5154246550009702,486.14048912,None,,,jk,001,2020_jul_23_1729,jul30online,2020.1.2,59.79834908402298,
,,,,,,,,,,,,,,,,,,,,,,,,,,,,,,,,,,,,,,,,,space,1,0,,,,,,,,,,,,,0,0,0,20,,,,,,,,,,,,,,,,,490.52397547400324,None,491.55199728900334,None,491.55199728900334,491.75735004900343,491.55199728900334,491.75735004900343,space,1,0.6568951349981944,491.55199728900334,None,487.18443552900135,None,jk,001,2020_jul_23_1729,jul30online,2020.1.2,59.79834908402298,
,,,,,,,,,,,,,,,,,,,,,,,,,,,,,,,,,,,,,,,,,space,1,0,,,,,,,,,,,,,0,1,1,38,,,,,,,,,,,,,,,,,,,492.54386398500355,None,492.54386398500355,492.75744047700573,492.54386398500355,492.75744047700573,space,1,0.6140696389993536,492.54386398500355,None,,,jk,001,2020_jul_23_1729,jul30online,2020.1.2,59.79834908402298,
,,,,,,,,,,,,,,,,,,,,,,,,,,,,,,,,,,,,,,,,,space,1,0,,,,,,,,,,,,,0,2,2,29,,,,,,,,,,,,,,,,,,,493.54211559000396,None,493.54211559000396,493.7411868410054,493.54211559000396,493.7411868410054,space,1,0.4490698839945253,493.54211559000396,None,,,jk,001,2020_jul_23_1729,jul30online,2020.1.2,59.79834908402298,
,,,,,,,,,,,,,,,,,,,,,,,,,,,,,,,,,,,,,,,,,space,1,0,,,,,,,,,,,,,0,3,3,14,,,,,,,,,,,,,,,,,,,494.5408712110002,None,494.5408712110002,494.7408960830071,494.5408712110002,494.7408960830071,space,1,0.3836672629986424,494.5408712110002,None,,,jk,001,2020_jul_23_1729,jul30online,2020.1.2,59.79834908402298,
,,,,,,,,,,,,,,,,,,,,,,,,,,,,,,,,,,,,,,,,,space,1,0,,,,,,,,,,,,,0,4,4,48,,,,,,,,,,,,,,,,,,,495.541264821004,None,495.541264821004,495.74113578700053,495.541264821004,495.74113578700053,space,1,0.3673033690065495,495.541264821004,None,,,jk,001,2020_jul_23_1729,jul30online,2020.1.2,59.79834908402298,
,,,,,,,,,,,,,,,,,,,,,,,,,,,,,,,,,,,,,,,,,space,1,0,,,,,,,,,,,,,0,5,5,28,,,,,,,,,,,,,,,,,,,496.54183203300636,None,496.54183203300636,496.74112442500336,496.54183203300636,496.74112442500336,space,1,0.31682538199675037,496.54183203300636,None,,,jk,001,2020_jul_23_1729,jul30online,2020.1.2,59.79834908402298,
,,,,,,,,,,,,,,,,,,,,,,,,,,,,,,,,,,,,,,,,,space,1,0,,,,,,,,,,,,,0,6,6,33,,,,,,,,,,,,,,,,,,,497.54111968200596,None,497.54111968200596,497.7411121990008,497.54111968200596,497.7411121990008,space,1,0.3321421879954869,497.54111968200596,None,,,jk,001,2020_jul_23_1729,jul30online,2020.1.2,59.79834908402298,
,,,,,,,,,,,,,,,,,,,,,,,,,,,,,,,,,,,,,,,,,space,1,0,,,,,,,,,,,,,0,7,7,19,,,,,,,,,,,,,,,,,,,498.54003142000147,None,498.54003142000147,498.74110349100374,498.54003142000147,498.74110349100374,space,1,0.36884420400019735,498.54003142000147,None,,,jk,001,2020_jul_23_1729,jul30online,2020.1.2,59.79834908402298,
,,,,,,,,,,,,,,,,,,,,,,,,,,,,,,,,,,,,,,,,,None,0,1,,,,,,,,,,,,,0,8,8,7,,,,,,,,,,,,,,,,,,,499.54114107800706,None,499.54114107800706,499.74118025100324,499.54114107800706,499.74118025100324,None,1,,499.54114107800706,None,,,jk,001,2020_jul_23_1729,jul30online,2020.1.2,59.79834908402298,
,,,,,,,,,,,,,,,,,,,,,,,,,,,,,,,,,,,,,,,,,None,0,1,,,,,,,,,,,,,0,9,9,2,,,,,,,,,,,,,,,,,,,500.54142626900284,None,500.54142626900284,500.74124267500156,500.54142626900284,500.74124267500156,None,1,,500.54142626900284,None,,,jk,001,2020_jul_23_1729,jul30online,2020.1.2,59.79834908402298,
,,,,,,,,,,,,,,,,,,,,,,,,,,,,,,,,,,,,,,,,,None,0,1,,,,,,,,,,,,,0,10,10,6,,,,,,,,,,,,,,,,,,,501.54155547500704,None,501.54155547500704,501.74128902100347,501.54155547500704,501.74128902100347,None,1,,501.54155547500704,None,,,jk,001,2020_jul_23_1729,jul30online,2020.1.2,59.79834908402298,
,,,,,,,,,,,,,,,,,,,,,,,,,,,,,,,,,,,,,,,,,space,1,0,,,,,,,,,,,,,0,11,11,43,,,,,,,,,,,,,,,,,,,502.54146879100153,None,502.54146879100153,502.741405064,502.54146879100153,502.741405064,space,1,0.38418400999944424,502.54146879100153,None,,,jk,001,2020_jul_23_1729,jul30online,2020.1.2,59.79834908402298,
,,,,,,,,,,,,,,,,,,,,,,,,,,,,,,,,,,,,,,,,,space,1,0,,,,,,,,,,,,,0,12,12,16,,,,,,,,,,,,,,,,,,,503.54030553100165,None,503.54030553100165,503.741354677004,503.54030553100165,503.741354677004,space,1,0.3849485340033425,503.54030553100165,None,,,jk,001,2020_jul_23_1729,jul30online,2020.1.2,59.79834908402298,
,,,,,,,,,,,,,,,,,,,,,,,,,,,,,,,,,,,,,,,,,space,1,0,,,,,,,,,,,,,0,13,13,32,,,,,,,,,,,,,,,,,,,504.5419775240007,None,504.5419775240007,504.7415827530058,504.5419775240007,504.7415827530058,space,1,0.36715153199475026,504.5419775240007,None,,,jk,001,2020_jul_23_1729,jul30online,2020.1.2,59.79834908402298,
,,,,,,,,,,,,,,,,,,,,,,,,,,,,,,,,,,,,,,,,,space,1,0,,,,,,,,,,,,,0,14,14,36,,,,,,,,,,,,,,,,,,,505.54253296700335,None,505.54253296700335,505.7414986940057,505.54253296700335,505.7414986940057,space,1,0.3833832920063287,505.54253296700335,None,,,jk,001,2020_jul_23_1729,jul30online,2020.1.2,59.79834908402298,
,,,,,,,,,,,,,,,,,,,,,,,,,,,,,,,,,,,,,,,,,space,1,0,,,,,,,,,,,,,0,15,15,46,,,,,,,,,,,,,,,,,,,506.5415394560041,None,506.5415394560041,506.74145977000444,506.5415394560041,506.74145977000444,space,1,0.48358877199643757,506.5415394560041,None,,,jk,001,2020_jul_23_1729,jul30online,2020.1.2,59.79834908402298,
,,,,,,,,,,,,,,,,,,,,,,,,,,,,,,,,,,,,,,,,,space,1,0,,,,,,,,,,,,,0,16,16,40,,,,,,,,,,,,,,,,,,,507.54219870200177,None,507.54219870200177,507.7414872510053,507.54219870200177,507.7414872510053,space,1,0.5168406119992142,507.54219870200177,None,,,jk,001,2020_jul_23_1729,jul30online,2020.1.2,59.79834908402298,
,,,,,,,,,,,,,,,,,,,,,,,,,,,,,,,,,,,,,,,,,None,0,1,,,,,,,,,,,,,0,17,17,4,,,,,,,,,,,,,,,,,,,508.54227936300595,None,508.54227936300595,508.74154596000153,508.54227936300595,508.74154596000153,None,1,,508.54227936300595,None,,,jk,001,2020_jul_23_1729,jul30online,2020.1.2,59.79834908402298,
,,,,,,,,,,,,,,,,,,,,,,,,,,,,,,,,,,,,,,,,,None,0,1,,,,,,,,,,,,,0,18,18,0,,,,,,,,,,,,,,,,,,,509.5418675940018,None,509.5418675940018,509.741512643006,509.5418675940018,509.741512643006,None,1,,509.5418675940018,None,,,jk,001,2020_jul_23_1729,jul30online,2020.1.2,59.79834908402298,
,,,,,,,,,,,,,,,,,,,,,,,,,,,,,,,,,,,,,,,,,None,0,1,,,,,,,,,,,,,0,19,19,9,,,,,,,,,,,,,,,,,,,510.54189305800537,None,510.54189305800537,510.74168740800087,510.54189305800537,510.74168740800087,None,1,,510.54189305800537,None,,,jk,001,2020_jul_23_1729,jul30online,2020.1.2,59.79834908402298,
,,,,,,,,,,,,,,,,,,,,,,,,,,,,,,,,,,,,,,,,,space,1,0,,,,,,,,,,,,,0,20,20,30,,,,,,,,,,,,,,,,,,,511.5419541450028,None,511.5419541450028,511.7416923250057,511.5419541450028,511.7416923250057,space,1,0.4010627219977323,511.5419541450028,None,,,jk,001,2020_jul_23_1729,jul30online,2020.1.2,59.79834908402298,
,,,,,,,,,,,,,,,,,,,,,,,,,,,,,,,,,,,,,,,,,space,1,0,,,,,,,,,,,,,0,21,21,21,,,,,,,,,,,,,,,,,,,512.5420872460018,None,512.5420872460018,512.7421060790002,512.5420872460018,512.7421060790002,space,1,0.5000999790063361,512.5420872460018,None,,,jk,001,2020_jul_23_1729,jul30online,2020.1.2,59.79834908402298,
,,,,,,,,,,,,,,,,,,,,,,,,,,,,,,,,,,,,,,,,,None,0,1,,,,,,,,,,,,,0,22,22,8,,,,,,,,,,,,,,,,,,,513.5421311530008,None,513.5421311530008,513.7418109090067,513.5421311530008,513.7418109090067,space,0,0.4510094589932123,513.5421311530008,None,,,jk,001,2020_jul_23_1729,jul30online,2020.1.2,59.79834908402298,
,,,,,,,,,,,,,,,,,,,,,,,,,,,,,,,,,,,,,,,,,space,1,0,,,,,,,,,,,,,0,23,23,22,,,,,,,,,,,,,,,,,,,514.5424557160004,None,514.5424557160004,514.7420188100004,514.5424557160004,514.7420188100004,space,1,0.6166393180028535,514.5424557160004,None,,,jk,001,2020_jul_23_1729,jul30online,2020.1.2,59.79834908402298,
,,,,,,,,,,,,,,,,,,,,,,,,,,,,,,,,,,,,,,,,,space,1,0,,,,,,,,,,,,,0,24,24,45,,,,,,,,,,,,,,,,,,,515.5429650880033,None,515.5429650880033,515.7420147150042,515.5429650880033,515.7420147150042,space,1,0.6329667389945826,515.5429650880033,None,,,jk,001,2020_jul_23_1729,jul30online,2020.1.2,59.79834908402298,
,,,,,,,,,,,,,,,,,,,,,,,,,,,,,,,,,,,,,,,,,space,1,0,,,,,,,,,,,,,0,25,25,13,,,,,,,,,,,,,,,,,,,516.5428471250052,None,516.5428471250052,516.7420209540069,516.5428471250052,516.7420209540069,space,1,0.5169479079995654,516.5428471250052,None,,,jk,001,2020_jul_23_1729,jul30online,2020.1.2,59.79834908402298,
,,,,,,,,,,,,,,,,,,,,,,,,,,,,,,,,,,,,,,,,,space,1,0,,,,,,,,,,,,,0,26,26,18,,,,,,,,,,,,,,,,,,,517.5425238900061,None,517.5425238900061,517.7420756810025,517.5425238900061,517.7420756810025,space,1,0.6342847150008311,517.5425238900061,None,,,jk,001,2020_jul_23_1729,jul30online,2020.1.2,59.79834908402298,
,,,,,,,,,,,,,,,,,,,,,,,,,,,,,,,,,,,,,,,,,space,1,0,,,,,,,,,,,,,0,27,27,24,,,,,,,,,,,,,,,,,,,518.5430206260062,None,518.5430206260062,518.742150115002,518.5430206260062,518.742150115002,space,1,0.9664118630025769,518.5430206260062,None,,,jk,001,2020_jul_23_1729,jul30online,2020.1.2,59.79834908402298,
,,,,,,,,,,,,,,,,,,,,,,,,,,,,,,,,,,,,,,,,,space,1,0,,,,,,,,,,,,,0,28,28,12,,,,,,,,,,,,,,,,,,,519.5426514680003,None,519.5426514680003,519.7421722870058,519.5426514680003,519.7421722870058,None,0,,519.5426514680003,None,,,jk,001,2020_jul_23_1729,jul30online,2020.1.2,59.79834908402298,
,,,,,,,,,,,,,,,,,,,,,,,,,,,,,,,,,,,,,,,,,space,1,0,,,,,,,,,,,,,0,29,29,37,,,,,,,,,,,,,,,,,,,520.5424747680008,None,520.5424747680008,520.7425130750053,520.5424747680008,520.7425130750053,space,1,0.21756220599490916,520.5424747680008,None,,,jk,001,2020_jul_23_1729,jul30online,2020.1.2,59.79834908402298,
,,,,,,,,,,,,,,,,,,,,,,,,,,,,,,,,,,,,,,,,,space,1,0,,,,,,,,,,,,,0,30,30,25,,,,,,,,,,,,,,,,,,,521.526968639002,None,521.526968639002,521.7411393260045,521.526968639002,521.7411393260045,space,1,0.5478246380007477,521.526968639002,None,,,jk,001,2020_jul_23_1729,jul30online,2020.1.2,59.79834908402298,
,,,,,,,,,,,,,,,,,,,,,,,,,,,,,,,,,,,,,,,,,space,1,0,,,,,,,,,,,,,0,31,31,17,,,,,,,,,,,,,,,,,,,522.5425668760072,None,522.5425668760072,522.7423725970002,522.5425668760072,522.7423725970002,space,1,0.7007370220017037,522.5425668760072,None,,,jk,001,2020_jul_23_1729,jul30online,2020.1.2,59.79834908402298,
,,,,,,,,,,,,,,,,,,,,,,,,,,,,,,,,,,,,,,,,,space,1,0,,,,,,,,,,,,,0,32,32,42,,,,,,,,,,,,,,,,,,,523.526582878003,None,523.526582878003,523.7256017690015,523.526582878003,523.7256017690015,space,1,0.8503038560011191,523.526582878003,None,,,jk,001,2020_jul_23_1729,jul30online,2020.1.2,59.79834908402298,
,,,,,,,,,,,,,,,,,,,,,,,,,,,,,,,,,,,,,,,,,space,1,0,,,,,,,,,,,,,0,33,33,11,,,,,,,,,,,,,,,,,,,524.5265880030056,524.5265880030056,524.5265880030056,524.7251525730026,524.5265880030056,524.7251525730026,None,0,,524.5265880030056,524.5265880030056,,,jk,001,2020_jul_23_1729,jul30online,2020.1.2,59.79834908402298,
,,,,,,,,,,,,,,,,,,,,,,,,,,,,,,,,,,,,,,,,,space,1,0,,,,,,,,,,,,,0,34,34,41,,,,,,,,,,,,,,,,,,,525.5268508970039,None,525.5268508970039,525.7261489760058,525.5268508970039,525.7261489760058,space,1,0.23371990200394066,525.5268508970039,None,,,jk,001,2020_jul_23_1729,jul30online,2020.1.2,59.79834908402298,
,,,,,,,,,,,,,,,,,,,,,,,,,,,,,,,,,,,,,,,,,space,1,0,,,,,,,,,,,,,0,35,35,26,,,,,,,,,,,,,,,,,,,526.5289392030027,None,526.5289392030027,526.7425992660064,526.5289392030027,526.7425992660064,space,1,0.5142147789956653,526.5289392030027,None,,,jk,001,2020_jul_23_1729,jul30online,2020.1.2,59.79834908402298,
,,,,,,,,,,,,,,,,,,,,,,,,,,,,,,,,,,,,,,,,,space,1,0,,,,,,,,,,,,,0,36,36,39,,,,,,,,,,,,,,,,,,,527.5271864130045,None,527.5271864130045,527.7263525890012,527.5271864130045,527.7263525890012,space,1,0.7166183439985616,527.5271864130045,None,,,jk,001,2020_jul_23_1729,jul30online,2020.1.2,59.79834908402298,
,,,,,,,,,,,,,,,,,,,,,,,,,,,,,,,,,,,,,,,,,space,1,0,,,,,,,,,,,,,0,37,37,15,,,,,,,,,,,,,,,,,,,528.5273208490034,None,528.5273208490034,528.7261060100063,528.5273208490034,528.7261060100063,space,1,0.865919326999574,528.5273208490034,None,,,jk,001,2020_jul_23_1729,jul30online,2020.1.2,59.79834908402298,
,,,,,,,,,,,,,,,,,,,,,,,,,,,,,,,,,,,,,,,,,space,1,0,,,,,,,,,,,,,0,38,38,49,,,,,,,,,,,,,,,,,,,529.5272268860062,None,529.5272268860062,529.7263315230011,529.5272268860062,529.7263315230011,None,0,,529.5272268860062,None,,,jk,001,2020_jul_23_1729,jul30online,2020.1.2,59.79834908402298,
,,,,,,,,,,,,,,,,,,,,,,,,,,,,,,,,,,,,,,,,,None,0,1,,,,,,,,,,,,,0,39,39,1,,,,,,,,,,,,,,,,,,,530.5288714250055,None,530.5288714250055,530.742870809001,530.5288714250055,530.742870809001,None,1,,530.5288714250055,None,,,jk,001,2020_jul_23_1729,jul30online,2020.1.2,59.79834908402298,
,,,,,,,,,,,,,,,,,,,,,,,,,,,,,,,,,,,,,,,,,space,1,0,,,,,,,,,,,,,0,40,40,31,,,,,,,,,,,,,,,,,,,531.5266479260026,None,531.5266479260026,531.742150777005,531.5266479260026,531.742150777005,space,1,0.6318938349941163,531.5266479260026,None,,,jk,001,2020_jul_23_1729,jul30online,2020.1.2,59.79834908402298,
,,,,,,,,,,,,,,,,,,,,,,,,,,,,,,,,,,,,,,,,,space,1,0,,,,,,,,,,,,,0,41,41,47,,,,,,,,,,,,,,,,,,,532.5263257100014,None,532.5263257100014,532.7260167300046,532.5263257100014,532.7260167300046,space,1,0.7679405179951573,532.5263257100014,None,,,jk,001,2020_jul_23_1729,jul30online,2020.1.2,59.79834908402298,
,,,,,,,,,,,,,,,,,,,,,,,,,,,,,,,,,,,,,,,,,space,1,0,,,,,,,,,,,,,0,42,42,27,,,,,,,,,,,,,,,,,,,533.5268304800047,None,533.5268304800047,533.7263839730003,533.5268304800047,533.7263839730003,space,1,0.8505839939971338,533.5268304800047,None,,,jk,001,2020_jul_23_1729,jul30online,2020.1.2,59.79834908402298,
,,,,,,,,,,,,,,,,,,,,,,,,,,,,,,,,,,,,,,,,,None,0,1,,,,,,,,,,,,,0,43,43,5,,,,,,,,,,,,,,,,,,,534.5267771800063,None,534.5267771800063,534.7261915140043,534.5267771800063,534.7261915140043,None,1,,534.5267771800063,None,,,jk,001,2020_jul_23_1729,jul30online,2020.1.2,59.79834908402298,
,,,,,,,,,,,,,,,,,,,,,,,,,,,,,,,,,,,,,,,,,space,1,0,,,,,,,,,,,,,0,44,44,10,,,,,,,,,,,,,,,,,,,535.5290602420064,None,535.5290602420064,535.7433021310062,535.5290602420064,535.7433021310062,space,1,0.5485607279988471,535.5290602420064,None,,,jk,001,2020_jul_23_1729,jul30online,2020.1.2,59.79834908402298,
,,,,,,,,,,,,,,,,,,,,,,,,,,,,,,,,,,,,,,,,,space,1,0,,,,,,,,,,,,,0,45,45,44,,,,,,,,,,,,,,,,,,,536.5268252740061,None,536.5268252740061,536.7261795600061,536.5268252740061,536.7261795600061,space,1,0.6001481380008045,536.5268252740061,None,,,jk,001,2020_jul_23_1729,jul30online,2020.1.2,59.79834908402298,
,,,,,,,,,,,,,,,,,,,,,,,,,,,,,,,,,,,,,,,,,space,1,0,,,,,,,,,,,,,0,46,46,23,,,,,,,,,,,,,,,,,,,537.5267200540038,None,537.5267200540038,537.7266153370001,537.5267200540038,537.7266153370001,space,1,0.6512500400058343,537.5267200540038,None,,,jk,001,2020_jul_23_1729,jul30online,2020.1.2,59.79834908402298,
,,,,,,,,,,,,,,,,,,,,,,,,,,,,,,,,,,,,,,,,,space,1,0,,,,,,,,,,,,,0,47,47,34,,,,,,,,,,,,,,,,,,,538.526952707005,None,538.526952707005,538.7267439320058,538.526952707005,538.7267439320058,space,1,0.6680033529992215,538.526952707005,None,,,jk,001,2020_jul_23_1729,jul30online,2020.1.2,59.79834908402298,
,,,,,,,,,,,,,,,,,,,,,,,,,,,,,,,,,,,,,,,,,space,1,0,,,,,,,,,,,,,0,48,48,35,,,,,,,,,,,,,,,,,,,539.5273798260023,None,539.5273798260023,539.7268678270048,539.5273798260023,539.7268678270048,space,1,0.8507104029995389,539.5273798260023,None,,,jk,001,2020_jul_23_1729,jul30online,2020.1.2,59.79834908402298,
,,,,,,,,,,,,,,,,,,,,,,,,,,,,,,,,,,,,,,,,,None,0,1,,,,,,,,,,,,,0,49,49,3,,,,,,,,,,,,,,,,,,,540.5280683360033,None,540.5280683360033,540.7434082410036,540.5280683360033,540.7434082410036,None,1,,540.5280683360033,None,,,jk,001,2020_jul_23_1729,jul30online,2020.1.2,59.79834908402298,
,,,,,,,,,,,,,,,,,,,,,,,,,,,,,,,,,,,,,,,,,space,1,0,,,,,,,,,,,,,,,,,0,0,0,28,,,,,,,,,,,,,544.3604300360021,None,545.3861940660063,None,545.3861940660063,545.5937518130013,545.3861940660063,545.5937518130013,space,1,0.3755808909991174,545.3861940660063,None,541.5770112580067,None,jk,001,2020_jul_23_1729,jul30online,2020.1.2,59.79834908402298,
,,,,,,,,,,,,,,,,,,,,,,,,,,,,,,,,,,,,,,,,,None,0,1,,,,,,,,,,,,,,,,,0,1,1,3,,,,,,,,,,,,,,,546.3797638970063,None,546.3797638970063,546.593903978006,546.3797638970063,546.593903978006,None,1,,546.3797638970063,None,,,jk,001,2020_jul_23_1729,jul30online,2020.1.2,59.79834908402298,
,,,,,,,,,,,,,,,,,,,,,,,,,,,,,,,,,,,,,,,,,space,1,0,,,,,,,,,,,,,,,,,0,2,2,12,,,,,,,,,,,,,,,547.3772628450024,None,547.3772628450024,547.5773357100043,547.3772628450024,547.5773357100043,space,1,0.46715032900101505,547.3772628450024,None,,,jk,001,2020_jul_23_1729,jul30online,2020.1.2,59.79834908402298,
,,,,,,,,,,,,,,,,,,,,,,,,,,,,,,,,,,,,,,,,,None,0,1,,,,,,,,,,,,,,,,,0,3,3,4,,,,,,,,,,,,,,,548.377555594001,None,548.377555594001,548.5773781940006,548.377555594001,548.5773781940006,None,1,,548.377555594001,None,,,jk,001,2020_jul_23_1729,jul30online,2020.1.2,59.79834908402298,
,,,,,,,,,,,,,,,,,,,,,,,,,,,,,,,,,,,,,,,,,None,0,1,,,,,,,,,,,,,,,,,0,4,4,9,,,,,,,,,,,,,,,549.3774085800032,None,549.3774085800032,549.5774467540032,549.3774085800032,549.5774467540032,None,1,,549.3774085800032,None,,,jk,001,2020_jul_23_1729,jul30online,2020.1.2,59.79834908402298,
,,,,,,,,,,,,,,,,,,,,,,,,,,,,,,,,,,,,,,,,,space,1,0,,,,,,,,,,,,,,,,,0,5,5,47,,,,,,,,,,,,,,,550.377393847004,None,550.377393847004,550.5773158890006,550.377393847004,550.5773158890006,space,1,0.6009862329956377,550.377393847004,None,,,jk,001,2020_jul_23_1729,jul30online,2020.1.2,59.79834908402298,
,,,,,,,,,,,,,,,,,,,,,,,,,,,,,,,,,,,,,,,,,None,0,1,,,,,,,,,,,,,,,,,0,6,6,8,,,,,,,,,,,,,,,551.3775215560017,None,551.3775215560017,551.5777351240031,551.3775215560017,551.5777351240031,None,1,,551.3775215560017,None,,,jk,001,2020_jul_23_1729,jul30online,2020.1.2,59.79834908402298,
,,,,,,,,,,,,,,,,,,,,,,,,,,,,,,,,,,,,,,,,,space,1,0,,,,,,,,,,,,,,,,,0,7,7,20,,,,,,,,,,,,,,,552.377686702006,None,552.377686702006,552.5774709570032,552.377686702006,552.5774709570032,space,1,0.7503860580036417,552.377686702006,None,,,jk,001,2020_jul_23_1729,jul30online,2020.1.2,59.79834908402298,
,,,,,,,,,,,,,,,,,,,,,,,,,,,,,,,,,,,,,,,,,space,1,0,,,,,,,,,,,,,,,,,0,8,8,46,,,,,,,,,,,,,,,553.3781907070006,None,553.3781907070006,553.5774906660008,553.3781907070006,553.5774906660008,space,1,0.6982920040027238,553.3781907070006,None,,,jk,001,2020_jul_23_1729,jul30online,2020.1.2,59.79834908402298,
,,,,,,,,,,,,,,,,,,,,,,,,,,,,,,,,,,,,,,,,,space,1,0,,,,,,,,,,,,,,,,,0,9,9,26,,,,,,,,,,,,,,,554.376557622003,None,554.376557622003,554.5776609420063,554.376557622003,554.5776609420063,space,1,0.7189151299971854,554.376557622003,None,,,jk,001,2020_jul_23_1729,jul30online,2020.1.2,59.79834908402298,
,,,,,,,,,,,,,,,,,,,,,,,,,,,,,,,,,,,,,,,,,space,1,0,,,,,,,,,,,,,,,,,0,10,10,14,,,,,,,,,,,,,,,555.377903299006,None,555.377903299006,555.5776138750007,555.377903299006,555.5776138750007,space,1,0.8501669799952651,555.377903299006,None,,,jk,001,2020_jul_23_1729,jul30online,2020.1.2,59.79834908402298,
,,,,,,,,,,,,,,,,,,,,,,,,,,,,,,,,,,,,,,,,,space,1,0,,,,,,,,,,,,,,,,,0,11,11,42,,,,,,,,,,,,,,,556.3626448550058,None,556.3626448550058,556.5779698910046,556.3626448550058,556.5779698910046,None,0,,556.3626448550058,None,,,jk,001,2020_jul_23_1729,jul30online,2020.1.2,59.79834908402298,
,,,,,,,,,,,,,,,,,,,,,,,,,,,,,,,,,,,,,,,,,space,1,0,,,,,,,,,,,,,,,,,0,12,12,16,,,,,,,,,,,,,,,557.3616516770053,None,557.3616516770053,557.5612931550058,557.3616516770053,557.5612931550058,space,1,0.08388690300489543,557.3616516770053,None,,,jk,001,2020_jul_23_1729,jul30online,2020.1.2,59.79834908402298,
,,,,,,,,,,,,,,,,,,,,,,,,,,,,,,,,,,,,,,,,,space,1,0,,,,,,,,,,,,,,,,,0,13,13,23,,,,,,,,,,,,,,,558.3619010550028,None,558.3619010550028,558.5613133060033,558.3619010550028,558.5613133060033,space,1,0.31618146099935984,558.3619010550028,None,,,jk,001,2020_jul_23_1729,jul30online,2020.1.2,59.79834908402298,
,,,,,,,,,,,,,,,,,,,,,,,,,,,,,,,,,,,,,,,,,space,1,0,,,,,,,,,,,,,,,,,0,14,14,18,,,,,,,,,,,,,,,559.3630523740067,None,559.3630523740067,559.5782596650024,559.3630523740067,559.5782596650024,space,1,0.39987584100163076,559.3630523740067,None,,,jk,001,2020_jul_23_1729,jul30online,2020.1.2,59.79834908402298,
,,,,,,,,,,,,,,,,,,,,,,,,,,,,,,,,,,,,,,,,,space,1,0,,,,,,,,,,,,,,,,,0,15,15,38,,,,,,,,,,,,,,,560.3622787960048,None,560.3622787960048,560.5614043990063,560.3622787960048,560.5614043990063,space,1,0.5502876529935747,560.3622787960048,None,,,jk,001,2020_jul_23_1729,jul30online,2020.1.2,59.79834908402298,
,,,,,,,,,,,,,,,,,,,,,,,,,,,,,,,,,,,,,,,,,None,0,1,,,,,,,,,,,,,,,,,0,16,16,0,,,,,,,,,,,,,,,561.3618195180024,None,561.3618195180024,561.5614353080018,561.3618195180024,561.5614353080018,None,1,,561.3618195180024,None,,,jk,001,2020_jul_23_1729,jul30online,2020.1.2,59.79834908402298,
,,,,,,,,,,,,,,,,,,,,,,,,,,,,,,,,,,,,,,,,,space,1,0,,,,,,,,,,,,,,,,,0,17,17,35,,,,,,,,,,,,,,,562.3626401090005,None,562.3626401090005,562.5615028930042,562.3626401090005,562.5615028930042,space,1,0.732547768006043,562.3626401090005,None,,,jk,001,2020_jul_23_1729,jul30online,2020.1.2,59.79834908402298,
,,,,,,,,,,,,,,,,,,,,,,,,,,,,,,,,,,,,,,,,,space,1,0,,,,,,,,,,,,,,,,,0,18,18,13,,,,,,,,,,,,,,,563.3620868730068,None,563.3620868730068,563.5615834130003,563.3620868730068,563.5615834130003,space,1,0.7833886980006355,563.3620868730068,None,,,jk,001,2020_jul_23_1729,jul30online,2020.1.2,59.79834908402298,
,,,,,,,,,,,,,,,,,,,,,,,,,,,,,,,,,,,,,,,,,space,1,0,,,,,,,,,,,,,,,,,0,19,19,27,,,,,,,,,,,,,,,564.3620893660045,None,564.3620893660045,564.5616149480047,564.3620893660045,564.5616149480047,None,0,,564.3620893660045,None,,,jk,001,2020_jul_23_1729,jul30online,2020.1.2,59.79834908402298,
,,,,,,,,,,,,,,,,,,,,,,,,,,,,,,,,,,,,,,,,,space,1,0,,,,,,,,,,,,,,,,,0,20,20,22,,,,,,,,,,,,,,,565.3617898580051,None,565.3617898580051,565.5617451720027,565.3617898580051,565.5617451720027,space,1,0.06765720199473435,565.3617898580051,None,,,jk,001,2020_jul_23_1729,jul30online,2020.1.2,59.79834908402298,
,,,,,,,,,,,,,,,,,,,,,,,,,,,,,,,,,,,,,,,,,space,1,0,,,,,,,,,,,,,,,,,0,21,21,39,,,,,,,,,,,,,,,566.3621036640034,None,566.3621036640034,566.5617973360058,566.3621036640034,566.5617973360058,space,1,0.30097584999748506,566.3621036640034,None,,,jk,001,2020_jul_23_1729,jul30online,2020.1.2,59.79834908402298,
,,,,,,,,,,,,,,,,,,,,,,,,,,,,,,,,,,,,,,,,,space,1,0,,,,,,,,,,,,,,,,,0,22,22,41,,,,,,,,,,,,,,,567.3621395740047,None,567.3621395740047,567.5621266660019,567.3621395740047,567.5621266660019,space,1,0.40009951400134014,567.3621395740047,None,,,jk,001,2020_jul_23_1729,jul30online,2020.1.2,59.79834908402298,
,,,,,,,,,,,,,,,,,,,,,,,,,,,,,,,,,,,,,,,,,None,0,1,,,,,,,,,,,,,,,,,0,23,23,6,,,,,,,,,,,,,,,568.361995307001,None,568.361995307001,568.5619570060007,568.361995307001,568.5619570060007,space,0,0.4003031829997781,568.361995307001,None,,,jk,001,2020_jul_23_1729,jul30online,2020.1.2,59.79834908402298,
,,,,,,,,,,,,,,,,,,,,,,,,,,,,,,,,,,,,,,,,,space,1,0,,,,,,,,,,,,,,,,,0,24,24,49,,,,,,,,,,,,,,,569.3629852860031,None,569.3629852860031,569.5619963510035,569.3629852860031,569.5619963510035,space,1,0.6493720380021841,569.3629852860031,None,,,jk,001,2020_jul_23_1729,jul30online,2020.1.2,59.79834908402298,
,,,,,,,,,,,,,,,,,,,,,,,,,,,,,,,,,,,,,,,,,space,1,0,,,,,,,,,,,,,,,,,0,25,25,19,,,,,,,,,,,,,,,570.3620390150027,None,570.3620390150027,570.5621147860002,570.3620390150027,570.5621147860002,space,1,0.7514865880002617,570.3620390150027,None,,,jk,001,2020_jul_23_1729,jul30online,2020.1.2,59.79834908402298,
,,,,,,,,,,,,,,,,,,,,,,,,,,,,,,,,,,,,,,,,,space,1,0,,,,,,,,,,,,,,,,,0,26,26,34,,,,,,,,,,,,,,,571.3625906140005,None,571.3625906140005,571.5621422210024,571.3625906140005,571.5621422210024,space,1,0.7339179779955884,571.3625906140005,None,,,jk,001,2020_jul_23_1729,jul30online,2020.1.2,59.79834908402298,
,,,,,,,,,,,,,,,,,,,,,,,,,,,,,,,,,,,,,,,,,space,1,0,,,,,,,,,,,,,,,,,0,27,27,11,,,,,,,,,,,,,,,572.3622357080021,None,572.3622357080021,572.5621534340025,572.3622357080021,572.5621534340025,None,0,,572.3622357080021,None,,,jk,001,2020_jul_23_1729,jul30online,2020.1.2,59.79834908402298,
,,,,,,,,,,,,,,,,,,,,,,,,,,,,,,,,,,,,,,,,,space,1,0,,,,,,,,,,,,,,,,,0,28,28,24,,,,,,,,,,,,,,,573.362299627006,None,573.362299627006,573.5621215230058,573.362299627006,573.5621215230058,space,1,0.21783134999714093,573.362299627006,None,,,jk,001,2020_jul_23_1729,jul30online,2020.1.2,59.79834908402298,
,,,,,,,,,,,,,,,,,,,,,,,,,,,,,,,,,,,,,,,,,space,1,0,,,,,,,,,,,,,,,,,0,29,29,44,,,,,,,,,,,,,,,574.3626852290035,None,574.3626852290035,574.5621950920031,574.3626852290035,574.5621950920031,space,1,0.3838785759944585,574.3626852290035,None,,,jk,001,2020_jul_23_1729,jul30online,2020.1.2,59.79834908402298,
,,,,,,,,,,,,,,,,,,,,,,,,,,,,,,,,,,,,,,,,,space,1,0,,,,,,,,,,,,,,,,,0,30,30,48,,,,,,,,,,,,,,,575.3624303570032,None,575.3624303570032,575.5622100330002,575.3624303570032,575.5622100330002,space,1,0.4509726620017318,575.3624303570032,None,,,jk,001,2020_jul_23_1729,jul30online,2020.1.2,59.79834908402298,
,,,,,,,,,,,,,,,,,,,,,,,,,,,,,,,,,,,,,,,,,space,1,0,,,,,,,,,,,,,,,,,0,31,31,33,,,,,,,,,,,,,,,576.3624724160036,None,576.3624724160036,576.5623294220059,576.3624724160036,576.5623294220059,space,1,0.5344134400002076,576.3624724160036,None,,,jk,001,2020_jul_23_1729,jul30online,2020.1.2,59.79834908402298,
,,,,,,,,,,,,,,,,,,,,,,,,,,,,,,,,,,,,,,,,,space,1,0,,,,,,,,,,,,,,,,,0,32,32,32,,,,,,,,,,,,,,,577.3625878370003,None,577.3625878370003,577.5624784960019,577.3625878370003,577.5624784960019,space,1,0.5821922219984117,577.3625878370003,None,,,jk,001,2020_jul_23_1729,jul30online,2020.1.2,59.79834908402298,
,,,,,,,,,,,,,,,,,,,,,,,,,,,,,,,,,,,,,,,,,space,1,0,,,,,,,,,,,,,,,,,0,33,33,36,,,,,,,,,,,,,,,578.3614628120049,None,578.3614628120049,578.5624254480063,578.3614628120049,578.5624254480063,space,1,0.735358432000794,578.3614628120049,None,,,jk,001,2020_jul_23_1729,jul30online,2020.1.2,59.79834908402298,
,,,,,,,,,,,,,,,,,,,,,,,,,,,,,,,,,,,,,,,,,space,1,0,,,,,,,,,,,,,,,,,0,34,34,30,,,,,,,,,,,,,,,579.3656280410069,None,579.3656280410069,579.579310207002,579.3656280410069,579.579310207002,space,1,0.8481478909961879,579.3656280410069,None,,,jk,001,2020_jul_23_1729,jul30online,2020.1.2,59.79834908402298,
,,,,,,,,,,,,,,,,,,,,,,,,,,,,,,,,,,,,,,,,,space,1,0,,,,,,,,,,,,,,,,,0,35,35,21,,,,,,,,,,,,,,,580.3631203590048,None,580.3631203590048,580.5626713240054,580.3631203590048,580.5626713240054,None,0,,580.3631203590048,None,,,jk,001,2020_jul_23_1729,jul30online,2020.1.2,59.79834908402298,
,,,,,,,,,,,,,,,,,,,,,,,,,,,,,,,,,,,,,,,,,space,1,0,,,,,,,,,,,,,,,,,0,36,36,15,,,,,,,,,,,,,,,581.3634970130006,None,581.3634970130006,581.5626809840032,581.3634970130006,581.5626809840032,space,1,0.5829545770029654,581.3634970130006,None,,,jk,001,2020_jul_23_1729,jul30online,2020.1.2,59.79834908402298,
,,,,,,,,,,,,,,,,,,,,,,,,,,,,,,,,,,,,,,,,,space,1,0,,,,,,,,,,,,,,,,,0,37,37,43,,,,,,,,,,,,,,,582.3648696050004,None,582.3648696050004,582.5797664560014,582.3648696050004,582.5797664560014,space,1,0.7987940500024706,582.3648696050004,None,,,jk,001,2020_jul_23_1729,jul30online,2020.1.2,59.79834908402298,
,,,,,,,,,,,,,,,,,,,,,,,,,,,,,,,,,,,,,,,,,space,1,0,,,,,,,,,,,,,,,,,0,38,38,17,,,,,,,,,,,,,,,583.3638167360041,None,583.3638167360041,583.5629544690019,583.3638167360041,583.5629544690019,space,1,0.8337315209937515,583.3638167360041,None,,,jk,001,2020_jul_23_1729,jul30online,2020.1.2,59.79834908402298,
,,,,,,,,,,,,,,,,,,,,,,,,,,,,,,,,,,,,,,,,,space,1,0,,,,,,,,,,,,,,,,,0,39,39,45,,,,,,,,,,,,,,,584.3631876920044,None,584.3631876920044,584.5631205700047,584.3631876920044,584.5631205700047,None,0,,584.3631876920044,None,,,jk,001,2020_jul_23_1729,jul30online,2020.1.2,59.79834908402298,
,,,,,,,,,,,,,,,,,,,,,,,,,,,,,,,,,,,,,,,,,space,1,0,,,,,,,,,,,,,,,,,0,40,40,25,,,,,,,,,,,,,,,585.3632956040019,None,585.3632956040019,585.5632721930015,585.3632956040019,585.5632721930015,space,1,0.25072121000266634,585.3632956040019,None,,,jk,001,2020_jul_23_1729,jul30online,2020.1.2,59.79834908402298,
,,,,,,,,,,,,,,,,,,,,,,,,,,,,,,,,,,,,,,,,,space,1,0,,,,,,,,,,,,,,,,,0,41,41,40,,,,,,,,,,,,,,,586.3639832710032,None,586.3639832710032,586.5633581170041,586.3639832710032,586.5633581170041,space,1,0.29970695600059116,586.3639832710032,None,,,jk,001,2020_jul_23_1729,jul30online,2020.1.2,59.79834908402298,
,,,,,,,,,,,,,,,,,,,,,,,,,,,,,,,,,,,,,,,,,space,1,0,,,,,,,,,,,,,,,,,0,42,42,10,,,,,,,,,,,,,,,587.362080362007,None,587.362080362007,587.5619554150035,587.362080362007,587.5619554150035,space,1,0.46760584699950414,587.362080362007,None,,,jk,001,2020_jul_23_1729,jul30online,2020.1.2,59.79834908402298,
,,,,,,,,,,,,,,,,,,,,,,,,,,,,,,,,,,,,,,,,,None,0,1,,,,,,,,,,,,,,,,,0,43,43,1,,,,,,,,,,,,,,,588.3650726250053,None,588.3650726250053,588.5798698700019,588.3650726250053,588.5798698700019,None,1,,588.3650726250053,None,,,jk,001,2020_jul_23_1729,jul30online,2020.1.2,59.79834908402298,
,,,,,,,,,,,,,,,,,,,,,,,,,,,,,,,,,,,,,,,,,None,0,1,,,,,,,,,,,,,,,,,0,44,44,7,,,,,,,,,,,,,,,589.363348567007,None,589.363348567007,589.5633656240025,589.363348567007,589.5633656240025,None,1,,589.363348567007,None,,,jk,001,2020_jul_23_1729,jul30online,2020.1.2,59.79834908402298,
,,,,,,,,,,,,,,,,,,,,,,,,,,,,,,,,,,,,,,,,,None,0,1,,,,,,,,,,,,,,,,,0,45,45,5,,,,,,,,,,,,,,,590.3631056820013,None,590.3631056820013,590.5634991160041,590.3631056820013,590.5634991160041,None,1,,590.3631056820013,None,,,jk,001,2020_jul_23_1729,jul30online,2020.1.2,59.79834908402298,
,,,,,,,,,,,,,,,,,,,,,,,,,,,,,,,,,,,,,,,,,None,0,1,,,,,,,,,,,,,,,,,0,46,46,2,,,,,,,,,,,,,,,591.3632788520044,None,591.3632788520044,591.5635306720069,591.3632788520044,591.5635306720069,None,1,,591.3632788520044,None,,,jk,001,2020_jul_23_1729,jul30online,2020.1.2,59.79834908402298,
,,,,,,,,,,,,,,,,,,,,,,,,,,,,,,,,,,,,,,,,,space,1,0,,,,,,,,,,,,,,,,,0,47,47,37,,,,,,,,,,,,,,,592.3634818740029,None,592.3634818740029,592.5638500690038,592.3634818740029,592.5638500690038,space,1,0.550256143003935,592.3634818740029,None,,,jk,001,2020_jul_23_1729,jul30online,2020.1.2,59.79834908402298,
,,,,,,,,,,,,,,,,,,,,,,,,,,,,,,,,,,,,,,,,,space,1,0,,,,,,,,,,,,,,,,,0,48,48,29,,,,,,,,,,,,,,,593.3638062050013,None,593.3638062050013,593.5637420470011,593.3638062050013,593.5637420470011,space,1,0.6841004340021755,593.3638062050013,None,,,jk,001,2020_jul_23_1729,jul30online,2020.1.2,59.79834908402298,
,,,,,,,,,,,,,,,,,,,,,,,,,,,,,,,,,,,,,,,,,space,1,0,,,,,,,,,,,,,,,,,0,49,49,31,,,,,,,,,,,,,,,594.3660050440012,None,594.3660050440012,594.580224643003,594.3660050440012,594.580224643003,space,1,0.8814126330034924,594.3660050440012,None,,,jk,001,2020_jul_23_1729,jul30online,2020.1.2,59.79834908402298,
