key_resp_6.keys,key_resp_6.rt,key_resp_2.keys,key_resp_2.corr,key_resp_2.rt,CDT_trials_train.thisRepN,CDT_trials_train.thisTrialN,CDT_trials_train.thisN,CDT_trials_train.thisIndex,CDT_trials_train.ran,trialnum,condit,stimamt,stim1posx,stim1posy,stim1col,stim1opa,stim2posx,stim2posy,stim2col,stim2opa,stim3posx,stim3posy,stim3col,stim3opa,stim4posx,stim4posy,stim4col,stim4opa,stim5posx,stim5posy,stim5col,stim5opa,stim6posx,stim6posy,stim6col,stim6opa,stimsizex,stimsizey,stimdur,targetposx,targetposy,targetcol,corrAns,participant,age,date,expName,psychopyVersion,OS,frameRate,key_resp_5.keys,key_resp.keys,key_resp.corr,key_resp.rt,CDT_trials.thisRepN,CDT_trials.thisTrialN,CDT_trials.thisN,CDT_trials.thisIndex,CDT_trials.ran,key_resp_5.rt,trialResp_Train.keys,trialResp_Train.corr,trialResp_Train.rt,GNGtrials_train.thisRepN,GNGtrials_train.thisTrialN,GNGtrials_train.thisN,GNGtrials_train.thisIndex,GNGtrials_train.ran,orangeOpacity,blueOpacity,trialResp.keys,trialResp.corr,trialResp.rt,GNG_trials_1.thisRepN,GNG_trials_1.thisTrialN,GNG_trials_1.thisN,GNG_trials_1.thisIndex,GNG_trials_1.ran,GNG_trials_2.thisRepN,GNG_trials_2.thisTrialN,GNG_trials_2.thisN,GNG_trials_2.thisIndex,GNG_trials_2.ran,GNG_trials_3.thisRepN,GNG_trials_3.thisTrialN,GNG_trials_3.thisN,GNG_trials_3.thisIndex,GNG_trials_3.ran,slider_2.response,slider_2.rt,engprof_trials.thisRepN,engprof_trials.thisTrialN,engprof_trials.thisN,engprof_trials.thisIndex,engprof_trials.ran,qpnumber,qproficiency,slider.response,slider.rt,IUS12_trials.thisRepN,IUS12_trials.thisTrialN,IUS12_trials.thisN,IUS12_trials.thisIndex,IUS12_trials.ran,qnumber,qenglish,key_resp_end.keys,key_resp_end.rt
y,1.705,k,1,1.054,0,0,0,0,1,1,same,4,0.273779233,-0.054755847,black,1,-0.16426754,-0.273779233,magenta,1,-0.16426754,0.16426754,orange,1,0.16426754,0.054755847,yellow,1,0.16426754,-0.054755847,cyan,0,-0.054755847,-0.16426754,blue,0,0.05,0.05,0.15,-0.16426754,0.16426754,orange,k,LM,25,2020-08-30_15h36.38.912,CDT_GNG_IUS12,2020.1.2,MacIntel,60,,,,,,,,,,,,,,,,,,,,,,,,,,,,,,,,,,,,,,,,,,,,,,,,,,,,,,,,,,
,,l,1,1.051,0,1,1,1,1,2,different,4,0.054755847,-0.054755847,orange,1,-0.273779233,0.273779233,magenta,1,0.273779233,0.16426754,yellow,1,-0.273779233,-0.16426754,blue,1,0.273779233,-0.054755847,red,0,-0.273779233,0.054755847,cyan,0,0.05,0.05,0.15,-0.273779233,-0.16426754,black,l,LM,25,2020-08-30_15h36.38.912,CDT_GNG_IUS12,2020.1.2,MacIntel,60,,,,,,,,,,,,,,,,,,,,,,,,,,,,,,,,,,,,,,,,,,,,,,,,,,,,,,,,,,
,,l,0,1.403,0,2,2,2,1,3,same,6,-0.054755847,0.273779233,green,1,0.273779233,-0.273779233,magenta,1,0.273779233,0.16426754,cyan,1,-0.054755847,-0.054755847,black,1,-0.273779233,0.16426754,orange,1,0.16426754,-0.054755847,blue,1,0.05,0.05,0.15,-0.054755847,0.273779233,green,k,LM,25,2020-08-30_15h36.38.912,CDT_GNG_IUS12,2020.1.2,MacIntel,60,,,,,,,,,,,,,,,,,,,,,,,,,,,,,,,,,,,,,,,,,,,,,,,,,,,,,,,,,,
,,l,1,1.623,0,3,3,3,1,4,different,6,0.16426754,-0.054755847,orange,1,-0.054755847,0.273779233,red,1,0.273779233,0.273779233,green,1,-0.054755847,-0.273779233,yellow,1,0.273779233,-0.054755847,blue,1,-0.16426754,0.16426754,black,1,0.05,0.05,0.15,0.273779233,0.273779233,cyan,l,LM,25,2020-08-30_15h36.38.912,CDT_GNG_IUS12,2020.1.2,MacIntel,60,,,,,,,,,,,,,,,,,,,,,,,,,,,,,,,,,,,,,,,,,,,,,,,,,,,,,,,,,,
,,,,,,,,,,92,different,6,0.16426754,0.16426754,green,1,-0.054755847,-0.054755847,cyan,1,-0.054755847,0.054755847,red,1,0.16426754,-0.054755847,magenta,1,0.054755847,0.16426754,orange,1,-0.273779233,-0.16426754,yellow,1,0.05,0.05,0.15,0.16426754,0.16426754,cyan,l,LM,25,2020-08-30_15h36.38.912,CDT_GNG_IUS12,2020.1.2,MacIntel,60,,l,1,1.171,0,0,0,91,1,,,,,,,,,,,,,,,,,,,,,,,,,,,,,,,,,,,,,,,,,,,,,,,,,
,,,,,,,,,,27,same,4,-0.273779233,0.054755847,blue,1,-0.16426754,-0.16426754,black,1,0.16426754,-0.273779233,cyan,1,0.273779233,0.054755847,red,1,-0.054755847,0.273779233,magenta,0,-0.054755847,-0.273779233,yellow,0,0.05,0.05,0.15,0.273779233,0.054755847,red,k,LM,25,2020-08-30_15h36.38.912,CDT_GNG_IUS12,2020.1.2,MacIntel,60,,k,1,0.916,0,1,1,26,1,,,,,,,,,,,,,,,,,,,,,,,,,,,,,,,,,,,,,,,,,,,,,,,,,
,,,,,,,,,,74,same,6,-0.273779233,-0.273779233,magenta,1,0.16426754,0.054755847,cyan,1,-0.16426754,0.273779233,black,1,0.273779233,-0.054755847,yellow,1,-0.16426754,-0.16426754,red,1,0.054755847,0.273779233,green,1,0.05,0.05,0.15,-0.16426754,-0.16426754,red,k,LM,25,2020-08-30_15h36.38.912,CDT_GNG_IUS12,2020.1.2,MacIntel,60,,k,1,0.949,0,2,2,73,1,,,,,,,,,,,,,,,,,,,,,,,,,,,,,,,,,,,,,,,,,,,,,,,,,
,,,,,,,,,,30,same,4,0.16426754,0.16426754,blue,1,0.054755847,-0.054755847,green,1,-0.273779233,-0.16426754,black,1,-0.054755847,0.273779233,yellow,1,0.16426754,0.273779233,red,0,0.16426754,-0.16426754,magenta,0,0.05,0.05,0.15,0.054755847,-0.054755847,green,k,LM,25,2020-08-30_15h36.38.912,CDT_GNG_IUS12,2020.1.2,MacIntel,60,,k,1,1.084,0,3,3,29,1,,,,,,,,,,,,,,,,,,,,,,,,,,,,,,,,,,,,,,,,,,,,,,,,,
,,,,,,,,,,111,different,6,0.273779233,0.273779233,green,1,0.054755847,-0.16426754,red,1,-0.16426754,-0.16426754,black,1,-0.16426754,0.16426754,magenta,1,0.054755847,0.054755847,blue,1,0.273779233,-0.16426754,yellow,1,0.05,0.05,0.15,0.273779233,-0.16426754,green,l,LM,25,2020-08-30_15h36.38.912,CDT_GNG_IUS12,2020.1.2,MacIntel,60,,l,1,1.136,0,4,4,110,1,,,,,,,,,,,,,,,,,,,,,,,,,,,,,,,,,,,,,,,,,,,,,,,,,
,,,,,,,,,,36,different,4,-0.16426754,-0.054755847,cyan,1,0.16426754,0.054755847,red,1,0.16426754,-0.054755847,black,1,-0.273779233,0.273779233,orange,1,-0.054755847,-0.054755847,yellow,0,0.273779233,0.273779233,green,0,0.05,0.05,0.15,0.16426754,-0.054755847,orange,l,LM,25,2020-08-30_15h36.38.912,CDT_GNG_IUS12,2020.1.2,MacIntel,60,,l,1,0.9,0,5,5,35,1,,,,,,,,,,,,,,,,,,,,,,,,,,,,,,,,,,,,,,,,,,,,,,,,,
,,,,,,,,,,69,same,6,-0.054755847,-0.054755847,black,1,0.273779233,-0.054755847,orange,1,-0.273779233,0.16426754,blue,1,0.054755847,0.054755847,yellow,1,-0.16426754,-0.16426754,green,1,0.054755847,-0.16426754,magenta,1,0.05,0.05,0.15,-0.16426754,-0.16426754,green,k,LM,25,2020-08-30_15h36.38.912,CDT_GNG_IUS12,2020.1.2,MacIntel,60,,k,1,1.465,0,6,6,68,1,,,,,,,,,,,,,,,,,,,,,,,,,,,,,,,,,,,,,,,,,,,,,,,,,
,,,,,,,,,,39,different,4,0.054755847,0.054755847,green,1,0.273779233,-0.16426754,yellow,1,-0.16426754,0.054755847,orange,1,-0.273779233,-0.054755847,red,1,0.273779233,0.054755847,blue,0,0.054755847,-0.16426754,cyan,0,0.05,0.05,0.15,-0.273779233,-0.054755847,cyan,l,LM,25,2020-08-30_15h36.38.912,CDT_GNG_IUS12,2020.1.2,MacIntel,60,,l,1,0.905,0,7,7,38,1,,,,,,,,,,,,,,,,,,,,,,,,,,,,,,,,,,,,,,,,,,,,,,,,,
,,,,,,,,,,20,same,4,0.273779233,0.054755847,magenta,1,0.054755847,-0.273779233,black,1,-0.054755847,0.16426754,blue,1,-0.273779233,-0.054755847,orange,1,0.054755847,0.054755847,red,0,0.054755847,-0.054755847,cyan,0,0.05,0.05,0.15,-0.054755847,0.16426754,blue,k,LM,25,2020-08-30_15h36.38.912,CDT_GNG_IUS12,2020.1.2,MacIntel,60,,k,1,1.3,0,8,8,19,1,,,,,,,,,,,,,,,,,,,,,,,,,,,,,,,,,,,,,,,,,,,,,,,,,
,,,,,,,,,,51,different,4,-0.16426754,-0.273779233,yellow,1,0.16426754,-0.273779233,cyan,1,0.273779233,0.054755847,blue,1,-0.054755847,0.273779233,green,1,-0.16426754,-0.054755847,black,0,0.273779233,-0.273779233,red,0,0.05,0.05,0.15,0.16426754,-0.273779233,red,l,LM,25,2020-08-30_15h36.38.912,CDT_GNG_IUS12,2020.1.2,MacIntel,60,,l,1,0.939,0,9,9,50,1,,,,,,,,,,,,,,,,,,,,,,,,,,,,,,,,,,,,,,,,,,,,,,,,,
,,,,,,,,,,55,different,4,0.273779233,0.054755847,yellow,1,0.054755847,-0.16426754,green,1,-0.273779233,-0.16426754,orange,1,-0.273779233,0.273779233,blue,1,0.273779233,0.273779233,red,0,0.273779233,-0.16426754,cyan,0,0.05,0.05,0.15,0.054755847,-0.16426754,red,l,LM,25,2020-08-30_15h36.38.912,CDT_GNG_IUS12,2020.1.2,MacIntel,60,,l,1,0.951,0,10,10,54,1,,,,,,,,,,,,,,,,,,,,,,,,,,,,,,,,,,,,,,,,,,,,,,,,,
,,,,,,,,,,12,same,4,0.054755847,0.054755847,blue,1,-0.273779233,-0.054755847,magenta,1,-0.054755847,0.273779233,black,1,0.16426754,-0.16426754,green,1,0.16426754,0.16426754,yellow,0,-0.16426754,-0.054755847,orange,0,0.05,0.05,0.15,0.054755847,0.054755847,blue,k,LM,25,2020-08-30_15h36.38.912,CDT_GNG_IUS12,2020.1.2,MacIntel,60,,k,1,0.715,0,11,11,11,1,,,,,,,,,,,,,,,,,,,,,,,,,,,,,,,,,,,,,,,,,,,,,,,,,
,,,,,,,,,,19,same,4,-0.054755847,-0.16426754,orange,1,-0.273779233,0.273779233,red,1,0.273779233,0.054755847,yellow,1,0.273779233,-0.16426754,magenta,1,-0.273779233,-0.054755847,black,0,-0.054755847,0.273779233,blue,0,0.05,0.05,0.15,0.273779233,-0.16426754,magenta,k,LM,25,2020-08-30_15h36.38.912,CDT_GNG_IUS12,2020.1.2,MacIntel,60,,l,0,1.307,0,12,12,18,1,,,,,,,,,,,,,,,,,,,,,,,,,,,,,,,,,,,,,,,,,,,,,,,,,
,,,,,,,,,,25,same,4,0.16426754,-0.273779233,green,1,-0.16426754,-0.273779233,black,1,0.16426754,0.054755847,cyan,1,-0.273779233,0.273779233,blue,1,0.054755847,-0.273779233,yellow,0,-0.273779233,-0.273779233,red,0,0.05,0.05,0.15,-0.273779233,0.273779233,blue,k,LM,25,2020-08-30_15h36.38.912,CDT_GNG_IUS12,2020.1.2,MacIntel,60,,k,1,0.888,0,13,13,24,1,,,,,,,,,,,,,,,,,,,,,,,,,,,,,,,,,,,,,,,,,,,,,,,,,
,,,,,,,,,,22,same,4,-0.054755847,-0.16426754,green,1,-0.16426754,0.054755847,blue,1,0.16426754,0.16426754,yellow,1,0.273779233,-0.054755847,black,1,-0.273779233,-0.054755847,red,0,-0.054755847,0.16426754,cyan,0,0.05,0.05,0.15,0.273779233,-0.054755847,black,k,LM,25,2020-08-30_15h36.38.912,CDT_GNG_IUS12,2020.1.2,MacIntel,60,,k,1,0.954,0,14,14,21,1,,,,,,,,,,,,,,,,,,,,,,,,,,,,,,,,,,,,,,,,,,,,,,,,,
,,,,,,,,,,67,same,6,0.273779233,-0.054755847,magenta,1,0.16426754,0.273779233,orange,1,-0.273779233,0.273779233,cyan,1,-0.16426754,-0.054755847,yellow,1,0.16426754,-0.16426754,blue,1,0.16426754,0.16426754,red,1,0.05,0.05,0.15,-0.273779233,0.273779233,cyan,k,LM,25,2020-08-30_15h36.38.912,CDT_GNG_IUS12,2020.1.2,MacIntel,60,,l,0,1.283,0,15,15,66,1,,,,,,,,,,,,,,,,,,,,,,,,,,,,,,,,,,,,,,,,,,,,,,,,,
,,,,,,,,,,93,different,6,-0.16426754,0.16426754,red,1,0.054755847,-0.054755847,black,1,-0.054755847,-0.16426754,blue,1,0.054755847,0.273779233,magenta,1,-0.054755847,0.054755847,orange,1,0.16426754,-0.054755847,cyan,1,0.05,0.05,0.15,-0.054755847,-0.16426754,black,l,LM,25,2020-08-30_15h36.38.912,CDT_GNG_IUS12,2020.1.2,MacIntel,60,,l,1,1.034,0,16,16,92,1,,,,,,,,,,,,,,,,,,,,,,,,,,,,,,,,,,,,,,,,,,,,,,,,,
,,,,,,,,,,17,same,4,0.16426754,0.273779233,yellow,1,-0.054755847,0.16426754,orange,1,0.273779233,-0.054755847,cyan,1,-0.273779233,-0.054755847,green,1,0.16426754,0.16426754,blue,0,-0.054755847,0.273779233,magenta,0,0.05,0.05,0.15,0.16426754,0.273779233,yellow,k,LM,25,2020-08-30_15h36.38.912,CDT_GNG_IUS12,2020.1.2,MacIntel,60,,k,1,0.75,0,17,17,16,1,,,,,,,,,,,,,,,,,,,,,,,,,,,,,,,,,,,,,,,,,,,,,,,,,
,,,,,,,,,,85,same,6,-0.16426754,-0.273779233,black,1,-0.16426754,0.16426754,green,1,0.16426754,-0.054755847,blue,1,0.054755847,0.054755847,magenta,1,-0.16426754,-0.054755847,red,1,-0.054755847,0.054755847,yellow,1,0.05,0.05,0.15,-0.16426754,-0.273779233,black,k,LM,25,2020-08-30_15h36.38.912,CDT_GNG_IUS12,2020.1.2,MacIntel,60,,k,1,1.121,0,18,18,84,1,,,,,,,,,,,,,,,,,,,,,,,,,,,,,,,,,,,,,,,,,,,,,,,,,
,,,,,,,,,,5,same,4,0.273779233,-0.054755847,green,1,0.273779233,0.054755847,orange,1,-0.054755847,0.054755847,black,1,-0.054755847,-0.16426754,blue,1,0.054755847,-0.054755847,cyan,0,0.054755847,0.273779233,red,0,0.05,0.05,0.15,-0.054755847,-0.16426754,blue,k,LM,25,2020-08-30_15h36.38.912,CDT_GNG_IUS12,2020.1.2,MacIntel,60,,l,0,1.519,0,19,19,4,1,,,,,,,,,,,,,,,,,,,,,,,,,,,,,,,,,,,,,,,,,,,,,,,,,
,,,,,,,,,,60,different,4,0.273779233,0.273779233,red,1,-0.273779233,-0.054755847,blue,1,-0.273779233,0.054755847,magenta,1,0.054755847,-0.273779233,black,1,0.273779233,0.054755847,orange,0,-0.054755847,-0.16426754,yellow,0,0.05,0.05,0.15,-0.273779233,0.054755847,yellow,l,LM,25,2020-08-30_15h36.38.912,CDT_GNG_IUS12,2020.1.2,MacIntel,60,,l,1,1.07,0,20,20,59,1,,,,,,,,,,,,,,,,,,,,,,,,,,,,,,,,,,,,,,,,,,,,,,,,,
,,,,,,,,,,83,same,6,0.054755847,-0.16426754,cyan,1,-0.16426754,-0.16426754,blue,1,0.273779233,0.054755847,magenta,1,-0.273779233,0.273779233,green,1,0.273779233,-0.16426754,orange,1,-0.054755847,-0.054755847,yellow,1,0.05,0.05,0.15,-0.054755847,-0.054755847,yellow,k,LM,25,2020-08-30_15h36.38.912,CDT_GNG_IUS12,2020.1.2,MacIntel,60,,k,1,0.887,0,21,21,82,1,,,,,,,,,,,,,,,,,,,,,,,,,,,,,,,,,,,,,,,,,,,,,,,,,
,,,,,,,,,,106,different,6,0.054755847,-0.16426754,blue,1,-0.273779233,-0.273779233,magenta,1,0.273779233,0.273779233,yellow,1,-0.273779233,0.054755847,orange,1,0.054755847,-0.054755847,green,1,-0.054755847,-0.16426754,black,1,0.05,0.05,0.15,0.054755847,-0.054755847,cyan,l,LM,25,2020-08-30_15h36.38.912,CDT_GNG_IUS12,2020.1.2,MacIntel,60,,l,1,0.891,0,22,22,105,1,,,,,,,,,,,,,,,,,,,,,,,,,,,,,,,,,,,,,,,,,,,,,,,,,
,,,,,,,,,,110,different,6,-0.273779233,0.273779233,black,1,0.273779233,-0.16426754,red,1,0.054755847,0.273779233,cyan,1,-0.273779233,-0.16426754,orange,1,-0.054755847,0.054755847,magenta,1,0.16426754,-0.054755847,yellow,1,0.05,0.05,0.15,0.273779233,-0.16426754,yellow,l,LM,25,2020-08-30_15h36.38.912,CDT_GNG_IUS12,2020.1.2,MacIntel,60,,l,1,0.985,0,23,23,109,1,,,,,,,,,,,,,,,,,,,,,,,,,,,,,,,,,,,,,,,,,,,,,,,,,
,,,,,,,,,,103,different,6,-0.273779233,-0.16426754,black,1,0.273779233,-0.054755847,cyan,1,0.054755847,0.273779233,magenta,1,-0.054755847,0.16426754,orange,1,-0.16426754,-0.16426754,green,1,0.273779233,-0.16426754,red,1,0.05,0.05,0.15,-0.273779233,-0.16426754,blue,l,LM,25,2020-08-30_15h36.38.912,CDT_GNG_IUS12,2020.1.2,MacIntel,60,,l,1,1.05,0,24,24,102,1,,,,,,,,,,,,,,,,,,,,,,,,,,,,,,,,,,,,,,,,,,,,,,,,,
,,,,,,,,,,70,same,6,0.16426754,0.16426754,cyan,1,0.273779233,-0.273779233,red,1,-0.16426754,0.16426754,yellow,1,-0.273779233,-0.273779233,green,1,0.16426754,0.054755847,magenta,1,0.16426754,-0.054755847,blue,1,0.05,0.05,0.15,0.273779233,-0.273779233,red,k,LM,25,2020-08-30_15h36.38.912,CDT_GNG_IUS12,2020.1.2,MacIntel,60,,l,0,1.274,0,25,25,69,1,,,,,,,,,,,,,,,,,,,,,,,,,,,,,,,,,,,,,,,,,,,,,,,,,
,,,,,,,,,,77,same,6,0.273779233,0.273779233,black,1,-0.273779233,-0.16426754,red,1,0.16426754,-0.054755847,magenta,1,-0.054755847,0.16426754,cyan,1,0.16426754,0.273779233,orange,1,-0.16426754,-0.273779233,blue,1,0.05,0.05,0.15,-0.273779233,-0.16426754,red,k,LM,25,2020-08-30_15h36.38.912,CDT_GNG_IUS12,2020.1.2,MacIntel,60,,k,1,1.05,0,26,26,76,1,,,,,,,,,,,,,,,,,,,,,,,,,,,,,,,,,,,,,,,,,,,,,,,,,
,,,,,,,,,,75,same,6,0.16426754,0.273779233,magenta,1,-0.273779233,-0.16426754,green,1,-0.273779233,0.16426754,yellow,1,0.054755847,-0.054755847,red,1,0.273779233,0.054755847,blue,1,-0.16426754,-0.054755847,cyan,1,0.05,0.05,0.15,0.054755847,-0.054755847,red,k,LM,25,2020-08-30_15h36.38.912,CDT_GNG_IUS12,2020.1.2,MacIntel,60,,k,1,0.72,0,27,27,74,1,,,,,,,,,,,,,,,,,,,,,,,,,,,,,,,,,,,,,,,,,,,,,,,,,
,,,,,,,,,,33,different,4,-0.273779233,0.273779233,yellow,1,0.16426754,-0.16426754,cyan,1,-0.273779233,-0.273779233,black,1,0.054755847,0.273779233,blue,1,-0.16426754,0.273779233,green,0,0.054755847,-0.273779233,orange,0,0.05,0.05,0.15,-0.273779233,-0.273779233,cyan,l,LM,25,2020-08-30_15h36.38.912,CDT_GNG_IUS12,2020.1.2,MacIntel,60,,l,1,1.083,0,28,28,32,1,,,,,,,,,,,,,,,,,,,,,,,,,,,,,,,,,,,,,,,,,,,,,,,,,
,,,,,,,,,,23,same,4,0.273779233,-0.16426754,yellow,1,0.054755847,0.273779233,red,1,-0.054755847,0.054755847,black,1,-0.273779233,-0.054755847,orange,1,0.273779233,-0.054755847,green,0,0.273779233,0.054755847,magenta,0,0.05,0.05,0.15,-0.054755847,0.054755847,black,k,LM,25,2020-08-30_15h36.38.912,CDT_GNG_IUS12,2020.1.2,MacIntel,60,,k,1,0.784,0,29,29,22,1,,,,,,,,,,,,,,,,,,,,,,,,,,,,,,,,,,,,,,,,,,,,,,,,,
,,,,,,,,,,102,different,6,-0.273779233,-0.273779233,magenta,1,0.054755847,0.16426754,green,1,0.16426754,-0.273779233,yellow,1,-0.16426754,0.054755847,orange,1,-0.16426754,-0.273779233,red,1,0.273779233,0.054755847,cyan,1,0.05,0.05,0.15,-0.273779233,-0.273779233,yellow,l,LM,25,2020-08-30_15h36.38.912,CDT_GNG_IUS12,2020.1.2,MacIntel,60,,l,1,1.003,0,30,30,101,1,,,,,,,,,,,,,,,,,,,,,,,,,,,,,,,,,,,,,,,,,,,,,,,,,
,,,,,,,,,,76,same,6,0.16426754,0.054755847,cyan,1,0.273779233,-0.273779233,red,1,-0.054755847,-0.273779233,magenta,1,-0.054755847,0.16426754,yellow,1,0.054755847,0.273779233,blue,1,0.054755847,-0.273779233,green,1,0.05,0.05,0.15,0.16426754,0.054755847,cyan,k,LM,25,2020-08-30_15h36.38.912,CDT_GNG_IUS12,2020.1.2,MacIntel,60,,k,1,1.299,0,31,31,75,1,,,,,,,,,,,,,,,,,,,,,,,,,,,,,,,,,,,,,,,,,,,,,,,,,
,,,,,,,,,,4,same,4,0.16426754,-0.16426754,black,1,-0.054755847,0.16426754,yellow,1,0.16426754,0.16426754,blue,1,-0.16426754,-0.16426754,green,1,0.054755847,-0.16426754,magenta,0,-0.054755847,0.273779233,orange,0,0.05,0.05,0.15,0.16426754,-0.16426754,black,k,LM,25,2020-08-30_15h36.38.912,CDT_GNG_IUS12,2020.1.2,MacIntel,60,,k,1,1.001,0,32,32,3,1,,,,,,,,,,,,,,,,,,,,,,,,,,,,,,,,,,,,,,,,,,,,,,,,,
,,,,,,,,,,41,different,4,0.054755847,-0.273779233,orange,1,-0.273779233,0.054755847,blue,1,-0.054755847,-0.16426754,yellow,1,0.273779233,0.16426754,red,1,0.273779233,-0.273779233,black,0,-0.273779233,0.273779233,magenta,0,0.05,0.05,0.15,-0.054755847,-0.16426754,black,l,LM,25,2020-08-30_15h36.38.912,CDT_GNG_IUS12,2020.1.2,MacIntel,60,,l,1,1.135,0,33,33,40,1,,,,,,,,,,,,,,,,,,,,,,,,,,,,,,,,,,,,,,,,,,,,,,,,,
,,,,,,,,,,66,same,6,0.273779233,-0.273779233,cyan,1,-0.273779233,-0.054755847,black,1,-0.273779233,0.054755847,yellow,1,0.273779233,0.16426754,green,1,0.054755847,-0.16426754,orange,1,-0.273779233,-0.16426754,magenta,1,0.05,0.05,0.15,0.273779233,0.16426754,green,k,LM,25,2020-08-30_15h36.38.912,CDT_GNG_IUS12,2020.1.2,MacIntel,60,,k,1,1.489,0,34,34,65,1,,,,,,,,,,,,,,,,,,,,,,,,,,,,,,,,,,,,,,,,,,,,,,,,,
,,,,,,,,,,71,same,6,-0.054755847,-0.16426754,orange,1,0.273779233,0.054755847,green,1,0.16426754,-0.16426754,yellow,1,-0.054755847,0.054755847,blue,1,-0.054755847,-0.273779233,black,1,0.054755847,0.16426754,cyan,1,0.05,0.05,0.15,-0.054755847,0.054755847,blue,k,LM,25,2020-08-30_15h36.38.912,CDT_GNG_IUS12,2020.1.2,MacIntel,60,,k,1,0.983,0,35,35,70,1,,,,,,,,,,,,,,,,,,,,,,,,,,,,,,,,,,,,,,,,,,,,,,,,,
,,,,,,,,,,120,different,6,0.16426754,-0.054755847,blue,1,-0.16426754,-0.273779233,cyan,1,0.16426754,0.16426754,magenta,1,-0.273779233,0.273779233,black,1,0.273779233,-0.16426754,green,1,-0.273779233,-0.16426754,orange,1,0.05,0.05,0.15,0.16426754,0.16426754,yellow,l,LM,25,2020-08-30_15h36.38.912,CDT_GNG_IUS12,2020.1.2,MacIntel,60,,l,1,0.841,0,36,36,119,1,,,,,,,,,,,,,,,,,,,,,,,,,,,,,,,,,,,,,,,,,,,,,,,,,
,,,,,,,,,,100,different,6,0.273779233,0.16426754,blue,1,-0.054755847,0.054755847,magenta,1,-0.273779233,-0.054755847,orange,1,0.273779233,-0.273779233,red,1,0.16426754,0.054755847,green,1,-0.273779233,0.054755847,yellow,1,0.05,0.05,0.15,0.273779233,0.16426754,orange,l,LM,25,2020-08-30_15h36.38.912,CDT_GNG_IUS12,2020.1.2,MacIntel,60,,l,1,1.637,0,37,37,99,1,,,,,,,,,,,,,,,,,,,,,,,,,,,,,,,,,,,,,,,,,,,,,,,,,
,,,,,,,,,,21,same,4,0.273779233,0.273779233,black,1,-0.273779233,-0.273779233,blue,1,0.054755847,-0.16426754,yellow,1,-0.273779233,0.054755847,cyan,1,0.16426754,0.273779233,magenta,0,-0.054755847,-0.054755847,green,0,0.05,0.05,0.15,0.273779233,0.273779233,black,k,LM,25,2020-08-30_15h36.38.912,CDT_GNG_IUS12,2020.1.2,MacIntel,60,,k,1,0.669,0,38,38,20,1,,,,,,,,,,,,,,,,,,,,,,,,,,,,,,,,,,,,,,,,,,,,,,,,,
,,,,,,,,,,9,same,4,-0.16426754,0.054755847,cyan,1,0.16426754,-0.16426754,magenta,1,-0.273779233,-0.054755847,black,1,0.054755847,0.054755847,green,1,-0.273779233,0.16426754,orange,0,0.273779233,-0.273779233,red,0,0.05,0.05,0.15,-0.273779233,-0.054755847,black,k,LM,25,2020-08-30_15h36.38.912,CDT_GNG_IUS12,2020.1.2,MacIntel,60,,l,0,1.55,0,39,39,8,1,,,,,,,,,,,,,,,,,,,,,,,,,,,,,,,,,,,,,,,,,,,,,,,,,
,,,,,,,,,,119,different,6,-0.273779233,0.054755847,cyan,1,-0.273779233,-0.273779233,blue,1,0.16426754,0.054755847,orange,1,0.054755847,-0.16426754,yellow,1,-0.273779233,0.273779233,black,1,-0.054755847,-0.054755847,green,1,0.05,0.05,0.15,-0.273779233,-0.273779233,cyan,l,LM,25,2020-08-30_15h36.38.912,CDT_GNG_IUS12,2020.1.2,MacIntel,60,,l,1,1.406,0,40,40,118,1,,,,,,,,,,,,,,,,,,,,,,,,,,,,,,,,,,,,,,,,,,,,,,,,,
,,,,,,,,,,95,different,6,-0.273779233,-0.16426754,magenta,1,0.16426754,0.273779233,green,1,-0.273779233,0.273779233,black,1,0.16426754,-0.273779233,orange,1,-0.054755847,-0.16426754,blue,1,0.16426754,0.054755847,cyan,1,0.05,0.05,0.15,0.16426754,0.273779233,black,l,LM,25,2020-08-30_15h36.38.912,CDT_GNG_IUS12,2020.1.2,MacIntel,60,,k,0,0.723,0,41,41,94,1,,,,,,,,,,,,,,,,,,,,,,,,,,,,,,,,,,,,,,,,,,,,,,,,,
,,,,,,,,,,43,different,4,-0.16426754,-0.054755847,red,1,0.273779233,0.054755847,cyan,1,-0.16426754,0.054755847,orange,1,0.054755847,-0.054755847,blue,1,-0.054755847,-0.273779233,magenta,0,0.273779233,0.273779233,yellow,0,0.05,0.05,0.15,-0.16426754,-0.054755847,yellow,l,LM,25,2020-08-30_15h36.38.912,CDT_GNG_IUS12,2020.1.2,MacIntel,60,,l,1,0.851,0,42,42,42,1,,,,,,,,,,,,,,,,,,,,,,,,,,,,,,,,,,,,,,,,,,,,,,,,,
,,,,,,,,,,7,same,4,-0.16426754,-0.054755847,yellow,1,0.273779233,0.16426754,magenta,1,-0.16426754,0.054755847,cyan,1,0.054755847,-0.054755847,black,1,-0.054755847,-0.054755847,orange,0,0.273779233,0.273779233,blue,0,0.05,0.05,0.15,0.054755847,-0.054755847,black,k,LM,25,2020-08-30_15h36.38.912,CDT_GNG_IUS12,2020.1.2,MacIntel,60,,k,1,0.792,0,43,43,6,1,,,,,,,,,,,,,,,,,,,,,,,,,,,,,,,,,,,,,,,,,,,,,,,,,
,,,,,,,,,,13,same,4,0.16426754,0.273779233,orange,1,0.054755847,-0.273779233,blue,1,-0.054755847,0.054755847,magenta,1,-0.054755847,-0.16426754,black,1,0.054755847,0.16426754,yellow,0,0.16426754,-0.054755847,cyan,0,0.05,0.05,0.15,0.054755847,-0.273779233,blue,k,LM,25,2020-08-30_15h36.38.912,CDT_GNG_IUS12,2020.1.2,MacIntel,60,,l,0,0.805,0,44,44,12,1,,,,,,,,,,,,,,,,,,,,,,,,,,,,,,,,,,,,,,,,,,,,,,,,,
,,,,,,,,,,117,different,6,-0.054755847,0.054755847,black,1,0.054755847,0.273779233,magenta,1,-0.273779233,-0.273779233,yellow,1,0.054755847,-0.16426754,blue,1,-0.16426754,0.054755847,cyan,1,0.054755847,0.054755847,red,1,0.05,0.05,0.15,-0.16426754,0.054755847,black,l,LM,25,2020-08-30_15h36.38.912,CDT_GNG_IUS12,2020.1.2,MacIntel,60,,l,1,1.008,0,45,45,116,1,,,,,,,,,,,,,,,,,,,,,,,,,,,,,,,,,,,,,,,,,,,,,,,,,
,,,,,,,,,,73,same,6,0.054755847,0.16426754,blue,1,-0.273779233,0.273779233,red,1,-0.273779233,-0.16426754,green,1,0.054755847,-0.054755847,orange,1,0.16426754,0.16426754,black,1,-0.054755847,0.16426754,magenta,1,0.05,0.05,0.15,-0.273779233,0.273779233,red,k,LM,25,2020-08-30_15h36.38.912,CDT_GNG_IUS12,2020.1.2,MacIntel,60,,l,0,0.839,0,46,46,72,1,,,,,,,,,,,,,,,,,,,,,,,,,,,,,,,,,,,,,,,,,,,,,,,,,
,,,,,,,,,,79,same,6,0.054755847,-0.16426754,black,1,-0.054755847,-0.273779233,yellow,1,-0.273779233,0.273779233,red,1,0.054755847,0.054755847,magenta,1,0.16426754,-0.054755847,cyan,1,-0.16426754,-0.054755847,orange,1,0.05,0.05,0.15,0.054755847,0.054755847,magenta,k,LM,25,2020-08-30_15h36.38.912,CDT_GNG_IUS12,2020.1.2,MacIntel,60,,k,1,0.408,0,47,47,78,1,,,,,,,,,,,,,,,,,,,,,,,,,,,,,,,,,,,,,,,,,,,,,,,,,
,,,,,,,,,,15,same,4,0.054755847,-0.273779233,yellow,1,-0.273779233,-0.054755847,cyan,1,0.273779233,0.16426754,green,1,-0.16426754,0.16426754,blue,1,0.273779233,-0.054755847,magenta,0,-0.16426754,-0.054755847,orange,0,0.05,0.05,0.15,-0.273779233,-0.054755847,cyan,k,LM,25,2020-08-30_15h36.38.912,CDT_GNG_IUS12,2020.1.2,MacIntel,60,,k,1,1.139,0,48,48,14,1,,,,,,,,,,,,,,,,,,,,,,,,,,,,,,,,,,,,,,,,,,,,,,,,,
,,,,,,,,,,112,different,6,-0.273779233,-0.16426754,magenta,1,-0.054755847,0.054755847,orange,1,0.054755847,0.273779233,cyan,1,0.16426754,-0.273779233,yellow,1,-0.273779233,-0.273779233,black,1,-0.16426754,0.054755847,red,1,0.05,0.05,0.15,-0.16426754,0.054755847,orange,l,LM,25,2020-08-30_15h36.38.912,CDT_GNG_IUS12,2020.1.2,MacIntel,60,,k,0,1.001,0,49,49,111,1,,,,,,,,,,,,,,,,,,,,,,,,,,,,,,,,,,,,,,,,,,,,,,,,,
,,,,,,,,,,58,different,4,-0.16426754,0.273779233,blue,1,0.16426754,0.273779233,yellow,1,0.273779233,-0.16426754,black,1,-0.16426754,-0.054755847,cyan,1,-0.16426754,0.16426754,green,0,0.16426754,0.054755847,orange,0,0.05,0.05,0.15,0.273779233,-0.16426754,magenta,l,LM,25,2020-08-30_15h36.38.912,CDT_GNG_IUS12,2020.1.2,MacIntel,60,,l,1,0.716,0,50,50,57,1,,,,,,,,,,,,,,,,,,,,,,,,,,,,,,,,,,,,,,,,,,,,,,,,,
,,,,,,,,,,14,same,4,0.16426754,0.16426754,magenta,1,-0.16426754,0.16426754,blue,1,0.16426754,-0.16426754,green,1,-0.16426754,-0.16426754,red,1,0.16426754,0.273779233,cyan,0,-0.16426754,0.273779233,orange,0,0.05,0.05,0.15,-0.16426754,0.16426754,blue,k,LM,25,2020-08-30_15h36.38.912,CDT_GNG_IUS12,2020.1.2,MacIntel,60,,k,1,0.792,0,51,51,13,1,,,,,,,,,,,,,,,,,,,,,,,,,,,,,,,,,,,,,,,,,,,,,,,,,
,,,,,,,,,,10,same,4,0.273779233,0.273779233,green,1,-0.16426754,-0.054755847,yellow,1,-0.16426754,0.16426754,cyan,1,0.273779233,-0.16426754,blue,1,0.273779233,0.054755847,orange,0,-0.273779233,-0.16426754,red,0,0.05,0.05,0.15,0.273779233,0.273779233,green,k,LM,25,2020-08-30_15h36.38.912,CDT_GNG_IUS12,2020.1.2,MacIntel,60,,l,0,0.821,0,52,52,9,1,,,,,,,,,,,,,,,,,,,,,,,,,,,,,,,,,,,,,,,,,,,,,,,,,
,,,,,,,,,,101,different,6,0.273779233,0.273779233,yellow,1,0.054755847,-0.16426754,black,1,-0.054755847,0.054755847,cyan,1,-0.054755847,-0.16426754,magenta,1,0.273779233,0.054755847,green,1,0.16426754,-0.16426754,blue,1,0.05,0.05,0.15,0.273779233,0.273779233,green,l,LM,25,2020-08-30_15h36.38.912,CDT_GNG_IUS12,2020.1.2,MacIntel,60,,k,0,1.215,0,53,53,100,1,,,,,,,,,,,,,,,,,,,,,,,,,,,,,,,,,,,,,,,,,,,,,,,,,
,,,,,,,,,,98,different,6,-0.054755847,-0.16426754,magenta,1,0.273779233,0.273779233,green,1,0.273779233,-0.273779233,red,1,-0.16426754,0.273779233,blue,1,-0.273779233,-0.16426754,cyan,1,0.273779233,0.054755847,black,1,0.05,0.05,0.15,-0.16426754,0.273779233,cyan,l,LM,25,2020-08-30_15h36.38.912,CDT_GNG_IUS12,2020.1.2,MacIntel,60,,k,0,1.284,0,54,54,97,1,,,,,,,,,,,,,,,,,,,,,,,,,,,,,,,,,,,,,,,,,,,,,,,,,
,,,,,,,,,,104,different,6,0.054755847,-0.16426754,magenta,1,0.273779233,0.273779233,yellow,1,-0.273779233,0.273779233,blue,1,-0.16426754,-0.054755847,cyan,1,0.16426754,-0.054755847,orange,1,0.273779233,0.16426754,green,1,0.05,0.05,0.15,0.054755847,-0.16426754,cyan,l,LM,25,2020-08-30_15h36.38.912,CDT_GNG_IUS12,2020.1.2,MacIntel,60,,l,1,0.752,0,55,55,103,1,,,,,,,,,,,,,,,,,,,,,,,,,,,,,,,,,,,,,,,,,,,,,,,,,
,,,,,,,,,,16,same,4,0.16426754,0.16426754,cyan,1,-0.16426754,-0.273779233,red,1,-0.16426754,0.16426754,black,1,0.273779233,-0.054755847,yellow,1,0.273779233,0.273779233,orange,0,-0.054755847,-0.273779233,blue,0,0.05,0.05,0.15,-0.16426754,-0.273779233,red,k,LM,25,2020-08-30_15h36.38.912,CDT_GNG_IUS12,2020.1.2,MacIntel,60,,k,1,0.934,0,56,56,15,1,,,,,,,,,,,,,,,,,,,,,,,,,,,,,,,,,,,,,,,,,,,,,,,,,
,,,,,,,,,,40,different,4,-0.273779233,-0.273779233,magenta,1,0.054755847,-0.16426754,yellow,1,-0.16426754,0.054755847,red,1,0.273779233,0.273779233,orange,1,-0.054755847,-0.054755847,cyan,0,0.16426754,-0.16426754,green,0,0.05,0.05,0.15,0.273779233,0.273779233,black,l,LM,25,2020-08-30_15h36.38.912,CDT_GNG_IUS12,2020.1.2,MacIntel,60,,l,1,1.089,0,57,57,39,1,,,,,,,,,,,,,,,,,,,,,,,,,,,,,,,,,,,,,,,,,,,,,,,,,
,,,,,,,,,,45,different,4,0.054755847,0.16426754,blue,1,-0.054755847,-0.273779233,magenta,1,-0.16426754,0.16426754,black,1,0.054755847,-0.16426754,orange,1,0.273779233,0.273779233,green,0,-0.273779233,-0.16426754,cyan,0,0.05,0.05,0.15,-0.16426754,0.16426754,magenta,l,LM,25,2020-08-30_15h36.38.912,CDT_GNG_IUS12,2020.1.2,MacIntel,60,,l,1,0.908,0,58,58,44,1,,,,,,,,,,,,,,,,,,,,,,,,,,,,,,,,,,,,,,,,,,,,,,,,,
,,,,,,,,,,80,same,6,-0.273779233,0.16426754,orange,1,0.054755847,-0.273779233,yellow,1,0.054755847,0.273779233,green,1,-0.16426754,-0.273779233,red,1,-0.16426754,0.273779233,blue,1,0.273779233,-0.16426754,black,1,0.05,0.05,0.15,0.054755847,-0.273779233,yellow,k,LM,25,2020-08-30_15h36.38.912,CDT_GNG_IUS12,2020.1.2,MacIntel,60,s,l,0,1.266,0,59,59,79,1,9.559,,,,,,,,,,,,,,,,,,,,,,,,,,,,,,,,,,,,,,,,,,,,,,,,
,,,,,,,,,,3,same,4,-0.054755847,-0.054755847,yellow,1,-0.054755847,0.054755847,cyan,1,0.16426754,-0.273779233,black,1,0.273779233,0.273779233,magenta,1,-0.054755847,-0.273779233,orange,0,-0.273779233,0.054755847,green,0,0.05,0.05,0.15,0.273779233,0.273779233,magenta,k,LM,25,2020-08-30_15h36.38.912,CDT_GNG_IUS12,2020.1.2,MacIntel,60,,l,0,0.867,0,60,60,2,1,,,,,,,,,,,,,,,,,,,,,,,,,,,,,,,,,,,,,,,,,,,,,,,,,
,,,,,,,,,,31,different,4,-0.16426754,0.16426754,blue,1,0.16426754,-0.054755847,magenta,1,-0.16426754,-0.054755847,yellow,1,0.054755847,0.273779233,black,1,-0.273779233,0.054755847,red,0,0.273779233,-0.273779233,cyan,0,0.05,0.05,0.15,-0.16426754,-0.054755847,black,l,LM,25,2020-08-30_15h36.38.912,CDT_GNG_IUS12,2020.1.2,MacIntel,60,,l,1,0.718,0,61,61,30,1,,,,,,,,,,,,,,,,,,,,,,,,,,,,,,,,,,,,,,,,,,,,,,,,,
,,,,,,,,,,84,same,6,-0.273779233,-0.16426754,black,1,0.273779233,0.273779233,blue,1,-0.054755847,0.054755847,red,1,0.16426754,-0.054755847,orange,1,-0.16426754,-0.16426754,cyan,1,0.16426754,0.16426754,magenta,1,0.05,0.05,0.15,-0.16426754,-0.16426754,cyan,k,LM,25,2020-08-30_15h36.38.912,CDT_GNG_IUS12,2020.1.2,MacIntel,60,,k,1,1.205,0,62,62,83,1,,,,,,,,,,,,,,,,,,,,,,,,,,,,,,,,,,,,,,,,,,,,,,,,,
,,,,,,,,,,62,same,6,0.054755847,-0.054755847,yellow,1,-0.273779233,-0.16426754,green,1,0.273779233,0.054755847,orange,1,-0.16426754,0.054755847,cyan,1,0.054755847,-0.273779233,red,1,-0.054755847,-0.054755847,blue,1,0.05,0.05,0.15,0.054755847,-0.054755847,yellow,k,LM,25,2020-08-30_15h36.38.912,CDT_GNG_IUS12,2020.1.2,MacIntel,60,,k,1,1.034,0,63,63,61,1,,,,,,,,,,,,,,,,,,,,,,,,,,,,,,,,,,,,,,,,,,,,,,,,,
,,,,,,,,,,32,different,4,-0.054755847,-0.273779233,green,1,-0.273779233,0.16426754,black,1,0.16426754,0.16426754,cyan,1,0.273779233,-0.16426754,yellow,1,-0.054755847,-0.054755847,blue,0,-0.054755847,0.273779233,orange,0,0.05,0.05,0.15,-0.054755847,-0.273779233,red,l,LM,25,2020-08-30_15h36.38.912,CDT_GNG_IUS12,2020.1.2,MacIntel,60,,l,1,0.923,0,64,64,31,1,,,,,,,,,,,,,,,,,,,,,,,,,,,,,,,,,,,,,,,,,,,,,,,,,
,,,,,,,,,,53,different,4,-0.16426754,0.054755847,green,1,0.273779233,0.054755847,cyan,1,-0.273779233,-0.273779233,magenta,1,0.054755847,-0.16426754,black,1,-0.054755847,0.16426754,red,0,0.273779233,0.273779233,blue,0,0.05,0.05,0.15,-0.273779233,-0.273779233,black,l,LM,25,2020-08-30_15h36.38.912,CDT_GNG_IUS12,2020.1.2,MacIntel,60,,l,1,0.639,0,65,65,52,1,,,,,,,,,,,,,,,,,,,,,,,,,,,,,,,,,,,,,,,,,,,,,,,,,
,,,,,,,,,,35,different,4,-0.054755847,-0.054755847,black,1,0.054755847,0.273779233,magenta,1,-0.273779233,0.054755847,blue,1,0.273779233,-0.054755847,red,1,-0.054755847,-0.16426754,cyan,0,0.054755847,0.054755847,yellow,0,0.05,0.05,0.15,0.054755847,0.273779233,cyan,l,LM,25,2020-08-30_15h36.38.912,CDT_GNG_IUS12,2020.1.2,MacIntel,60,,l,1,0.871,0,66,66,34,1,,,,,,,,,,,,,,,,,,,,,,,,,,,,,,,,,,,,,,,,,,,,,,,,,
,,,,,,,,,,86,same,6,0.054755847,0.273779233,green,1,-0.054755847,0.273779233,red,1,0.16426754,-0.16426754,yellow,1,-0.054755847,-0.273779233,black,1,0.273779233,0.273779233,cyan,1,-0.273779233,0.054755847,orange,1,0.05,0.05,0.15,-0.273779233,0.054755847,orange,k,LM,25,2020-08-30_15h36.38.912,CDT_GNG_IUS12,2020.1.2,MacIntel,60,,k,1,0.874,0,67,67,85,1,,,,,,,,,,,,,,,,,,,,,,,,,,,,,,,,,,,,,,,,,,,,,,,,,
,,,,,,,,,,57,different,4,-0.273779233,-0.054755847,yellow,1,0.16426754,-0.054755847,green,1,-0.273779233,0.16426754,red,1,0.273779233,0.054755847,black,1,-0.16426754,-0.054755847,orange,0,0.054755847,-0.16426754,magenta,0,0.05,0.05,0.15,0.16426754,-0.054755847,orange,l,LM,25,2020-08-30_15h36.38.912,CDT_GNG_IUS12,2020.1.2,MacIntel,60,,k,0,0.634,0,68,68,56,1,,,,,,,,,,,,,,,,,,,,,,,,,,,,,,,,,,,,,,,,,,,,,,,,,
,,,,,,,,,,11,same,4,0.273779233,0.16426754,black,1,-0.054755847,0.273779233,cyan,1,0.16426754,-0.054755847,blue,1,-0.273779233,-0.16426754,orange,1,0.054755847,0.273779233,magenta,0,-0.273779233,0.054755847,green,0,0.05,0.05,0.15,0.273779233,0.16426754,black,k,LM,25,2020-08-30_15h36.38.912,CDT_GNG_IUS12,2020.1.2,MacIntel,60,,k,1,1.083,0,69,69,10,1,,,,,,,,,,,,,,,,,,,,,,,,,,,,,,,,,,,,,,,,,,,,,,,,,
,,,,,,,,,,72,same,6,0.273779233,-0.16426754,blue,1,0.16426754,0.273779233,yellow,1,-0.16426754,0.273779233,magenta,1,-0.273779233,-0.054755847,orange,1,0.054755847,-0.16426754,cyan,1,0.273779233,0.054755847,black,1,0.05,0.05,0.15,-0.16426754,0.273779233,magenta,k,LM,25,2020-08-30_15h36.38.912,CDT_GNG_IUS12,2020.1.2,MacIntel,60,,k,1,1.221,0,70,70,71,1,,,,,,,,,,,,,,,,,,,,,,,,,,,,,,,,,,,,,,,,,,,,,,,,,
,,,,,,,,,,34,different,4,0.16426754,0.16426754,yellow,1,0.273779233,-0.16426754,cyan,1,-0.273779233,-0.273779233,magenta,1,-0.273779233,0.16426754,green,1,0.054755847,0.054755847,black,0,0.273779233,-0.273779233,orange,0,0.05,0.05,0.15,0.16426754,0.16426754,cyan,l,LM,25,2020-08-30_15h36.38.912,CDT_GNG_IUS12,2020.1.2,MacIntel,60,,l,1,0.718,0,71,71,33,1,,,,,,,,,,,,,,,,,,,,,,,,,,,,,,,,,,,,,,,,,,,,,,,,,
,,,,,,,,,,61,same,6,0.273779233,0.16426754,cyan,1,0.273779233,-0.273779233,blue,1,-0.16426754,-0.16426754,green,1,-0.16426754,0.273779233,black,1,0.16426754,0.054755847,red,1,0.273779233,-0.16426754,yellow,1,0.05,0.05,0.15,0.273779233,-0.16426754,yellow,k,LM,25,2020-08-30_15h36.38.912,CDT_GNG_IUS12,2020.1.2,MacIntel,60,,k,1,2.483,0,72,72,60,1,,,,,,,,,,,,,,,,,,,,,,,,,,,,,,,,,,,,,,,,,,,,,,,,,
,,,,,,,,,,64,same,6,0.16426754,0.273779233,black,1,-0.16426754,-0.16426754,orange,1,0.16426754,-0.16426754,red,1,-0.273779233,0.054755847,magenta,1,0.054755847,0.16426754,cyan,1,-0.054755847,-0.16426754,yellow,1,0.05,0.05,0.15,0.16426754,0.273779233,black,k,LM,25,2020-08-30_15h36.38.912,CDT_GNG_IUS12,2020.1.2,MacIntel,60,,k,1,1.302,0,73,73,63,1,,,,,,,,,,,,,,,,,,,,,,,,,,,,,,,,,,,,,,,,,,,,,,,,,
,,,,,,,,,,50,different,4,-0.16426754,0.054755847,black,1,-0.273779233,-0.16426754,magenta,1,0.054755847,0.054755847,cyan,1,0.273779233,-0.16426754,green,1,-0.273779233,0.273779233,yellow,0,-0.16426754,-0.054755847,orange,0,0.05,0.05,0.15,-0.273779233,-0.16426754,yellow,l,LM,25,2020-08-30_15h36.38.912,CDT_GNG_IUS12,2020.1.2,MacIntel,60,,l,1,0.789,0,74,74,49,1,,,,,,,,,,,,,,,,,,,,,,,,,,,,,,,,,,,,,,,,,,,,,,,,,
,,,,,,,,,,87,same,6,0.273779233,0.16426754,green,1,-0.16426754,-0.054755847,black,1,-0.054755847,0.054755847,cyan,1,0.273779233,-0.054755847,blue,1,0.054755847,0.054755847,yellow,1,-0.273779233,-0.273779233,red,1,0.05,0.05,0.15,-0.273779233,-0.273779233,red,k,LM,25,2020-08-30_15h36.38.912,CDT_GNG_IUS12,2020.1.2,MacIntel,60,,l,0,0.869,0,75,75,86,1,,,,,,,,,,,,,,,,,,,,,,,,,,,,,,,,,,,,,,,,,,,,,,,,,
,,,,,,,,,,68,same,6,0.16426754,-0.054755847,blue,1,-0.054755847,-0.16426754,orange,1,-0.16426754,0.054755847,red,1,0.16426754,0.273779233,magenta,1,0.054755847,-0.054755847,black,1,-0.273779233,-0.273779233,yellow,1,0.05,0.05,0.15,-0.054755847,-0.16426754,orange,k,LM,25,2020-08-30_15h36.38.912,CDT_GNG_IUS12,2020.1.2,MacIntel,60,,k,1,0.916,0,76,76,67,1,,,,,,,,,,,,,,,,,,,,,,,,,,,,,,,,,,,,,,,,,,,,,,,,,
,,,,,,,,,,6,same,4,0.273779233,0.273779233,blue,1,-0.273779233,-0.16426754,magenta,1,-0.054755847,0.054755847,green,1,0.054755847,-0.054755847,black,1,0.054755847,0.054755847,orange,0,-0.054755847,-0.054755847,red,0,0.05,0.05,0.15,-0.054755847,0.054755847,green,k,LM,25,2020-08-30_15h36.38.912,CDT_GNG_IUS12,2020.1.2,MacIntel,60,,k,1,0.79,0,77,77,5,1,,,,,,,,,,,,,,,,,,,,,,,,,,,,,,,,,,,,,,,,,,,,,,,,,
,,,,,,,,,,116,different,6,-0.273779233,0.16426754,green,1,-0.054755847,-0.054755847,orange,1,0.273779233,-0.273779233,cyan,1,0.054755847,0.273779233,red,1,-0.054755847,0.16426754,blue,1,-0.16426754,-0.054755847,yellow,1,0.05,0.05,0.15,-0.054755847,-0.054755847,magenta,l,LM,25,2020-08-30_15h36.38.912,CDT_GNG_IUS12,2020.1.2,MacIntel,60,,l,1,0.918,0,78,78,115,1,,,,,,,,,,,,,,,,,,,,,,,,,,,,,,,,,,,,,,,,,,,,,,,,,
,,,,,,,,,,88,same,6,0.054755847,0.054755847,orange,1,0.054755847,-0.273779233,red,1,-0.16426754,-0.16426754,magenta,1,-0.16426754,0.273779233,yellow,1,0.16426754,0.16426754,blue,1,0.273779233,-0.16426754,cyan,1,0.05,0.05,0.15,-0.16426754,0.273779233,yellow,k,LM,25,2020-08-30_15h36.38.912,CDT_GNG_IUS12,2020.1.2,MacIntel,60,,l,0,2.107,0,79,79,87,1,,,,,,,,,,,,,,,,,,,,,,,,,,,,,,,,,,,,,,,,,,,,,,,,,
,,,,,,,,,,107,different,6,0.273779233,0.16426754,cyan,1,-0.16426754,-0.273779233,magenta,1,-0.054755847,0.054755847,black,1,0.16426754,-0.054755847,blue,1,0.16426754,0.054755847,green,1,-0.273779233,-0.16426754,yellow,1,0.05,0.05,0.15,0.16426754,0.054755847,blue,l,LM,25,2020-08-30_15h36.38.912,CDT_GNG_IUS12,2020.1.2,MacIntel,60,,l,1,0.942,0,80,80,106,1,,,,,,,,,,,,,,,,,,,,,,,,,,,,,,,,,,,,,,,,,,,,,,,,,
,,,,,,,,,,91,different,6,-0.054755847,0.054755847,green,1,0.054755847,-0.16426754,cyan,1,-0.054755847,-0.054755847,black,1,0.16426754,0.273779233,yellow,1,-0.273779233,0.273779233,magenta,1,0.16426754,-0.054755847,red,1,0.05,0.05,0.15,0.16426754,-0.054755847,green,l,LM,25,2020-08-30_15h36.38.912,CDT_GNG_IUS12,2020.1.2,MacIntel,60,,l,1,0.907,0,81,81,90,1,,,,,,,,,,,,,,,,,,,,,,,,,,,,,,,,,,,,,,,,,,,,,,,,,
,,,,,,,,,,46,different,4,-0.16426754,0.273779233,yellow,1,-0.16426754,-0.16426754,green,1,0.16426754,0.054755847,black,1,0.273779233,-0.054755847,red,1,-0.16426754,0.16426754,blue,0,-0.273779233,-0.054755847,cyan,0,0.05,0.05,0.15,0.16426754,0.054755847,cyan,l,LM,25,2020-08-30_15h36.38.912,CDT_GNG_IUS12,2020.1.2,MacIntel,60,,l,1,0.767,0,82,82,45,1,,,,,,,,,,,,,,,,,,,,,,,,,,,,,,,,,,,,,,,,,,,,,,,,,
,,,,,,,,,,26,same,4,0.16426754,-0.16426754,green,1,-0.054755847,0.16426754,yellow,1,-0.273779233,-0.16426754,black,1,0.054755847,0.054755847,red,1,0.16426754,-0.054755847,cyan,0,-0.273779233,0.273779233,magenta,0,0.05,0.05,0.15,-0.054755847,0.16426754,yellow,k,LM,25,2020-08-30_15h36.38.912,CDT_GNG_IUS12,2020.1.2,MacIntel,60,,k,1,1.008,0,83,83,25,1,,,,,,,,,,,,,,,,,,,,,,,,,,,,,,,,,,,,,,,,,,,,,,,,,
,,,,,,,,,,78,same,6,0.054755847,0.054755847,black,1,-0.054755847,0.16426754,red,1,0.273779233,-0.273779233,blue,1,-0.054755847,-0.054755847,magenta,1,0.16426754,0.054755847,yellow,1,-0.273779233,0.16426754,cyan,1,0.05,0.05,0.15,-0.054755847,0.16426754,red,k,LM,25,2020-08-30_15h36.38.912,CDT_GNG_IUS12,2020.1.2,MacIntel,60,,l,0,1.304,0,84,84,77,1,,,,,,,,,,,,,,,,,,,,,,,,,,,,,,,,,,,,,,,,,,,,,,,,,
,,,,,,,,,,2,same,4,0.273779233,0.054755847,magenta,1,-0.273779233,0.273779233,red,1,-0.054755847,-0.054755847,yellow,1,0.273779233,-0.273779233,blue,1,0.054755847,0.16426754,green,0,-0.16426754,0.054755847,cyan,0,0.05,0.05,0.15,0.273779233,-0.273779233,blue,k,LM,25,2020-08-30_15h36.38.912,CDT_GNG_IUS12,2020.1.2,MacIntel,60,,k,1,1.225,0,85,85,1,1,,,,,,,,,,,,,,,,,,,,,,,,,,,,,,,,,,,,,,,,,,,,,,,,,
,,,,,,,,,,18,same,4,-0.054755847,0.273779233,black,1,-0.16426754,-0.16426754,cyan,1,0.054755847,0.16426754,red,1,0.273779233,-0.273779233,magenta,1,-0.16426754,0.273779233,orange,0,-0.054755847,-0.273779233,green,0,0.05,0.05,0.15,0.273779233,-0.273779233,magenta,k,LM,25,2020-08-30_15h36.38.912,CDT_GNG_IUS12,2020.1.2,MacIntel,60,,l,0,2.185,0,86,86,17,1,,,,,,,,,,,,,,,,,,,,,,,,,,,,,,,,,,,,,,,,,,,,,,,,,
,,,,,,,,,,59,different,4,0.16426754,-0.16426754,red,1,-0.054755847,-0.16426754,cyan,1,0.054755847,0.16426754,yellow,1,-0.16426754,0.273779233,green,1,0.16426754,-0.054755847,orange,0,-0.16426754,-0.054755847,black,0,0.05,0.05,0.15,-0.16426754,0.273779233,black,l,LM,25,2020-08-30_15h36.38.912,CDT_GNG_IUS12,2020.1.2,MacIntel,60,,k,0,2.049,0,87,87,58,1,,,,,,,,,,,,,,,,,,,,,,,,,,,,,,,,,,,,,,,,,,,,,,,,,
,,,,,,,,,,105,different,6,0.054755847,0.273779233,cyan,1,0.273779233,-0.16426754,magenta,1,-0.16426754,-0.054755847,yellow,1,-0.16426754,0.16426754,blue,1,0.273779233,0.16426754,orange,1,0.16426754,-0.273779233,green,1,0.05,0.05,0.15,0.16426754,-0.273779233,blue,l,LM,25,2020-08-30_15h36.38.912,CDT_GNG_IUS12,2020.1.2,MacIntel,60,,l,1,0.853,0,88,88,104,1,,,,,,,,,,,,,,,,,,,,,,,,,,,,,,,,,,,,,,,,,,,,,,,,,
,,,,,,,,,,48,different,4,0.16426754,0.273779233,cyan,1,-0.054755847,-0.273779233,magenta,1,0.16426754,-0.054755847,orange,1,-0.273779233,0.273779233,blue,1,0.273779233,0.16426754,red,0,-0.054755847,-0.16426754,green,0,0.05,0.05,0.15,0.16426754,-0.054755847,red,l,LM,25,2020-08-30_15h36.38.912,CDT_GNG_IUS12,2020.1.2,MacIntel,60,,l,1,0.7,0,89,89,47,1,,,,,,,,,,,,,,,,,,,,,,,,,,,,,,,,,,,,,,,,,,,,,,,,,
,,,,,,,,,,82,same,6,-0.054755847,-0.16426754,red,1,0.273779233,-0.054755847,cyan,1,0.16426754,0.273779233,blue,1,-0.054755847,0.054755847,black,1,-0.16426754,-0.16426754,yellow,1,0.273779233,-0.16426754,green,1,0.05,0.05,0.15,-0.16426754,-0.16426754,yellow,k,LM,25,2020-08-30_15h36.38.912,CDT_GNG_IUS12,2020.1.2,MacIntel,60,,l,0,1.275,0,90,90,81,1,,,,,,,,,,,,,,,,,,,,,,,,,,,,,,,,,,,,,,,,,,,,,,,,,
,,,,,,,,,,90,same,6,0.16426754,-0.054755847,black,1,-0.273779233,-0.054755847,orange,1,-0.16426754,0.16426754,cyan,1,0.273779233,0.273779233,blue,1,0.054755847,-0.054755847,magenta,1,-0.273779233,-0.273779233,yellow,1,0.05,0.05,0.15,-0.273779233,-0.054755847,orange,k,LM,25,2020-08-30_15h36.38.912,CDT_GNG_IUS12,2020.1.2,MacIntel,60,,k,1,0.901,0,91,91,89,1,,,,,,,,,,,,,,,,,,,,,,,,,,,,,,,,,,,,,,,,,,,,,,,,,
,,,,,,,,,,28,same,4,0.16426754,-0.273779233,yellow,1,-0.054755847,0.16426754,black,1,0.16426754,0.054755847,cyan,1,-0.273779233,-0.16426754,blue,1,0.273779233,-0.273779233,orange,0,-0.054755847,0.054755847,magenta,0,0.05,0.05,0.15,-0.054755847,0.16426754,black,k,LM,25,2020-08-30_15h36.38.912,CDT_GNG_IUS12,2020.1.2,MacIntel,60,,k,1,0.74,0,92,92,27,1,,,,,,,,,,,,,,,,,,,,,,,,,,,,,,,,,,,,,,,,,,,,,,,,,
,,,,,,,,,,42,different,4,0.273779233,0.16426754,cyan,1,-0.054755847,0.16426754,magenta,1,0.16426754,-0.054755847,green,1,-0.16426754,-0.16426754,red,1,0.16426754,0.273779233,black,0,-0.054755847,0.273779233,yellow,0,0.05,0.05,0.15,0.273779233,0.16426754,blue,l,LM,25,2020-08-30_15h36.38.912,CDT_GNG_IUS12,2020.1.2,MacIntel,60,,l,1,0.939,0,93,93,41,1,,,,,,,,,,,,,,,,,,,,,,,,,,,,,,,,,,,,,,,,,,,,,,,,,
,,,,,,,,,,65,same,6,-0.273779233,-0.16426754,cyan,1,-0.054755847,0.054755847,blue,1,0.054755847,-0.054755847,red,1,0.273779233,0.054755847,green,1,-0.16426754,-0.054755847,orange,1,-0.273779233,0.273779233,yellow,1,0.05,0.05,0.15,-0.273779233,-0.16426754,cyan,k,LM,25,2020-08-30_15h36.38.912,CDT_GNG_IUS12,2020.1.2,MacIntel,60,,l,0,1.284,0,94,94,64,1,,,,,,,,,,,,,,,,,,,,,,,,,,,,,,,,,,,,,,,,,,,,,,,,,
,,,,,,,,,,56,different,4,0.16426754,0.054755847,red,1,-0.054755847,0.16426754,orange,1,0.16426754,-0.16426754,black,1,-0.273779233,-0.054755847,yellow,1,0.16426754,0.273779233,blue,0,-0.054755847,0.273779233,magenta,0,0.05,0.05,0.15,-0.273779233,-0.054755847,green,l,LM,25,2020-08-30_15h36.38.912,CDT_GNG_IUS12,2020.1.2,MacIntel,60,,l,1,0.755,0,95,95,55,1,,,,,,,,,,,,,,,,,,,,,,,,,,,,,,,,,,,,,,,,,,,,,,,,,
,,,,,,,,,,115,different,6,-0.16426754,0.273779233,magenta,1,-0.273779233,-0.054755847,blue,1,0.273779233,0.273779233,red,1,0.054755847,-0.273779233,cyan,1,-0.054755847,0.16426754,green,1,-0.273779233,-0.273779233,yellow,1,0.05,0.05,0.15,-0.273779233,-0.054755847,yellow,l,LM,25,2020-08-30_15h36.38.912,CDT_GNG_IUS12,2020.1.2,MacIntel,60,,l,1,0.821,0,96,96,114,1,,,,,,,,,,,,,,,,,,,,,,,,,,,,,,,,,,,,,,,,,,,,,,,,,
,,,,,,,,,,89,same,6,-0.054755847,-0.273779233,cyan,1,-0.16426754,0.16426754,green,1,0.273779233,0.273779233,black,1,0.273779233,-0.273779233,orange,1,-0.273779233,-0.16426754,magenta,1,-0.16426754,0.273779233,yellow,1,0.05,0.05,0.15,-0.16426754,0.273779233,yellow,k,LM,25,2020-08-30_15h36.38.912,CDT_GNG_IUS12,2020.1.2,MacIntel,60,,l,0,1.135,0,97,97,88,1,,,,,,,,,,,,,,,,,,,,,,,,,,,,,,,,,,,,,,,,,,,,,,,,,
,,,,,,,,,,1,same,4,-0.16426754,-0.273779233,orange,1,0.054755847,0.16426754,yellow,1,-0.16426754,0.16426754,green,1,0.054755847,-0.054755847,red,1,-0.273779233,-0.16426754,cyan,0,0.16426754,0.16426754,blue,0,0.05,0.05,0.15,0.054755847,0.16426754,yellow,k,LM,25,2020-08-30_15h36.38.912,CDT_GNG_IUS12,2020.1.2,MacIntel,60,,k,1,0.722,0,98,98,0,1,,,,,,,,,,,,,,,,,,,,,,,,,,,,,,,,,,,,,,,,,,,,,,,,,
,,,,,,,,,,29,same,4,0.273779233,0.054755847,magenta,1,-0.054755847,0.273779233,cyan,1,0.16426754,-0.054755847,green,1,-0.16426754,-0.054755847,black,1,0.273779233,0.16426754,orange,0,-0.16426754,0.054755847,blue,0,0.05,0.05,0.15,0.16426754,-0.054755847,green,k,LM,25,2020-08-30_15h36.38.912,CDT_GNG_IUS12,2020.1.2,MacIntel,60,,k,1,0.672,0,99,99,28,1,,,,,,,,,,,,,,,,,,,,,,,,,,,,,,,,,,,,,,,,,,,,,,,,,
,,,,,,,,,,54,different,4,-0.054755847,-0.054755847,black,1,0.054755847,0.054755847,cyan,1,0.273779233,-0.16426754,green,1,-0.273779233,0.16426754,magenta,1,-0.054755847,-0.16426754,orange,0,0.054755847,0.16426754,blue,0,0.05,0.05,0.15,-0.273779233,0.16426754,orange,l,LM,25,2020-08-30_15h36.38.912,CDT_GNG_IUS12,2020.1.2,MacIntel,60,,l,1,0.918,0,100,100,53,1,,,,,,,,,,,,,,,,,,,,,,,,,,,,,,,,,,,,,,,,,,,,,,,,,
,,,,,,,,,,96,different,6,-0.16426754,-0.16426754,green,1,-0.16426754,0.054755847,black,1,0.054755847,0.16426754,cyan,1,0.16426754,-0.273779233,yellow,1,-0.273779233,-0.273779233,blue,1,-0.054755847,0.054755847,red,1,0.05,0.05,0.15,-0.16426754,0.054755847,magenta,l,LM,25,2020-08-30_15h36.38.912,CDT_GNG_IUS12,2020.1.2,MacIntel,60,,l,1,1.025,0,101,101,95,1,,,,,,,,,,,,,,,,,,,,,,,,,,,,,,,,,,,,,,,,,,,,,,,,,
,,,,,,,,,,49,different,4,-0.16426754,-0.273779233,black,1,0.16426754,0.16426754,red,1,-0.273779233,0.16426754,yellow,1,0.054755847,-0.273779233,green,1,-0.273779233,-0.273779233,magenta,0,0.054755847,0.273779233,blue,0,0.05,0.05,0.15,0.054755847,-0.273779233,orange,l,LM,25,2020-08-30_15h36.38.912,CDT_GNG_IUS12,2020.1.2,MacIntel,60,,l,1,1.634,0,102,102,48,1,,,,,,,,,,,,,,,,,,,,,,,,,,,,,,,,,,,,,,,,,,,,,,,,,
,,,,,,,,,,37,different,4,0.273779233,-0.273779233,cyan,1,-0.054755847,0.054755847,orange,1,-0.054755847,-0.16426754,yellow,1,0.16426754,0.054755847,blue,1,0.054755847,-0.273779233,red,0,-0.273779233,0.16426754,green,0,0.05,0.05,0.15,-0.054755847,0.054755847,green,l,LM,25,2020-08-30_15h36.38.912,CDT_GNG_IUS12,2020.1.2,MacIntel,60,,l,1,0.783,0,103,103,36,1,,,,,,,,,,,,,,,,,,,,,,,,,,,,,,,,,,,,,,,,,,,,,,,,,
,,,,,,,,,,8,same,4,0.16426754,-0.16426754,blue,1,-0.16426754,-0.054755847,red,1,-0.273779233,0.16426754,green,1,0.054755847,0.054755847,cyan,1,0.16426754,-0.273779233,magenta,0,-0.054755847,-0.054755847,orange,0,0.05,0.05,0.15,-0.273779233,0.16426754,green,k,LM,25,2020-08-30_15h36.38.912,CDT_GNG_IUS12,2020.1.2,MacIntel,60,,k,1,1.154,0,104,104,7,1,,,,,,,,,,,,,,,,,,,,,,,,,,,,,,,,,,,,,,,,,,,,,,,,,
,,,,,,,,,,63,same,6,-0.273779233,0.273779233,red,1,-0.273779233,-0.16426754,orange,1,0.054755847,-0.273779233,black,1,0.16426754,0.16426754,cyan,1,-0.054755847,0.054755847,blue,1,-0.273779233,-0.054755847,magenta,1,0.05,0.05,0.15,-0.273779233,-0.054755847,magenta,k,LM,25,2020-08-30_15h36.38.912,CDT_GNG_IUS12,2020.1.2,MacIntel,60,,k,1,1.317,0,105,105,62,1,,,,,,,,,,,,,,,,,,,,,,,,,,,,,,,,,,,,,,,,,,,,,,,,,
,,,,,,,,,,109,different,6,-0.273779233,-0.16426754,blue,1,0.054755847,-0.16426754,black,1,-0.054755847,0.054755847,cyan,1,0.054755847,0.16426754,green,1,-0.054755847,-0.054755847,yellow,1,0.16426754,-0.273779233,orange,1,0.05,0.05,0.15,-0.273779233,-0.16426754,green,l,LM,25,2020-08-30_15h36.38.912,CDT_GNG_IUS12,2020.1.2,MacIntel,60,,l,1,1.707,0,106,106,108,1,,,,,,,,,,,,,,,,,,,,,,,,,,,,,,,,,,,,,,,,,,,,,,,,,
,,,,,,,,,,118,different,6,-0.16426754,-0.16426754,red,1,0.273779233,0.16426754,orange,1,-0.16426754,0.273779233,cyan,1,0.16426754,-0.273779233,black,1,-0.054755847,-0.054755847,yellow,1,0.054755847,0.054755847,green,1,0.05,0.05,0.15,-0.054755847,-0.054755847,magenta,l,LM,25,2020-08-30_15h36.38.912,CDT_GNG_IUS12,2020.1.2,MacIntel,60,,l,1,0.891,0,107,107,117,1,,,,,,,,,,,,,,,,,,,,,,,,,,,,,,,,,,,,,,,,,,,,,,,,,
,,,,,,,,,,38,different,4,0.273779233,-0.16426754,red,1,-0.054755847,0.16426754,blue,1,-0.273779233,-0.054755847,green,1,0.273779233,0.054755847,cyan,1,0.16426754,-0.054755847,orange,0,-0.054755847,0.054755847,yellow,0,0.05,0.05,0.15,0.273779233,0.054755847,black,l,LM,25,2020-08-30_15h36.38.912,CDT_GNG_IUS12,2020.1.2,MacIntel,60,,l,1,0.885,0,108,108,37,1,,,,,,,,,,,,,,,,,,,,,,,,,,,,,,,,,,,,,,,,,,,,,,,,,
,,,,,,,,,,108,different,6,-0.273779233,-0.054755847,magenta,1,0.054755847,0.16426754,red,1,-0.16426754,0.054755847,cyan,1,0.054755847,-0.273779233,green,1,-0.273779233,-0.16426754,orange,1,0.273779233,0.273779233,black,1,0.05,0.05,0.15,-0.273779233,-0.054755847,blue,l,LM,25,2020-08-30_15h36.38.912,CDT_GNG_IUS12,2020.1.2,MacIntel,60,,l,1,1.167,0,109,109,107,1,,,,,,,,,,,,,,,,,,,,,,,,,,,,,,,,,,,,,,,,,,,,,,,,,
,,,,,,,,,,44,different,4,0.16426754,0.16426754,green,1,0.16426754,-0.16426754,black,1,-0.16426754,-0.054755847,cyan,1,-0.16426754,0.054755847,magenta,1,0.16426754,0.054755847,blue,0,0.054755847,-0.273779233,yellow,0,0.05,0.05,0.15,0.16426754,0.16426754,red,l,LM,25,2020-08-30_15h36.38.912,CDT_GNG_IUS12,2020.1.2,MacIntel,60,,l,1,0.568,0,110,110,43,1,,,,,,,,,,,,,,,,,,,,,,,,,,,,,,,,,,,,,,,,,,,,,,,,,
,,,,,,,,,,81,same,6,-0.273779233,-0.273779233,green,1,-0.273779233,0.16426754,blue,1,0.054755847,-0.16426754,black,1,0.273779233,0.054755847,cyan,1,-0.16426754,-0.273779233,orange,1,-0.054755847,0.054755847,red,1,0.05,0.05,0.15,0.054755847,-0.16426754,black,k,LM,25,2020-08-30_15h36.38.912,CDT_GNG_IUS12,2020.1.2,MacIntel,60,,k,1,0.853,0,111,111,80,1,,,,,,,,,,,,,,,,,,,,,,,,,,,,,,,,,,,,,,,,,,,,,,,,,
,,,,,,,,,,47,different,4,-0.16426754,-0.054755847,orange,1,0.273779233,0.054755847,black,1,-0.16426754,0.16426754,red,1,0.273779233,-0.16426754,blue,1,-0.054755847,-0.273779233,green,0,0.16426754,0.16426754,yellow,0,0.05,0.05,0.15,0.273779233,0.054755847,red,l,LM,25,2020-08-30_15h36.38.912,CDT_GNG_IUS12,2020.1.2,MacIntel,60,,l,1,0.899,0,112,112,46,1,,,,,,,,,,,,,,,,,,,,,,,,,,,,,,,,,,,,,,,,,,,,,,,,,
,,,,,,,,,,113,different,6,-0.273779233,0.054755847,black,1,-0.16426754,-0.16426754,blue,1,0.054755847,-0.16426754,orange,1,0.16426754,0.16426754,red,1,-0.273779233,0.273779233,green,1,-0.273779233,-0.16426754,magenta,1,0.05,0.05,0.15,-0.273779233,-0.16426754,black,l,LM,25,2020-08-30_15h36.38.912,CDT_GNG_IUS12,2020.1.2,MacIntel,60,,l,1,1.441,0,113,113,112,1,,,,,,,,,,,,,,,,,,,,,,,,,,,,,,,,,,,,,,,,,,,,,,,,,
,,,,,,,,,,97,different,6,-0.273779233,-0.273779233,orange,1,0.054755847,-0.273779233,blue,1,0.16426754,0.16426754,green,1,-0.16426754,0.054755847,cyan,1,-0.16426754,-0.16426754,black,1,0.273779233,-0.16426754,yellow,1,0.05,0.05,0.15,-0.16426754,0.054755847,yellow,l,LM,25,2020-08-30_15h36.38.912,CDT_GNG_IUS12,2020.1.2,MacIntel,60,,l,1,0.754,0,114,114,96,1,,,,,,,,,,,,,,,,,,,,,,,,,,,,,,,,,,,,,,,,,,,,,,,,,
,,,,,,,,,,24,same,4,0.054755847,-0.16426754,red,1,0.054755847,0.054755847,yellow,1,-0.273779233,0.16426754,orange,1,-0.273779233,-0.16426754,magenta,1,0.273779233,-0.16426754,black,0,0.273779233,0.273779233,green,0,0.05,0.05,0.15,0.054755847,-0.16426754,red,k,LM,25,2020-08-30_15h36.38.912,CDT_GNG_IUS12,2020.1.2,MacIntel,60,,k,1,1.567,0,115,115,23,1,,,,,,,,,,,,,,,,,,,,,,,,,,,,,,,,,,,,,,,,,,,,,,,,,
,,,,,,,,,,94,different,6,0.273779233,-0.273779233,green,1,-0.16426754,-0.054755847,black,1,-0.273779233,0.16426754,blue,1,0.273779233,0.054755847,cyan,1,0.16426754,-0.16426754,magenta,1,-0.054755847,-0.054755847,orange,1,0.05,0.05,0.15,0.273779233,-0.273779233,magenta,l,LM,25,2020-08-30_15h36.38.912,CDT_GNG_IUS12,2020.1.2,MacIntel,60,,l,1,1.517,0,116,116,93,1,,,,,,,,,,,,,,,,,,,,,,,,,,,,,,,,,,,,,,,,,,,,,,,,,
,,,,,,,,,,99,different,6,0.054755847,0.16426754,orange,1,0.16426754,-0.16426754,yellow,1,-0.16426754,0.273779233,red,1,-0.273779233,-0.054755847,magenta,1,0.16426754,0.054755847,black,1,0.054755847,-0.054755847,green,1,0.05,0.05,0.15,-0.16426754,0.273779233,blue,l,LM,25,2020-08-30_15h36.38.912,CDT_GNG_IUS12,2020.1.2,MacIntel,60,,l,1,1.857,0,117,117,98,1,,,,,,,,,,,,,,,,,,,,,,,,,,,,,,,,,,,,,,,,,,,,,,,,,
,,,,,,,,,,52,different,4,-0.273779233,-0.16426754,magenta,1,-0.273779233,0.054755847,green,1,0.273779233,-0.054755847,cyan,1,0.273779233,0.054755847,black,1,-0.16426754,-0.16426754,orange,0,-0.054755847,0.054755847,red,0,0.05,0.05,0.15,-0.273779233,-0.16426754,black,l,LM,25,2020-08-30_15h36.38.912,CDT_GNG_IUS12,2020.1.2,MacIntel,60,,l,1,0.819,0,118,118,51,1,,,,,,,,,,,,,,,,,,,,,,,,,,,,,,,,,,,,,,,,,,,,,,,,,
,,,,,,,,,,114,different,6,-0.16426754,0.16426754,black,1,-0.054755847,-0.273779233,orange,1,0.054755847,0.16426754,magenta,1,0.273779233,-0.16426754,green,1,-0.054755847,0.16426754,cyan,1,-0.273779233,-0.273779233,yellow,1,0.05,0.05,0.15,0.054755847,0.16426754,blue,l,LM,25,2020-08-30_15h36.38.912,CDT_GNG_IUS12,2020.1.2,MacIntel,60,,l,1,1.336,0,119,119,113,1,,,,,,,,,,,,,,,,,,,,,,,,,,,,,,,,,,,,,,,,,,,,,,,,,
,,,,,,,,,,,,,,,,,,,,,,,,,,,,,,,,,,,,,,,,,,,space,LM,25,2020-08-30_15h36.38.912,CDT_GNG_IUS12,2020.1.2,MacIntel,60,,,,,,,,,,,space,1,0.208,0,0,0,6,1,0,1,,,,,,,,,,,,,,,,,,,,,,,,,,,,,,,,,,,,,,
,,,,,,,,,,,,,,,,,,,,,,,,,,,,,,,,,,,,,,,,,,,,LM,25,2020-08-30_15h36.38.912,CDT_GNG_IUS12,2020.1.2,MacIntel,60,,,,,,,,,,,,1,,0,1,1,1,1,1,0,,,,,,,,,,,,,,,,,,,,,,,,,,,,,,,,,,,,,,
,,,,,,,,,,,,,,,,,,,,,,,,,,,,,,,,,,,,,,,,,,,,LM,25,2020-08-30_15h36.38.912,CDT_GNG_IUS12,2020.1.2,MacIntel,60,,,,,,,,,,,space,0,0.217,0,2,2,3,1,1,0,,,,,,,,,,,,,,,,,,,,,,,,,,,,,,,,,,,,,,
,,,,,,,,,,,,,,,,,,,,,,,,,,,,,,,,,,,,,,,,,,,space,LM,25,2020-08-30_15h36.38.912,CDT_GNG_IUS12,2020.1.2,MacIntel,60,,,,,,,,,,,space,1,0.25,0,3,3,4,1,0,1,,,,,,,,,,,,,,,,,,,,,,,,,,,,,,,,,,,,,,
,,,,,,,,,,,,,,,,,,,,,,,,,,,,,,,,,,,,,,,,,,,space,LM,25,2020-08-30_15h36.38.912,CDT_GNG_IUS12,2020.1.2,MacIntel,60,,,,,,,,,,,space,1,0.331,0,4,4,5,1,0,1,,,,,,,,,,,,,,,,,,,,,,,,,,,,,,,,,,,,,,
,,,,,,,,,,,,,,,,,,,,,,,,,,,,,,,,,,,,,,,,,,,,LM,25,2020-08-30_15h36.38.912,CDT_GNG_IUS12,2020.1.2,MacIntel,60,,,,,,,,,,,,1,,0,5,5,0,1,1,0,,,,,,,,,,,,,,,,,,,,,,,,,,,,,,,,,,,,,,
,,,,,,,,,,,,,,,,,,,,,,,,,,,,,,,,,,,,,,,,,,,space,LM,25,2020-08-30_15h36.38.912,CDT_GNG_IUS12,2020.1.2,MacIntel,60,,,,,,,,,,,space,1,0.651,0,6,6,7,1,0,1,,,,,,,,,,,,,,,,,,,,,,,,,,,,,,,,,,,,,,
,,,,,,,,,,,,,,,,,,,,,,,,,,,,,,,,,,,,,,,,,,,,LM,25,2020-08-30_15h36.38.912,CDT_GNG_IUS12,2020.1.2,MacIntel,60,,,,,,,,,,,,1,,0,7,7,2,1,1,0,,,,,,,,,,,,,,,,,,,,,,,,,,,,,,,,,,,,,,
,,,,,,,,,,,,,,,,,,,,,,,,,,,,,,,,,,,,,,,,,,,space,LM,25,2020-08-30_15h36.38.912,CDT_GNG_IUS12,2020.1.2,MacIntel,60,,,,,,,,,,,,,,,,,,,0,1,space,1,0.451,0,0,0,30,1,,,,,,,,,,,,,,,,,,,,,,,,,,,,,,
,,,,,,,,,,,,,,,,,,,,,,,,,,,,,,,,,,,,,,,,,,,space,LM,25,2020-08-30_15h36.38.912,CDT_GNG_IUS12,2020.1.2,MacIntel,60,,,,,,,,,,,,,,,,,,,0,1,space,1,0.279,0,1,1,10,1,,,,,,,,,,,,,,,,,,,,,,,,,,,,,,
,,,,,,,,,,,,,,,,,,,,,,,,,,,,,,,,,,,,,,,,,,,,LM,25,2020-08-30_15h36.38.912,CDT_GNG_IUS12,2020.1.2,MacIntel,60,,,,,,,,,,,,,,,,,,,1,0,space,0,0.32,0,2,2,1,1,,,,,,,,,,,,,,,,,,,,,,,,,,,,,,
,,,,,,,,,,,,,,,,,,,,,,,,,,,,,,,,,,,,,,,,,,,space,LM,25,2020-08-30_15h36.38.912,CDT_GNG_IUS12,2020.1.2,MacIntel,60,,,,,,,,,,,,,,,,,,,0,1,space,1,0.364,0,3,3,45,1,,,,,,,,,,,,,,,,,,,,,,,,,,,,,,
,,,,,,,,,,,,,,,,,,,,,,,,,,,,,,,,,,,,,,,,,,,space,LM,25,2020-08-30_15h36.38.912,CDT_GNG_IUS12,2020.1.2,MacIntel,60,,,,,,,,,,,,,,,,,,,0,1,space,1,0.314,0,4,4,35,1,,,,,,,,,,,,,,,,,,,,,,,,,,,,,,
,,,,,,,,,,,,,,,,,,,,,,,,,,,,,,,,,,,,,,,,,,,space,LM,25,2020-08-30_15h36.38.912,CDT_GNG_IUS12,2020.1.2,MacIntel,60,,,,,,,,,,,,,,,,,,,0,1,space,1,0.219,0,5,5,21,1,,,,,,,,,,,,,,,,,,,,,,,,,,,,,,
,,,,,,,,,,,,,,,,,,,,,,,,,,,,,,,,,,,,,,,,,,,space,LM,25,2020-08-30_15h36.38.912,CDT_GNG_IUS12,2020.1.2,MacIntel,60,,,,,,,,,,,,,,,,,,,0,1,space,1,0.266,0,6,6,32,1,,,,,,,,,,,,,,,,,,,,,,,,,,,,,,
,,,,,,,,,,,,,,,,,,,,,,,,,,,,,,,,,,,,,,,,,,,space,LM,25,2020-08-30_15h36.38.912,CDT_GNG_IUS12,2020.1.2,MacIntel,60,,,,,,,,,,,,,,,,,,,0,1,space,1,0.283,0,7,7,22,1,,,,,,,,,,,,,,,,,,,,,,,,,,,,,,
,,,,,,,,,,,,,,,,,,,,,,,,,,,,,,,,,,,,,,,,,,,space,LM,25,2020-08-30_15h36.38.912,CDT_GNG_IUS12,2020.1.2,MacIntel,60,,,,,,,,,,,,,,,,,,,0,1,space,1,0.087,0,8,8,37,1,,,,,,,,,,,,,,,,,,,,,,,,,,,,,,
,,,,,,,,,,,,,,,,,,,,,,,,,,,,,,,,,,,,,,,,,,,space,LM,25,2020-08-30_15h36.38.912,CDT_GNG_IUS12,2020.1.2,MacIntel,60,,,,,,,,,,,,,,,,,,,0,1,space,1,0.299,0,9,9,43,1,,,,,,,,,,,,,,,,,,,,,,,,,,,,,,
,,,,,,,,,,,,,,,,,,,,,,,,,,,,,,,,,,,,,,,,,,,space,LM,25,2020-08-30_15h36.38.912,CDT_GNG_IUS12,2020.1.2,MacIntel,60,,,,,,,,,,,,,,,,,,,0,1,space,1,0.249,0,10,10,24,1,,,,,,,,,,,,,,,,,,,,,,,,,,,,,,
,,,,,,,,,,,,,,,,,,,,,,,,,,,,,,,,,,,,,,,,,,,space,LM,25,2020-08-30_15h36.38.912,CDT_GNG_IUS12,2020.1.2,MacIntel,60,,,,,,,,,,,,,,,,,,,0,1,space,1,0.254,0,11,11,28,1,,,,,,,,,,,,,,,,,,,,,,,,,,,,,,
,,,,,,,,,,,,,,,,,,,,,,,,,,,,,,,,,,,,,,,,,,,space,LM,25,2020-08-30_15h36.38.912,CDT_GNG_IUS12,2020.1.2,MacIntel,60,,,,,,,,,,,,,,,,,,,0,1,space,1,0.205,0,12,12,41,1,,,,,,,,,,,,,,,,,,,,,,,,,,,,,,
,,,,,,,,,,,,,,,,,,,,,,,,,,,,,,,,,,,,,,,,,,,space,LM,25,2020-08-30_15h36.38.912,CDT_GNG_IUS12,2020.1.2,MacIntel,60,,,,,,,,,,,,,,,,,,,0,1,space,1,0.133,0,13,13,23,1,,,,,,,,,,,,,,,,,,,,,,,,,,,,,,
,,,,,,,,,,,,,,,,,,,,,,,,,,,,,,,,,,,,,,,,,,,space,LM,25,2020-08-30_15h36.38.912,CDT_GNG_IUS12,2020.1.2,MacIntel,60,,,,,,,,,,,,,,,,,,,0,1,space,1,0.049,0,14,14,27,1,,,,,,,,,,,,,,,,,,,,,,,,,,,,,,
,,,,,,,,,,,,,,,,,,,,,,,,,,,,,,,,,,,,,,,,,,,,LM,25,2020-08-30_15h36.38.912,CDT_GNG_IUS12,2020.1.2,MacIntel,60,,,,,,,,,,,,,,,,,,,1,0,space,0,0.114,0,15,15,5,1,,,,,,,,,,,,,,,,,,,,,,,,,,,,,,
,,,,,,,,,,,,,,,,,,,,,,,,,,,,,,,,,,,,,,,,,,,space,LM,25,2020-08-30_15h36.38.912,CDT_GNG_IUS12,2020.1.2,MacIntel,60,,,,,,,,,,,,,,,,,,,0,1,space,1,0.22,0,16,16,38,1,,,,,,,,,,,,,,,,,,,,,,,,,,,,,,
,,,,,,,,,,,,,,,,,,,,,,,,,,,,,,,,,,,,,,,,,,,space,LM,25,2020-08-30_15h36.38.912,CDT_GNG_IUS12,2020.1.2,MacIntel,60,,,,,,,,,,,,,,,,,,,0,1,space,1,0.171,0,17,17,33,1,,,,,,,,,,,,,,,,,,,,,,,,,,,,,,
,,,,,,,,,,,,,,,,,,,,,,,,,,,,,,,,,,,,,,,,,,,,LM,25,2020-08-30_15h36.38.912,CDT_GNG_IUS12,2020.1.2,MacIntel,60,,,,,,,,,,,,,,,,,,,1,0,space,0,0.118,0,18,18,8,1,,,,,,,,,,,,,,,,,,,,,,,,,,,,,,
,,,,,,,,,,,,,,,,,,,,,,,,,,,,,,,,,,,,,,,,,,,space,LM,25,2020-08-30_15h36.38.912,CDT_GNG_IUS12,2020.1.2,MacIntel,60,,,,,,,,,,,,,,,,,,,0,1,space,1,0.331,0,19,19,20,1,,,,,,,,,,,,,,,,,,,,,,,,,,,,,,
,,,,,,,,,,,,,,,,,,,,,,,,,,,,,,,,,,,,,,,,,,,space,LM,25,2020-08-30_15h36.38.912,CDT_GNG_IUS12,2020.1.2,MacIntel,60,,,,,,,,,,,,,,,,,,,0,1,space,1,0.239,0,20,20,46,1,,,,,,,,,,,,,,,,,,,,,,,,,,,,,,
,,,,,,,,,,,,,,,,,,,,,,,,,,,,,,,,,,,,,,,,,,,space,LM,25,2020-08-30_15h36.38.912,CDT_GNG_IUS12,2020.1.2,MacIntel,60,,,,,,,,,,,,,,,,,,,0,1,space,1,0.079,0,21,21,29,1,,,,,,,,,,,,,,,,,,,,,,,,,,,,,,
,,,,,,,,,,,,,,,,,,,,,,,,,,,,,,,,,,,,,,,,,,,,LM,25,2020-08-30_15h36.38.912,CDT_GNG_IUS12,2020.1.2,MacIntel,60,,,,,,,,,,,,,,,,,,,1,0,,1,,0,22,22,3,1,,,,,,,,,,,,,,,,,,,,,,,,,,,,,,
,,,,,,,,,,,,,,,,,,,,,,,,,,,,,,,,,,,,,,,,,,,space,LM,25,2020-08-30_15h36.38.912,CDT_GNG_IUS12,2020.1.2,MacIntel,60,,,,,,,,,,,,,,,,,,,0,1,space,1,0.465,0,23,23,19,1,,,,,,,,,,,,,,,,,,,,,,,,,,,,,,
,,,,,,,,,,,,,,,,,,,,,,,,,,,,,,,,,,,,,,,,,,,space,LM,25,2020-08-30_15h36.38.912,CDT_GNG_IUS12,2020.1.2,MacIntel,60,,,,,,,,,,,,,,,,,,,0,1,space,1,0.07,0,24,24,25,1,,,,,,,,,,,,,,,,,,,,,,,,,,,,,,
,,,,,,,,,,,,,,,,,,,,,,,,,,,,,,,,,,,,,,,,,,,,LM,25,2020-08-30_15h36.38.912,CDT_GNG_IUS12,2020.1.2,MacIntel,60,,,,,,,,,,,,,,,,,,,1,0,,1,,0,25,25,6,1,,,,,,,,,,,,,,,,,,,,,,,,,,,,,,
,,,,,,,,,,,,,,,,,,,,,,,,,,,,,,,,,,,,,,,,,,,space,LM,25,2020-08-30_15h36.38.912,CDT_GNG_IUS12,2020.1.2,MacIntel,60,,,,,,,,,,,,,,,,,,,0,1,space,1,0.146,0,26,26,40,1,,,,,,,,,,,,,,,,,,,,,,,,,,,,,,
,,,,,,,,,,,,,,,,,,,,,,,,,,,,,,,,,,,,,,,,,,,space,LM,25,2020-08-30_15h36.38.912,CDT_GNG_IUS12,2020.1.2,MacIntel,60,,,,,,,,,,,,,,,,,,,0,1,space,1,0.185,0,27,27,34,1,,,,,,,,,,,,,,,,,,,,,,,,,,,,,,
,,,,,,,,,,,,,,,,,,,,,,,,,,,,,,,,,,,,,,,,,,,space,LM,25,2020-08-30_15h36.38.912,CDT_GNG_IUS12,2020.1.2,MacIntel,60,,,,,,,,,,,,,,,,,,,0,1,space,1,0.264,0,28,28,39,1,,,,,,,,,,,,,,,,,,,,,,,,,,,,,,
,,,,,,,,,,,,,,,,,,,,,,,,,,,,,,,,,,,,,,,,,,,space,LM,25,2020-08-30_15h36.38.912,CDT_GNG_IUS12,2020.1.2,MacIntel,60,,,,,,,,,,,,,,,,,,,0,1,space,1,0.198,0,29,29,13,1,,,,,,,,,,,,,,,,,,,,,,,,,,,,,,
,,,,,,,,,,,,,,,,,,,,,,,,,,,,,,,,,,,,,,,,,,,space,LM,25,2020-08-30_15h36.38.912,CDT_GNG_IUS12,2020.1.2,MacIntel,60,,,,,,,,,,,,,,,,,,,0,1,space,1,0.153,0,30,30,36,1,,,,,,,,,,,,,,,,,,,,,,,,,,,,,,
,,,,,,,,,,,,,,,,,,,,,,,,,,,,,,,,,,,,,,,,,,,space,LM,25,2020-08-30_15h36.38.912,CDT_GNG_IUS12,2020.1.2,MacIntel,60,,,,,,,,,,,,,,,,,,,0,1,space,1,0.197,0,31,31,16,1,,,,,,,,,,,,,,,,,,,,,,,,,,,,,,
,,,,,,,,,,,,,,,,,,,,,,,,,,,,,,,,,,,,,,,,,,,space,LM,25,2020-08-30_15h36.38.912,CDT_GNG_IUS12,2020.1.2,MacIntel,60,,,,,,,,,,,,,,,,,,,0,1,space,1,0.199,0,32,32,26,1,,,,,,,,,,,,,,,,,,,,,,,,,,,,,,
,,,,,,,,,,,,,,,,,,,,,,,,,,,,,,,,,,,,,,,,,,,space,LM,25,2020-08-30_15h36.38.912,CDT_GNG_IUS12,2020.1.2,MacIntel,60,,,,,,,,,,,,,,,,,,,0,1,space,1,0.283,0,33,33,31,1,,,,,,,,,,,,,,,,,,,,,,,,,,,,,,
,,,,,,,,,,,,,,,,,,,,,,,,,,,,,,,,,,,,,,,,,,,space,LM,25,2020-08-30_15h36.38.912,CDT_GNG_IUS12,2020.1.2,MacIntel,60,,,,,,,,,,,,,,,,,,,0,1,space,1,0.303,0,34,34,47,1,,,,,,,,,,,,,,,,,,,,,,,,,,,,,,
,,,,,,,,,,,,,,,,,,,,,,,,,,,,,,,,,,,,,,,,,,,space,LM,25,2020-08-30_15h36.38.912,CDT_GNG_IUS12,2020.1.2,MacIntel,60,,,,,,,,,,,,,,,,,,,0,1,space,1,0.314,0,35,35,49,1,,,,,,,,,,,,,,,,,,,,,,,,,,,,,,
,,,,,,,,,,,,,,,,,,,,,,,,,,,,,,,,,,,,,,,,,,,space,LM,25,2020-08-30_15h36.38.912,CDT_GNG_IUS12,2020.1.2,MacIntel,60,,,,,,,,,,,,,,,,,,,0,1,space,1,0.281,0,36,36,11,1,,,,,,,,,,,,,,,,,,,,,,,,,,,,,,
,,,,,,,,,,,,,,,,,,,,,,,,,,,,,,,,,,,,,,,,,,,space,LM,25,2020-08-30_15h36.38.912,CDT_GNG_IUS12,2020.1.2,MacIntel,60,,,,,,,,,,,,,,,,,,,0,1,space,1,0.281,0,37,37,48,1,,,,,,,,,,,,,,,,,,,,,,,,,,,,,,
,,,,,,,,,,,,,,,,,,,,,,,,,,,,,,,,,,,,,,,,,,,,LM,25,2020-08-30_15h36.38.912,CDT_GNG_IUS12,2020.1.2,MacIntel,60,,,,,,,,,,,,,,,,,,,1,0,space,0,0.282,0,38,38,0,1,,,,,,,,,,,,,,,,,,,,,,,,,,,,,,
,,,,,,,,,,,,,,,,,,,,,,,,,,,,,,,,,,,,,,,,,,,,LM,25,2020-08-30_15h36.38.912,CDT_GNG_IUS12,2020.1.2,MacIntel,60,,,,,,,,,,,,,,,,,,,1,0,space,0,0.387,0,39,39,7,1,,,,,,,,,,,,,,,,,,,,,,,,,,,,,,
,,,,,,,,,,,,,,,,,,,,,,,,,,,,,,,,,,,,,,,,,,,space,LM,25,2020-08-30_15h36.38.912,CDT_GNG_IUS12,2020.1.2,MacIntel,60,,,,,,,,,,,,,,,,,,,0,1,space,1,0.42,0,40,40,18,1,,,,,,,,,,,,,,,,,,,,,,,,,,,,,,
,,,,,,,,,,,,,,,,,,,,,,,,,,,,,,,,,,,,,,,,,,,space,LM,25,2020-08-30_15h36.38.912,CDT_GNG_IUS12,2020.1.2,MacIntel,60,,,,,,,,,,,,,,,,,,,0,1,space,1,0.383,0,41,41,17,1,,,,,,,,,,,,,,,,,,,,,,,,,,,,,,
,,,,,,,,,,,,,,,,,,,,,,,,,,,,,,,,,,,,,,,,,,,space,LM,25,2020-08-30_15h36.38.912,CDT_GNG_IUS12,2020.1.2,MacIntel,60,,,,,,,,,,,,,,,,,,,0,1,space,1,0.381,0,42,42,14,1,,,,,,,,,,,,,,,,,,,,,,,,,,,,,,
,,,,,,,,,,,,,,,,,,,,,,,,,,,,,,,,,,,,,,,,,,,space,LM,25,2020-08-30_15h36.38.912,CDT_GNG_IUS12,2020.1.2,MacIntel,60,,,,,,,,,,,,,,,,,,,0,1,space,1,0.389,0,43,43,44,1,,,,,,,,,,,,,,,,,,,,,,,,,,,,,,
,,,,,,,,,,,,,,,,,,,,,,,,,,,,,,,,,,,,,,,,,,,,LM,25,2020-08-30_15h36.38.912,CDT_GNG_IUS12,2020.1.2,MacIntel,60,,,,,,,,,,,,,,,,,,,1,0,,1,,0,44,44,9,1,,,,,,,,,,,,,,,,,,,,,,,,,,,,,,
,,,,,,,,,,,,,,,,,,,,,,,,,,,,,,,,,,,,,,,,,,,space,LM,25,2020-08-30_15h36.38.912,CDT_GNG_IUS12,2020.1.2,MacIntel,60,,,,,,,,,,,,,,,,,,,0,1,space,1,0.216,0,45,45,12,1,,,,,,,,,,,,,,,,,,,,,,,,,,,,,,
,,,,,,,,,,,,,,,,,,,,,,,,,,,,,,,,,,,,,,,,,,,space,LM,25,2020-08-30_15h36.38.912,CDT_GNG_IUS12,2020.1.2,MacIntel,60,,,,,,,,,,,,,,,,,,,0,1,space,1,0.164,0,46,46,15,1,,,,,,,,,,,,,,,,,,,,,,,,,,,,,,
,,,,,,,,,,,,,,,,,,,,,,,,,,,,,,,,,,,,,,,,,,,,LM,25,2020-08-30_15h36.38.912,CDT_GNG_IUS12,2020.1.2,MacIntel,60,,,,,,,,,,,,,,,,,,,1,0,space,0,0.154,0,47,47,4,1,,,,,,,,,,,,,,,,,,,,,,,,,,,,,,
,,,,,,,,,,,,,,,,,,,,,,,,,,,,,,,,,,,,,,,,,,,space,LM,25,2020-08-30_15h36.38.912,CDT_GNG_IUS12,2020.1.2,MacIntel,60,,,,,,,,,,,,,,,,,,,0,1,space,1,0.217,0,48,48,42,1,,,,,,,,,,,,,,,,,,,,,,,,,,,,,,
,,,,,,,,,,,,,,,,,,,,,,,,,,,,,,,,,,,,,,,,,,,,LM,25,2020-08-30_15h36.38.912,CDT_GNG_IUS12,2020.1.2,MacIntel,60,,,,,,,,,,,,,,,,,,,1,0,space,0,0.264,0,49,49,2,1,,,,,,,,,,,,,,,,,,,,,,,,,,,,,,
,,,,,,,,,,,,,,,,,,,,,,,,,,,,,,,,,,,,,,,,,,,space,LM,25,2020-08-30_15h36.38.912,CDT_GNG_IUS12,2020.1.2,MacIntel,60,,,,,,,,,,,,,,,,,,,0,1,space,1,0.31,,,,,,0,0,0,26,1,,,,,,,,,,,,,,,,,,,,,,,,,
,,,,,,,,,,,,,,,,,,,,,,,,,,,,,,,,,,,,,,,,,,,space,LM,25,2020-08-30_15h36.38.912,CDT_GNG_IUS12,2020.1.2,MacIntel,60,,,,,,,,,,,,,,,,,,,0,1,,0,,,,,,,0,1,1,48,1,,,,,,,,,,,,,,,,,,,,,,,,,
,,,,,,,,,,,,,,,,,,,,,,,,,,,,,,,,,,,,,,,,,,,,LM,25,2020-08-30_15h36.38.912,CDT_GNG_IUS12,2020.1.2,MacIntel,60,,,,,,,,,,,,,,,,,,,1,0,,1,,,,,,,0,2,2,2,1,,,,,,,,,,,,,,,,,,,,,,,,,
,,,,,,,,,,,,,,,,,,,,,,,,,,,,,,,,,,,,,,,,,,,space,LM,25,2020-08-30_15h36.38.912,CDT_GNG_IUS12,2020.1.2,MacIntel,60,,,,,,,,,,,,,,,,,,,0,1,space,1,0.466,,,,,,0,3,3,30,1,,,,,,,,,,,,,,,,,,,,,,,,,
,,,,,,,,,,,,,,,,,,,,,,,,,,,,,,,,,,,,,,,,,,,space,LM,25,2020-08-30_15h36.38.912,CDT_GNG_IUS12,2020.1.2,MacIntel,60,,,,,,,,,,,,,,,,,,,0,1,space,1,0.469,,,,,,0,4,4,49,1,,,,,,,,,,,,,,,,,,,,,,,,,
,,,,,,,,,,,,,,,,,,,,,,,,,,,,,,,,,,,,,,,,,,,space,LM,25,2020-08-30_15h36.38.912,CDT_GNG_IUS12,2020.1.2,MacIntel,60,,,,,,,,,,,,,,,,,,,0,1,space,1,0.432,,,,,,0,5,5,31,1,,,,,,,,,,,,,,,,,,,,,,,,,
,,,,,,,,,,,,,,,,,,,,,,,,,,,,,,,,,,,,,,,,,,,,LM,25,2020-08-30_15h36.38.912,CDT_GNG_IUS12,2020.1.2,MacIntel,60,,,,,,,,,,,,,,,,,,,1,0,,1,,,,,,,0,6,6,6,1,,,,,,,,,,,,,,,,,,,,,,,,,
,,,,,,,,,,,,,,,,,,,,,,,,,,,,,,,,,,,,,,,,,,,space,LM,25,2020-08-30_15h36.38.912,CDT_GNG_IUS12,2020.1.2,MacIntel,60,,,,,,,,,,,,,,,,,,,0,1,space,1,0.001,,,,,,0,7,7,11,1,,,,,,,,,,,,,,,,,,,,,,,,,
,,,,,,,,,,,,,,,,,,,,,,,,,,,,,,,,,,,,,,,,,,,space,LM,25,2020-08-30_15h36.38.912,CDT_GNG_IUS12,2020.1.2,MacIntel,60,,,,,,,,,,,,,,,,,,,0,1,,0,,,,,,,0,8,8,22,1,,,,,,,,,,,,,,,,,,,,,,,,,
,,,,,,,,,,,,,,,,,,,,,,,,,,,,,,,,,,,,,,,,,,,space,LM,25,2020-08-30_15h36.38.912,CDT_GNG_IUS12,2020.1.2,MacIntel,60,,,,,,,,,,,,,,,,,,,0,1,space,1,0.021,,,,,,0,9,9,24,1,,,,,,,,,,,,,,,,,,,,,,,,,
,,,,,,,,,,,,,,,,,,,,,,,,,,,,,,,,,,,,,,,,,,,space,LM,25,2020-08-30_15h36.38.912,CDT_GNG_IUS12,2020.1.2,MacIntel,60,,,,,,,,,,,,,,,,,,,0,1,space,1,0.054,,,,,,0,10,10,15,1,,,,,,,,,,,,,,,,,,,,,,,,,
,,,,,,,,,,,,,,,,,,,,,,,,,,,,,,,,,,,,,,,,,,,space,LM,25,2020-08-30_15h36.38.912,CDT_GNG_IUS12,2020.1.2,MacIntel,60,,,,,,,,,,,,,,,,,,,0,1,space,1,0.121,,,,,,0,11,11,19,1,,,,,,,,,,,,,,,,,,,,,,,,,
,,,,,,,,,,,,,,,,,,,,,,,,,,,,,,,,,,,,,,,,,,,space,LM,25,2020-08-30_15h36.38.912,CDT_GNG_IUS12,2020.1.2,MacIntel,60,,,,,,,,,,,,,,,,,,,0,1,space,1,0.164,,,,,,0,12,12,47,1,,,,,,,,,,,,,,,,,,,,,,,,,
,,,,,,,,,,,,,,,,,,,,,,,,,,,,,,,,,,,,,,,,,,,space,LM,25,2020-08-30_15h36.38.912,CDT_GNG_IUS12,2020.1.2,MacIntel,60,,,,,,,,,,,,,,,,,,,0,1,space,1,0.302,,,,,,0,13,13,46,1,,,,,,,,,,,,,,,,,,,,,,,,,
,,,,,,,,,,,,,,,,,,,,,,,,,,,,,,,,,,,,,,,,,,,,LM,25,2020-08-30_15h36.38.912,CDT_GNG_IUS12,2020.1.2,MacIntel,60,,,,,,,,,,,,,,,,,,,1,0,space,0,0.248,,,,,,0,14,14,1,1,,,,,,,,,,,,,,,,,,,,,,,,,
,,,,,,,,,,,,,,,,,,,,,,,,,,,,,,,,,,,,,,,,,,,space,LM,25,2020-08-30_15h36.38.912,CDT_GNG_IUS12,2020.1.2,MacIntel,60,,,,,,,,,,,,,,,,,,,0,1,space,1,0.399,,,,,,0,15,15,39,1,,,,,,,,,,,,,,,,,,,,,,,,,
,,,,,,,,,,,,,,,,,,,,,,,,,,,,,,,,,,,,,,,,,,,space,LM,25,2020-08-30_15h36.38.912,CDT_GNG_IUS12,2020.1.2,MacIntel,60,,,,,,,,,,,,,,,,,,,0,1,space,1,0.517,,,,,,0,16,16,34,1,,,,,,,,,,,,,,,,,,,,,,,,,
,,,,,,,,,,,,,,,,,,,,,,,,,,,,,,,,,,,,,,,,,,,,LM,25,2020-08-30_15h36.38.912,CDT_GNG_IUS12,2020.1.2,MacIntel,60,,,,,,,,,,,,,,,,,,,1,0,,1,,,,,,,0,17,17,5,1,,,,,,,,,,,,,,,,,,,,,,,,,
,,,,,,,,,,,,,,,,,,,,,,,,,,,,,,,,,,,,,,,,,,,space,LM,25,2020-08-30_15h36.38.912,CDT_GNG_IUS12,2020.1.2,MacIntel,60,,,,,,,,,,,,,,,,,,,0,1,space,1,0.323,,,,,,0,18,18,43,1,,,,,,,,,,,,,,,,,,,,,,,,,
,,,,,,,,,,,,,,,,,,,,,,,,,,,,,,,,,,,,,,,,,,,space,LM,25,2020-08-30_15h36.38.912,CDT_GNG_IUS12,2020.1.2,MacIntel,60,,,,,,,,,,,,,,,,,,,0,1,space,1,0.105,,,,,,0,19,19,28,1,,,,,,,,,,,,,,,,,,,,,,,,,
,,,,,,,,,,,,,,,,,,,,,,,,,,,,,,,,,,,,,,,,,,,space,LM,25,2020-08-30_15h36.38.912,CDT_GNG_IUS12,2020.1.2,MacIntel,60,,,,,,,,,,,,,,,,,,,0,1,space,1,0.099,,,,,,0,20,20,44,1,,,,,,,,,,,,,,,,,,,,,,,,,
,,,,,,,,,,,,,,,,,,,,,,,,,,,,,,,,,,,,,,,,,,,space,LM,25,2020-08-30_15h36.38.912,CDT_GNG_IUS12,2020.1.2,MacIntel,60,,,,,,,,,,,,,,,,,,,0,1,space,1,0.115,,,,,,0,21,21,45,1,,,,,,,,,,,,,,,,,,,,,,,,,
,,,,,,,,,,,,,,,,,,,,,,,,,,,,,,,,,,,,,,,,,,,space,LM,25,2020-08-30_15h36.38.912,CDT_GNG_IUS12,2020.1.2,MacIntel,60,,,,,,,,,,,,,,,,,,,0,1,space,1,0.122,,,,,,0,22,22,20,1,,,,,,,,,,,,,,,,,,,,,,,,,
,,,,,,,,,,,,,,,,,,,,,,,,,,,,,,,,,,,,,,,,,,,space,LM,25,2020-08-30_15h36.38.912,CDT_GNG_IUS12,2020.1.2,MacIntel,60,,,,,,,,,,,,,,,,,,,0,1,space,1,0.184,,,,,,0,23,23,17,1,,,,,,,,,,,,,,,,,,,,,,,,,
,,,,,,,,,,,,,,,,,,,,,,,,,,,,,,,,,,,,,,,,,,,space,LM,25,2020-08-30_15h36.38.912,CDT_GNG_IUS12,2020.1.2,MacIntel,60,,,,,,,,,,,,,,,,,,,0,1,space,1,0.281,,,,,,0,24,24,38,1,,,,,,,,,,,,,,,,,,,,,,,,,
,,,,,,,,,,,,,,,,,,,,,,,,,,,,,,,,,,,,,,,,,,,,LM,25,2020-08-30_15h36.38.912,CDT_GNG_IUS12,2020.1.2,MacIntel,60,,,,,,,,,,,,,,,,,,,1,0,space,0,0.304,,,,,,0,25,25,7,1,,,,,,,,,,,,,,,,,,,,,,,,,
,,,,,,,,,,,,,,,,,,,,,,,,,,,,,,,,,,,,,,,,,,,space,LM,25,2020-08-30_15h36.38.912,CDT_GNG_IUS12,2020.1.2,MacIntel,60,,,,,,,,,,,,,,,,,,,0,1,space,1,0.407,,,,,,0,26,26,27,1,,,,,,,,,,,,,,,,,,,,,,,,,
,,,,,,,,,,,,,,,,,,,,,,,,,,,,,,,,,,,,,,,,,,,space,LM,25,2020-08-30_15h36.38.912,CDT_GNG_IUS12,2020.1.2,MacIntel,60,,,,,,,,,,,,,,,,,,,0,1,,0,,,,,,,0,27,27,16,1,,,,,,,,,,,,,,,,,,,,,,,,,
,,,,,,,,,,,,,,,,,,,,,,,,,,,,,,,,,,,,,,,,,,,space,LM,25,2020-08-30_15h36.38.912,CDT_GNG_IUS12,2020.1.2,MacIntel,60,,,,,,,,,,,,,,,,,,,0,1,space,1,0.233,,,,,,0,28,28,42,1,,,,,,,,,,,,,,,,,,,,,,,,,
,,,,,,,,,,,,,,,,,,,,,,,,,,,,,,,,,,,,,,,,,,,space,LM,25,2020-08-30_15h36.38.912,CDT_GNG_IUS12,2020.1.2,MacIntel,60,,,,,,,,,,,,,,,,,,,0,1,space,1,0.221,,,,,,0,29,29,33,1,,,,,,,,,,,,,,,,,,,,,,,,,
,,,,,,,,,,,,,,,,,,,,,,,,,,,,,,,,,,,,,,,,,,,space,LM,25,2020-08-30_15h36.38.912,CDT_GNG_IUS12,2020.1.2,MacIntel,60,,,,,,,,,,,,,,,,,,,0,1,,0,,,,,,,0,30,30,40,1,,,,,,,,,,,,,,,,,,,,,,,,,
,,,,,,,,,,,,,,,,,,,,,,,,,,,,,,,,,,,,,,,,,,,space,LM,25,2020-08-30_15h36.38.912,CDT_GNG_IUS12,2020.1.2,MacIntel,60,,,,,,,,,,,,,,,,,,,0,1,space,1,0.155,,,,,,0,31,31,13,1,,,,,,,,,,,,,,,,,,,,,,,,,
,,,,,,,,,,,,,,,,,,,,,,,,,,,,,,,,,,,,,,,,,,,,LM,25,2020-08-30_15h36.38.912,CDT_GNG_IUS12,2020.1.2,MacIntel,60,,,,,,,,,,,,,,,,,,,1,0,,1,,,,,,,0,32,32,0,1,,,,,,,,,,,,,,,,,,,,,,,,,
,,,,,,,,,,,,,,,,,,,,,,,,,,,,,,,,,,,,,,,,,,,space,LM,25,2020-08-30_15h36.38.912,CDT_GNG_IUS12,2020.1.2,MacIntel,60,,,,,,,,,,,,,,,,,,,0,1,space,1,0.384,,,,,,0,33,33,12,1,,,,,,,,,,,,,,,,,,,,,,,,,
,,,,,,,,,,,,,,,,,,,,,,,,,,,,,,,,,,,,,,,,,,,space,LM,25,2020-08-30_15h36.38.912,CDT_GNG_IUS12,2020.1.2,MacIntel,60,,,,,,,,,,,,,,,,,,,0,1,space,1,0.315,,,,,,0,34,34,37,1,,,,,,,,,,,,,,,,,,,,,,,,,
,,,,,,,,,,,,,,,,,,,,,,,,,,,,,,,,,,,,,,,,,,,space,LM,25,2020-08-30_15h36.38.912,CDT_GNG_IUS12,2020.1.2,MacIntel,60,,,,,,,,,,,,,,,,,,,0,1,space,1,0.355,,,,,,0,35,35,21,1,,,,,,,,,,,,,,,,,,,,,,,,,
,,,,,,,,,,,,,,,,,,,,,,,,,,,,,,,,,,,,,,,,,,,,LM,25,2020-08-30_15h36.38.912,CDT_GNG_IUS12,2020.1.2,MacIntel,60,,,,,,,,,,,,,,,,,,,1,0,space,0,0.25,,,,,,0,36,36,3,1,,,,,,,,,,,,,,,,,,,,,,,,,
,,,,,,,,,,,,,,,,,,,,,,,,,,,,,,,,,,,,,,,,,,,space,LM,25,2020-08-30_15h36.38.912,CDT_GNG_IUS12,2020.1.2,MacIntel,60,,,,,,,,,,,,,,,,,,,0,1,space,1,0.401,,,,,,0,37,37,14,1,,,,,,,,,,,,,,,,,,,,,,,,,
,,,,,,,,,,,,,,,,,,,,,,,,,,,,,,,,,,,,,,,,,,,,LM,25,2020-08-30_15h36.38.912,CDT_GNG_IUS12,2020.1.2,MacIntel,60,,,,,,,,,,,,,,,,,,,1,0,,1,,,,,,,0,38,38,8,1,,,,,,,,,,,,,,,,,,,,,,,,,
,,,,,,,,,,,,,,,,,,,,,,,,,,,,,,,,,,,,,,,,,,,space,LM,25,2020-08-30_15h36.38.912,CDT_GNG_IUS12,2020.1.2,MacIntel,60,,,,,,,,,,,,,,,,,,,0,1,space,1,0.181,,,,,,0,39,39,35,1,,,,,,,,,,,,,,,,,,,,,,,,,
,,,,,,,,,,,,,,,,,,,,,,,,,,,,,,,,,,,,,,,,,,,,LM,25,2020-08-30_15h36.38.912,CDT_GNG_IUS12,2020.1.2,MacIntel,60,,,,,,,,,,,,,,,,,,,1,0,space,0,0.001,,,,,,0,40,40,9,1,,,,,,,,,,,,,,,,,,,,,,,,,
,,,,,,,,,,,,,,,,,,,,,,,,,,,,,,,,,,,,,,,,,,,space,LM,25,2020-08-30_15h36.38.912,CDT_GNG_IUS12,2020.1.2,MacIntel,60,,,,,,,,,,,,,,,,,,,0,1,space,1,0.389,,,,,,0,41,41,18,1,,,,,,,,,,,,,,,,,,,,,,,,,
,,,,,,,,,,,,,,,,,,,,,,,,,,,,,,,,,,,,,,,,,,,space,LM,25,2020-08-30_15h36.38.912,CDT_GNG_IUS12,2020.1.2,MacIntel,60,,,,,,,,,,,,,,,,,,,0,1,space,1,0.118,,,,,,0,42,42,29,1,,,,,,,,,,,,,,,,,,,,,,,,,
,,,,,,,,,,,,,,,,,,,,,,,,,,,,,,,,,,,,,,,,,,,space,LM,25,2020-08-30_15h36.38.912,CDT_GNG_IUS12,2020.1.2,MacIntel,60,,,,,,,,,,,,,,,,,,,0,1,space,1,0.007,,,,,,0,43,43,32,1,,,,,,,,,,,,,,,,,,,,,,,,,
,,,,,,,,,,,,,,,,,,,,,,,,,,,,,,,,,,,,,,,,,,,space,LM,25,2020-08-30_15h36.38.912,CDT_GNG_IUS12,2020.1.2,MacIntel,60,,,,,,,,,,,,,,,,,,,0,1,space,1,0.048,,,,,,0,44,44,25,1,,,,,,,,,,,,,,,,,,,,,,,,,
,,,,,,,,,,,,,,,,,,,,,,,,,,,,,,,,,,,,,,,,,,,space,LM,25,2020-08-30_15h36.38.912,CDT_GNG_IUS12,2020.1.2,MacIntel,60,,,,,,,,,,,,,,,,,,,0,1,space,1,0.001,,,,,,0,45,45,41,1,,,,,,,,,,,,,,,,,,,,,,,,,
,,,,,,,,,,,,,,,,,,,,,,,,,,,,,,,,,,,,,,,,,,,space,LM,25,2020-08-30_15h36.38.912,CDT_GNG_IUS12,2020.1.2,MacIntel,60,,,,,,,,,,,,,,,,,,,0,1,space,1,0,,,,,,0,46,46,36,1,,,,,,,,,,,,,,,,,,,,,,,,,
,,,,,,,,,,,,,,,,,,,,,,,,,,,,,,,,,,,,,,,,,,,space,LM,25,2020-08-30_15h36.38.912,CDT_GNG_IUS12,2020.1.2,MacIntel,60,,,,,,,,,,,,,,,,,,,0,1,space,1,0.378,,,,,,0,47,47,10,1,,,,,,,,,,,,,,,,,,,,,,,,,
,,,,,,,,,,,,,,,,,,,,,,,,,,,,,,,,,,,,,,,,,,,space,LM,25,2020-08-30_15h36.38.912,CDT_GNG_IUS12,2020.1.2,MacIntel,60,,,,,,,,,,,,,,,,,,,0,1,space,1,0.302,,,,,,0,48,48,23,1,,,,,,,,,,,,,,,,,,,,,,,,,
,,,,,,,,,,,,,,,,,,,,,,,,,,,,,,,,,,,,,,,,,,,,LM,25,2020-08-30_15h36.38.912,CDT_GNG_IUS12,2020.1.2,MacIntel,60,,,,,,,,,,,,,,,,,,,1,0,,1,,,,,,,0,49,49,4,1,,,,,,,,,,,,,,,,,,,,,,,,,
,,,,,,,,,,,,,,,,,,,,,,,,,,,,,,,,,,,,,,,,,,,space,LM,25,2020-08-30_15h36.38.912,CDT_GNG_IUS12,2020.1.2,MacIntel,60,,,,,,,,,,,,,,,,,,,0,1,space,1,0.303,,,,,,,,,,,0,0,0,28,1,,,,,,,,,,,,,,,,,,,,
,,,,,,,,,,,,,,,,,,,,,,,,,,,,,,,,,,,,,,,,,,,space,LM,25,2020-08-30_15h36.38.912,CDT_GNG_IUS12,2020.1.2,MacIntel,60,,,,,,,,,,,,,,,,,,,0,1,space,1,0.021,,,,,,,,,,,0,1,1,17,1,,,,,,,,,,,,,,,,,,,,
,,,,,,,,,,,,,,,,,,,,,,,,,,,,,,,,,,,,,,,,,,,space,LM,25,2020-08-30_15h36.38.912,CDT_GNG_IUS12,2020.1.2,MacIntel,60,,,,,,,,,,,,,,,,,,,0,1,space,1,0.305,,,,,,,,,,,0,2,2,11,1,,,,,,,,,,,,,,,,,,,,
,,,,,,,,,,,,,,,,,,,,,,,,,,,,,,,,,,,,,,,,,,,,LM,25,2020-08-30_15h36.38.912,CDT_GNG_IUS12,2020.1.2,MacIntel,60,,,,,,,,,,,,,,,,,,,1,0,space,0,0.22,,,,,,,,,,,0,3,3,6,1,,,,,,,,,,,,,,,,,,,,
,,,,,,,,,,,,,,,,,,,,,,,,,,,,,,,,,,,,,,,,,,,space,LM,25,2020-08-30_15h36.38.912,CDT_GNG_IUS12,2020.1.2,MacIntel,60,,,,,,,,,,,,,,,,,,,0,1,space,1,0.455,,,,,,,,,,,0,4,4,40,1,,,,,,,,,,,,,,,,,,,,
,,,,,,,,,,,,,,,,,,,,,,,,,,,,,,,,,,,,,,,,,,,space,LM,25,2020-08-30_15h36.38.912,CDT_GNG_IUS12,2020.1.2,MacIntel,60,,,,,,,,,,,,,,,,,,,0,1,space,1,0.269,,,,,,,,,,,0,5,5,48,1,,,,,,,,,,,,,,,,,,,,
,,,,,,,,,,,,,,,,,,,,,,,,,,,,,,,,,,,,,,,,,,,space,LM,25,2020-08-30_15h36.38.912,CDT_GNG_IUS12,2020.1.2,MacIntel,60,,,,,,,,,,,,,,,,,,,0,1,space,1,0.084,,,,,,,,,,,0,6,6,46,1,,,,,,,,,,,,,,,,,,,,
,,,,,,,,,,,,,,,,,,,,,,,,,,,,,,,,,,,,,,,,,,,space,LM,25,2020-08-30_15h36.38.912,CDT_GNG_IUS12,2020.1.2,MacIntel,60,,,,,,,,,,,,,,,,,,,0,1,space,1,0.004,,,,,,,,,,,0,7,7,49,1,,,,,,,,,,,,,,,,,,,,
,,,,,,,,,,,,,,,,,,,,,,,,,,,,,,,,,,,,,,,,,,,space,LM,25,2020-08-30_15h36.38.912,CDT_GNG_IUS12,2020.1.2,MacIntel,60,,,,,,,,,,,,,,,,,,,0,1,space,1,0.087,,,,,,,,,,,0,8,8,31,1,,,,,,,,,,,,,,,,,,,,
,,,,,,,,,,,,,,,,,,,,,,,,,,,,,,,,,,,,,,,,,,,space,LM,25,2020-08-30_15h36.38.912,CDT_GNG_IUS12,2020.1.2,MacIntel,60,,,,,,,,,,,,,,,,,,,0,1,space,1,0.021,,,,,,,,,,,0,9,9,44,1,,,,,,,,,,,,,,,,,,,,
,,,,,,,,,,,,,,,,,,,,,,,,,,,,,,,,,,,,,,,,,,,space,LM,25,2020-08-30_15h36.38.912,CDT_GNG_IUS12,2020.1.2,MacIntel,60,,,,,,,,,,,,,,,,,,,0,1,space,1,0.055,,,,,,,,,,,0,10,10,12,1,,,,,,,,,,,,,,,,,,,,
,,,,,,,,,,,,,,,,,,,,,,,,,,,,,,,,,,,,,,,,,,,space,LM,25,2020-08-30_15h36.38.912,CDT_GNG_IUS12,2020.1.2,MacIntel,60,,,,,,,,,,,,,,,,,,,0,1,space,1,0.065,,,,,,,,,,,0,11,11,20,1,,,,,,,,,,,,,,,,,,,,
,,,,,,,,,,,,,,,,,,,,,,,,,,,,,,,,,,,,,,,,,,,,LM,25,2020-08-30_15h36.38.912,CDT_GNG_IUS12,2020.1.2,MacIntel,60,,,,,,,,,,,,,,,,,,,1,0,space,0,0.155,,,,,,,,,,,0,12,12,8,1,,,,,,,,,,,,,,,,,,,,
,,,,,,,,,,,,,,,,,,,,,,,,,,,,,,,,,,,,,,,,,,,space,LM,25,2020-08-30_15h36.38.912,CDT_GNG_IUS12,2020.1.2,MacIntel,60,,,,,,,,,,,,,,,,,,,0,1,space,1,0.285,,,,,,,,,,,0,13,13,24,1,,,,,,,,,,,,,,,,,,,,
,,,,,,,,,,,,,,,,,,,,,,,,,,,,,,,,,,,,,,,,,,,,LM,25,2020-08-30_15h36.38.912,CDT_GNG_IUS12,2020.1.2,MacIntel,60,,,,,,,,,,,,,,,,,,,1,0,,1,,,,,,,,,,,,0,14,14,0,1,,,,,,,,,,,,,,,,,,,,
,,,,,,,,,,,,,,,,,,,,,,,,,,,,,,,,,,,,,,,,,,,,LM,25,2020-08-30_15h36.38.912,CDT_GNG_IUS12,2020.1.2,MacIntel,60,,,,,,,,,,,,,,,,,,,1,0,space,0,0.349,,,,,,,,,,,0,15,15,2,1,,,,,,,,,,,,,,,,,,,,
,,,,,,,,,,,,,,,,,,,,,,,,,,,,,,,,,,,,,,,,,,,space,LM,25,2020-08-30_15h36.38.912,CDT_GNG_IUS12,2020.1.2,MacIntel,60,,,,,,,,,,,,,,,,,,,0,1,space,1,0.434,,,,,,,,,,,0,16,16,32,1,,,,,,,,,,,,,,,,,,,,
,,,,,,,,,,,,,,,,,,,,,,,,,,,,,,,,,,,,,,,,,,,space,LM,25,2020-08-30_15h36.38.912,CDT_GNG_IUS12,2020.1.2,MacIntel,60,,,,,,,,,,,,,,,,,,,0,1,space,1,0.499,,,,,,,,,,,0,17,17,19,1,,,,,,,,,,,,,,,,,,,,
,,,,,,,,,,,,,,,,,,,,,,,,,,,,,,,,,,,,,,,,,,,space,LM,25,2020-08-30_15h36.38.912,CDT_GNG_IUS12,2020.1.2,MacIntel,60,,,,,,,,,,,,,,,,,,,0,1,space,1,0.499,,,,,,,,,,,0,18,18,29,1,,,,,,,,,,,,,,,,,,,,
,,,,,,,,,,,,,,,,,,,,,,,,,,,,,,,,,,,,,,,,,,,space,LM,25,2020-08-30_15h36.38.912,CDT_GNG_IUS12,2020.1.2,MacIntel,60,,,,,,,,,,,,,,,,,,,0,1,,0,,,,,,,,,,,,0,19,19,14,1,,,,,,,,,,,,,,,,,,,,
,,,,,,,,,,,,,,,,,,,,,,,,,,,,,,,,,,,,,,,,,,,,LM,25,2020-08-30_15h36.38.912,CDT_GNG_IUS12,2020.1.2,MacIntel,60,,,,,,,,,,,,,,,,,,,1,0,space,0,0.048,,,,,,,,,,,0,20,20,7,1,,,,,,,,,,,,,,,,,,,,
,,,,,,,,,,,,,,,,,,,,,,,,,,,,,,,,,,,,,,,,,,,space,LM,25,2020-08-30_15h36.38.912,CDT_GNG_IUS12,2020.1.2,MacIntel,60,,,,,,,,,,,,,,,,,,,0,1,space,1,0.437,,,,,,,,,,,0,21,21,23,1,,,,,,,,,,,,,,,,,,,,
,,,,,,,,,,,,,,,,,,,,,,,,,,,,,,,,,,,,,,,,,,,space,LM,25,2020-08-30_15h36.38.912,CDT_GNG_IUS12,2020.1.2,MacIntel,60,,,,,,,,,,,,,,,,,,,0,1,space,1,0.319,,,,,,,,,,,0,22,22,47,1,,,,,,,,,,,,,,,,,,,,
,,,,,,,,,,,,,,,,,,,,,,,,,,,,,,,,,,,,,,,,,,,space,LM,25,2020-08-30_15h36.38.912,CDT_GNG_IUS12,2020.1.2,MacIntel,60,,,,,,,,,,,,,,,,,,,0,1,space,1,0.105,,,,,,,,,,,0,23,23,25,1,,,,,,,,,,,,,,,,,,,,
,,,,,,,,,,,,,,,,,,,,,,,,,,,,,,,,,,,,,,,,,,,space,LM,25,2020-08-30_15h36.38.912,CDT_GNG_IUS12,2020.1.2,MacIntel,60,,,,,,,,,,,,,,,,,,,0,1,space,1,0.02,,,,,,,,,,,0,24,24,26,1,,,,,,,,,,,,,,,,,,,,
,,,,,,,,,,,,,,,,,,,,,,,,,,,,,,,,,,,,,,,,,,,space,LM,25,2020-08-30_15h36.38.912,CDT_GNG_IUS12,2020.1.2,MacIntel,60,,,,,,,,,,,,,,,,,,,0,1,space,1,0.169,,,,,,,,,,,0,25,25,21,1,,,,,,,,,,,,,,,,,,,,
,,,,,,,,,,,,,,,,,,,,,,,,,,,,,,,,,,,,,,,,,,,,LM,25,2020-08-30_15h36.38.912,CDT_GNG_IUS12,2020.1.2,MacIntel,60,,,,,,,,,,,,,,,,,,,1,0,space,0,0.522,,,,,,,,,,,0,26,26,3,1,,,,,,,,,,,,,,,,,,,,
,,,,,,,,,,,,,,,,,,,,,,,,,,,,,,,,,,,,,,,,,,,space,LM,25,2020-08-30_15h36.38.912,CDT_GNG_IUS12,2020.1.2,MacIntel,60,,,,,,,,,,,,,,,,,,,0,1,space,1,0.521,,,,,,,,,,,0,27,27,45,1,,,,,,,,,,,,,,,,,,,,
,,,,,,,,,,,,,,,,,,,,,,,,,,,,,,,,,,,,,,,,,,,space,LM,25,2020-08-30_15h36.38.912,CDT_GNG_IUS12,2020.1.2,MacIntel,60,,,,,,,,,,,,,,,,,,,0,1,,0,,,,,,,,,,,,0,28,28,27,1,,,,,,,,,,,,,,,,,,,,
,,,,,,,,,,,,,,,,,,,,,,,,,,,,,,,,,,,,,,,,,,,space,LM,25,2020-08-30_15h36.38.912,CDT_GNG_IUS12,2020.1.2,MacIntel,60,,,,,,,,,,,,,,,,,,,0,1,space,1,0.101,,,,,,,,,,,0,29,29,16,1,,,,,,,,,,,,,,,,,,,,
,,,,,,,,,,,,,,,,,,,,,,,,,,,,,,,,,,,,,,,,,,,space,LM,25,2020-08-30_15h36.38.912,CDT_GNG_IUS12,2020.1.2,MacIntel,60,,,,,,,,,,,,,,,,,,,0,1,space,1,0.123,,,,,,,,,,,0,30,30,36,1,,,,,,,,,,,,,,,,,,,,
,,,,,,,,,,,,,,,,,,,,,,,,,,,,,,,,,,,,,,,,,,,space,LM,25,2020-08-30_15h36.38.912,CDT_GNG_IUS12,2020.1.2,MacIntel,60,,,,,,,,,,,,,,,,,,,0,1,space,1,0.083,,,,,,,,,,,0,31,31,39,1,,,,,,,,,,,,,,,,,,,,
,,,,,,,,,,,,,,,,,,,,,,,,,,,,,,,,,,,,,,,,,,,,LM,25,2020-08-30_15h36.38.912,CDT_GNG_IUS12,2020.1.2,MacIntel,60,,,,,,,,,,,,,,,,,,,1,0,space,0,0.203,,,,,,,,,,,0,32,32,1,1,,,,,,,,,,,,,,,,,,,,
,,,,,,,,,,,,,,,,,,,,,,,,,,,,,,,,,,,,,,,,,,,space,LM,25,2020-08-30_15h36.38.912,CDT_GNG_IUS12,2020.1.2,MacIntel,60,,,,,,,,,,,,,,,,,,,0,1,space,1,0.516,,,,,,,,,,,0,33,33,38,1,,,,,,,,,,,,,,,,,,,,
,,,,,,,,,,,,,,,,,,,,,,,,,,,,,,,,,,,,,,,,,,,space,LM,25,2020-08-30_15h36.38.912,CDT_GNG_IUS12,2020.1.2,MacIntel,60,,,,,,,,,,,,,,,,,,,0,1,space,1,0.156,,,,,,,,,,,0,34,34,43,1,,,,,,,,,,,,,,,,,,,,
,,,,,,,,,,,,,,,,,,,,,,,,,,,,,,,,,,,,,,,,,,,space,LM,25,2020-08-30_15h36.38.912,CDT_GNG_IUS12,2020.1.2,MacIntel,60,,,,,,,,,,,,,,,,,,,0,1,space,1,0.235,,,,,,,,,,,0,35,35,10,1,,,,,,,,,,,,,,,,,,,,
,,,,,,,,,,,,,,,,,,,,,,,,,,,,,,,,,,,,,,,,,,,space,LM,25,2020-08-30_15h36.38.912,CDT_GNG_IUS12,2020.1.2,MacIntel,60,,,,,,,,,,,,,,,,,,,0,1,space,1,0.082,,,,,,,,,,,0,36,36,30,1,,,,,,,,,,,,,,,,,,,,
,,,,,,,,,,,,,,,,,,,,,,,,,,,,,,,,,,,,,,,,,,,space,LM,25,2020-08-30_15h36.38.912,CDT_GNG_IUS12,2020.1.2,MacIntel,60,,,,,,,,,,,,,,,,,,,0,1,space,1,0.255,,,,,,,,,,,0,37,37,22,1,,,,,,,,,,,,,,,,,,,,
,,,,,,,,,,,,,,,,,,,,,,,,,,,,,,,,,,,,,,,,,,,,LM,25,2020-08-30_15h36.38.912,CDT_GNG_IUS12,2020.1.2,MacIntel,60,,,,,,,,,,,,,,,,,,,1,0,,1,,,,,,,,,,,,0,38,38,5,1,,,,,,,,,,,,,,,,,,,,
,,,,,,,,,,,,,,,,,,,,,,,,,,,,,,,,,,,,,,,,,,,space,LM,25,2020-08-30_15h36.38.912,CDT_GNG_IUS12,2020.1.2,MacIntel,60,,,,,,,,,,,,,,,,,,,0,1,space,1,0.153,,,,,,,,,,,0,39,39,18,1,,,,,,,,,,,,,,,,,,,,
,,,,,,,,,,,,,,,,,,,,,,,,,,,,,,,,,,,,,,,,,,,space,LM,25,2020-08-30_15h36.38.912,CDT_GNG_IUS12,2020.1.2,MacIntel,60,,,,,,,,,,,,,,,,,,,0,1,space,1,0.399,,,,,,,,,,,0,40,40,42,1,,,,,,,,,,,,,,,,,,,,
,,,,,,,,,,,,,,,,,,,,,,,,,,,,,,,,,,,,,,,,,,,space,LM,25,2020-08-30_15h36.38.912,CDT_GNG_IUS12,2020.1.2,MacIntel,60,,,,,,,,,,,,,,,,,,,0,1,space,1,0.366,,,,,,,,,,,0,41,41,33,1,,,,,,,,,,,,,,,,,,,,
,,,,,,,,,,,,,,,,,,,,,,,,,,,,,,,,,,,,,,,,,,,space,LM,25,2020-08-30_15h36.38.912,CDT_GNG_IUS12,2020.1.2,MacIntel,60,,,,,,,,,,,,,,,,,,,0,1,space,1,0.352,,,,,,,,,,,0,42,42,35,1,,,,,,,,,,,,,,,,,,,,
,,,,,,,,,,,,,,,,,,,,,,,,,,,,,,,,,,,,,,,,,,,space,LM,25,2020-08-30_15h36.38.912,CDT_GNG_IUS12,2020.1.2,MacIntel,60,,,,,,,,,,,,,,,,,,,0,1,space,1,0.38,,,,,,,,,,,0,43,43,37,1,,,,,,,,,,,,,,,,,,,,
,,,,,,,,,,,,,,,,,,,,,,,,,,,,,,,,,,,,,,,,,,,space,LM,25,2020-08-30_15h36.38.912,CDT_GNG_IUS12,2020.1.2,MacIntel,60,,,,,,,,,,,,,,,,,,,0,1,space,1,0.316,,,,,,,,,,,0,44,44,41,1,,,,,,,,,,,,,,,,,,,,
,,,,,,,,,,,,,,,,,,,,,,,,,,,,,,,,,,,,,,,,,,,,LM,25,2020-08-30_15h36.38.912,CDT_GNG_IUS12,2020.1.2,MacIntel,60,,,,,,,,,,,,,,,,,,,1,0,,1,,,,,,,,,,,,0,45,45,9,1,,,,,,,,,,,,,,,,,,,,
,,,,,,,,,,,,,,,,,,,,,,,,,,,,,,,,,,,,,,,,,,,space,LM,25,2020-08-30_15h36.38.912,CDT_GNG_IUS12,2020.1.2,MacIntel,60,,,,,,,,,,,,,,,,,,,0,1,space,1,0.05,,,,,,,,,,,0,46,46,13,1,,,,,,,,,,,,,,,,,,,,
,,,,,,,,,,,,,,,,,,,,,,,,,,,,,,,,,,,,,,,,,,,,LM,25,2020-08-30_15h36.38.912,CDT_GNG_IUS12,2020.1.2,MacIntel,60,,,,,,,,,,,,,,,,,,,1,0,,1,,,,,,,,,,,,0,47,47,4,1,,,,,,,,,,,,,,,,,,,,
,,,,,,,,,,,,,,,,,,,,,,,,,,,,,,,,,,,,,,,,,,,space,LM,25,2020-08-30_15h36.38.912,CDT_GNG_IUS12,2020.1.2,MacIntel,60,,,,,,,,,,,,,,,,,,,0,1,space,1,0.222,,,,,,,,,,,0,48,48,34,1,,,,,,,,,,,,,,,,,,,,
,,,,,,,,,,,,,,,,,,,,,,,,,,,,,,,,,,,,,,,,,,,space,LM,25,2020-08-30_15h36.38.912,CDT_GNG_IUS12,2020.1.2,MacIntel,60,,,,,,,,,,,,,,,,,,,0,1,space,1,0.002,,,,,,,,,,,0,49,49,15,1,,,,,,,,,,,,,,,,,,,,
,,,,,,,,,,,,,,,,,,,,,,,,,,,,,,,,,,,,,,,,,,,,LM,25,2020-08-30_15h36.38.912,CDT_GNG_IUS12,2020.1.2,MacIntel,60,,,,,,,,,,,,,,,,,,,,,,,,,,,,,,,,,,,,,,,8.855555556,3.469,0,0,0,0,1,1,"On a scale from 0 to 10, indicate your personal perception of your proficiency level for English (10 being the highest score)",,,,,,,,,,,
,,,,,,,,,,,,,,,,,,,,,,,,,,,,,,,,,,,,,,,,,,,,LM,25,2020-08-30_15h36.38.912,CDT_GNG_IUS12,2020.1.2,MacIntel,60,,,,,,,,,,,,,,,,,,,,,,,,,,,,,,,,,,,,,,,8.988888889,1.372,0,1,1,1,1,2,"On a scale from 0 to 10, indicate how frequently you are exposed to English (10 being 'always', 0 being 'never')",,,,,,,,,,,
,,,,,,,,,,,,,,,,,,,,,,,,,,,,,,,,,,,,,,,,,,,,LM,25,2020-08-30_15h36.38.912,CDT_GNG_IUS12,2020.1.2,MacIntel,60,,,,,,,,,,,,,,,,,,,,,,,,,,,,,,,,,,,,,,,,,,,,,,,"On a scale from 0 to 10, indicate your personal perception of your proficiency level for English (10 being the highest score)",3.044444444,11.169,0,0,0,0,1,1,Unforeseen events upset me greatly.,,
,,,,,,,,,,,,,,,,,,,,,,,,,,,,,,,,,,,,,,,,,,,,LM,25,2020-08-30_15h36.38.912,CDT_GNG_IUS12,2020.1.2,MacIntel,60,,,,,,,,,,,,,,,,,,,,,,,,,,,,,,,,,,,,,,,,,,,,,,,"On a scale from 0 to 10, indicate how frequently you are exposed to English (10 being 'always', 0 being 'never')",4.004444444,7.627,0,1,1,1,1,2,It frustrates me not having all the information I need.,,
,,,,,,,,,,,,,,,,,,,,,,,,,,,,,,,,,,,,,,,,,,,,LM,25,2020-08-30_15h36.38.912,CDT_GNG_IUS12,2020.1.2,MacIntel,60,,,,,,,,,,,,,,,,,,,,,,,,,,,,,,,,,,,,,,,,,,,,,,,,3.035555556,5.642,0,2,2,2,1,3,One should always look ahead so as to avoid surprises.,,
,,,,,,,,,,,,,,,,,,,,,,,,,,,,,,,,,,,,,,,,,,,,LM,25,2020-08-30_15h36.38.912,CDT_GNG_IUS12,2020.1.2,MacIntel,60,,,,,,,,,,,,,,,,,,,,,,,,,,,,,,,,,,,,,,,,,,,,,,,,2.986666667,4.027,0,3,3,3,1,4,"A small, unforeseen event can spoil everything, even with the best of planning. ",,
,,,,,,,,,,,,,,,,,,,,,,,,,,,,,,,,,,,,,,,,,,,,LM,25,2020-08-30_15h36.38.912,CDT_GNG_IUS12,2020.1.2,MacIntel,60,,,,,,,,,,,,,,,,,,,,,,,,,,,,,,,,,,,,,,,,,,,,,,,,3,5.024,0,4,4,4,1,5,I always want to know what the future has in store for me.,,
,,,,,,,,,,,,,,,,,,,,,,,,,,,,,,,,,,,,,,,,,,,,LM,25,2020-08-30_15h36.38.912,CDT_GNG_IUS12,2020.1.2,MacIntel,60,,,,,,,,,,,,,,,,,,,,,,,,,,,,,,,,,,,,,,,,,,,,,,,,2.964444444,6.142,0,5,5,5,1,6,I can't stand being taken by surprise.,,
,,,,,,,,,,,,,,,,,,,,,,,,,,,,,,,,,,,,,,,,,,,,LM,25,2020-08-30_15h36.38.912,CDT_GNG_IUS12,2020.1.2,MacIntel,60,,,,,,,,,,,,,,,,,,,,,,,,,,,,,,,,,,,,,,,,,,,,,,,,3.968888889,3.961,0,6,6,6,1,7,I should be able to organize everything in advance,,
,,,,,,,,,,,,,,,,,,,,,,,,,,,,,,,,,,,,,,,,,,,,LM,25,2020-08-30_15h36.38.912,CDT_GNG_IUS12,2020.1.2,MacIntel,60,,,,,,,,,,,,,,,,,,,,,,,,,,,,,,,,,,,,,,,,,,,,,,,,3.991111111,2.012,0,7,7,7,1,8,Uncertainty keeps me from living a full life.,,
,,,,,,,,,,,,,,,,,,,,,,,,,,,,,,,,,,,,,,,,,,,,LM,25,2020-08-30_15h36.38.912,CDT_GNG_IUS12,2020.1.2,MacIntel,60,,,,,,,,,,,,,,,,,,,,,,,,,,,,,,,,,,,,,,,,,,,,,,,,2.96,2.508,0,8,8,8,1,9,"When it's time to act, uncertainty paralyses me. ",,
,,,,,,,,,,,,,,,,,,,,,,,,,,,,,,,,,,,,,,,,,,,,LM,25,2020-08-30_15h36.38.912,CDT_GNG_IUS12,2020.1.2,MacIntel,60,,,,,,,,,,,,,,,,,,,,,,,,,,,,,,,,,,,,,,,,,,,,,,,,3.004444444,2.128,0,9,9,9,1,10,"When I am uncertain, I can't function very well. ",,
,,,,,,,,,,,,,,,,,,,,,,,,,,,,,,,,,,,,,,,,,,,,LM,25,2020-08-30_15h36.38.912,CDT_GNG_IUS12,2020.1.2,MacIntel,60,,,,,,,,,,,,,,,,,,,,,,,,,,,,,,,,,,,,,,,,,,,,,,,,3.013333333,2.042,0,10,10,10,1,11,The smallest doubt can stop me from acting. ,,
,,,,,,,,,,,,,,,,,,,,,,,,,,,,,,,,,,,,,,,,,,,,LM,25,2020-08-30_15h36.38.912,CDT_GNG_IUS12,2020.1.2,MacIntel,60,,,,,,,,,,,,,,,,,,,,,,,,,,,,,,,,,,,,,,,,,,,,,,,,2.968888889,4.309,0,11,11,11,1,12,I must get away from all uncertain situations. ,,
,,,,,,,,,,,,,,,,,,,,,,,,,,,,,,,,,,,,,,,,,,,,LM,25,2020-08-30_15h36.38.912,CDT_GNG_IUS12,2020.1.2,MacIntel,60,,,,,,,,,,,,,,,,,,,,,,,,,,,,,,,,,,,,,,,,,,,,,,,,,,,,,,,,,x,2.257
