key_resp_6.keys,key_resp_6.rt,key_resp_2.keys,key_resp_2.corr,key_resp_2.rt,CDT_trials_train.thisRepN,CDT_trials_train.thisTrialN,CDT_trials_train.thisN,CDT_trials_train.thisIndex,CDT_trials_train.ran,trialnum,condit,stimamt,stim1posx,stim1posy,stim1col,stim1opa,stim2posx,stim2posy,stim2col,stim2opa,stim3posx,stim3posy,stim3col,stim3opa,stim4posx,stim4posy,stim4col,stim4opa,stim5posx,stim5posy,stim5col,stim5opa,stim6posx,stim6posy,stim6col,stim6opa,stimsizex,stimsizey,stimdur,targetposx,targetposy,targetcol,corrAns,participant,age,date,expName,psychopyVersion,OS,frameRate,key_resp_5.keys,key_resp.keys,key_resp.corr,key_resp.rt,CDT_trials.thisRepN,CDT_trials.thisTrialN,CDT_trials.thisN,CDT_trials.thisIndex,CDT_trials.ran,key_resp_5.rt,trialResp_Train.keys,trialResp_Train.corr,trialResp_Train.rt,GNGtrials_train.thisRepN,GNGtrials_train.thisTrialN,GNGtrials_train.thisN,GNGtrials_train.thisIndex,GNGtrials_train.ran,orangeOpacity,blueOpacity,trialResp.keys,trialResp.corr,trialResp.rt,GNG_trials_1.thisRepN,GNG_trials_1.thisTrialN,GNG_trials_1.thisN,GNG_trials_1.thisIndex,GNG_trials_1.ran,GNG_trials_2.thisRepN,GNG_trials_2.thisTrialN,GNG_trials_2.thisN,GNG_trials_2.thisIndex,GNG_trials_2.ran,GNG_trials_3.thisRepN,GNG_trials_3.thisTrialN,GNG_trials_3.thisN,GNG_trials_3.thisIndex,GNG_trials_3.ran,slider_2.response,slider_2.rt,engprof_trials.thisRepN,engprof_trials.thisTrialN,engprof_trials.thisN,engprof_trials.thisIndex,engprof_trials.ran,qpnumber,qproficiency,slider.response,slider.rt,IUS12_trials.thisRepN,IUS12_trials.thisTrialN,IUS12_trials.thisN,IUS12_trials.thisIndex,IUS12_trials.ran,qnumber,qenglish,key_resp_end.keys,key_resp_end.rt
y,1.915,l,0,0.85,0,0,0,0,1,1,same,4,0.273779233,-0.054755847,black,1,-0.16426754,-0.273779233,magenta,1,-0.16426754,0.16426754,orange,1,0.16426754,0.054755847,yellow,1,0.16426754,-0.054755847,cyan,0,-0.054755847,-0.16426754,blue,0,0.05,0.05,0.15,-0.16426754,0.16426754,orange,k,peppe,25,2020-09-01_18h34.18.558,CDT_GNG_IUS12,2020.1.2,MacIntel,60,,,,,,,,,,,,,,,,,,,,,,,,,,,,,,,,,,,,,,,,,,,,,,,,,,,,,,,,,,
,,k,0,0.767,0,1,1,1,1,2,different,4,0.054755847,-0.054755847,orange,1,-0.273779233,0.273779233,magenta,1,0.273779233,0.16426754,yellow,1,-0.273779233,-0.16426754,blue,1,0.273779233,-0.054755847,red,0,-0.273779233,0.054755847,cyan,0,0.05,0.05,0.15,-0.273779233,-0.16426754,black,l,peppe,25,2020-09-01_18h34.18.558,CDT_GNG_IUS12,2020.1.2,MacIntel,60,,,,,,,,,,,,,,,,,,,,,,,,,,,,,,,,,,,,,,,,,,,,,,,,,,,,,,,,,,
,,k,1,0.786,0,2,2,2,1,3,same,6,-0.054755847,0.273779233,green,1,0.273779233,-0.273779233,magenta,1,0.273779233,0.16426754,cyan,1,-0.054755847,-0.054755847,black,1,-0.273779233,0.16426754,orange,1,0.16426754,-0.054755847,blue,1,0.05,0.05,0.15,-0.054755847,0.273779233,green,k,peppe,25,2020-09-01_18h34.18.558,CDT_GNG_IUS12,2020.1.2,MacIntel,60,,,,,,,,,,,,,,,,,,,,,,,,,,,,,,,,,,,,,,,,,,,,,,,,,,,,,,,,,,
,,l,1,0.823,0,3,3,3,1,4,different,6,0.16426754,-0.054755847,orange,1,-0.054755847,0.273779233,red,1,0.273779233,0.273779233,green,1,-0.054755847,-0.273779233,yellow,1,0.273779233,-0.054755847,blue,1,-0.16426754,0.16426754,black,1,0.05,0.05,0.15,0.273779233,0.273779233,cyan,l,peppe,25,2020-09-01_18h34.18.558,CDT_GNG_IUS12,2020.1.2,MacIntel,60,,,,,,,,,,,,,,,,,,,,,,,,,,,,,,,,,,,,,,,,,,,,,,,,,,,,,,,,,,
,,,,,,,,,,4,same,4,0.16426754,-0.16426754,black,1,-0.054755847,0.16426754,yellow,1,0.16426754,0.16426754,blue,1,-0.16426754,-0.16426754,green,1,0.054755847,-0.16426754,magenta,0,-0.054755847,0.273779233,orange,0,0.05,0.05,0.15,0.16426754,-0.16426754,black,k,peppe,25,2020-09-01_18h34.18.558,CDT_GNG_IUS12,2020.1.2,MacIntel,60,,k,1,0.999,0,0,0,3,1,,,,,,,,,,,,,,,,,,,,,,,,,,,,,,,,,,,,,,,,,,,,,,,,,
,,,,,,,,,,47,different,4,-0.16426754,-0.054755847,orange,1,0.273779233,0.054755847,black,1,-0.16426754,0.16426754,red,1,0.273779233,-0.16426754,blue,1,-0.054755847,-0.273779233,green,0,0.16426754,0.16426754,yellow,0,0.05,0.05,0.15,0.273779233,0.054755847,red,l,peppe,25,2020-09-01_18h34.18.558,CDT_GNG_IUS12,2020.1.2,MacIntel,60,,l,1,0.466,0,1,1,46,1,,,,,,,,,,,,,,,,,,,,,,,,,,,,,,,,,,,,,,,,,,,,,,,,,
,,,,,,,,,,102,different,6,-0.273779233,-0.273779233,magenta,1,0.054755847,0.16426754,green,1,0.16426754,-0.273779233,yellow,1,-0.16426754,0.054755847,orange,1,-0.16426754,-0.273779233,red,1,0.273779233,0.054755847,cyan,1,0.05,0.05,0.15,-0.273779233,-0.273779233,yellow,l,peppe,25,2020-09-01_18h34.18.558,CDT_GNG_IUS12,2020.1.2,MacIntel,60,,l,1,0.805,0,2,2,101,1,,,,,,,,,,,,,,,,,,,,,,,,,,,,,,,,,,,,,,,,,,,,,,,,,
,,,,,,,,,,51,different,4,-0.16426754,-0.273779233,yellow,1,0.16426754,-0.273779233,cyan,1,0.273779233,0.054755847,blue,1,-0.054755847,0.273779233,green,1,-0.16426754,-0.054755847,black,0,0.273779233,-0.273779233,red,0,0.05,0.05,0.15,0.16426754,-0.273779233,red,l,peppe,25,2020-09-01_18h34.18.558,CDT_GNG_IUS12,2020.1.2,MacIntel,60,,l,1,0.95,0,3,3,50,1,,,,,,,,,,,,,,,,,,,,,,,,,,,,,,,,,,,,,,,,,,,,,,,,,
,,,,,,,,,,100,different,6,0.273779233,0.16426754,blue,1,-0.054755847,0.054755847,magenta,1,-0.273779233,-0.054755847,orange,1,0.273779233,-0.273779233,red,1,0.16426754,0.054755847,green,1,-0.273779233,0.054755847,yellow,1,0.05,0.05,0.15,0.273779233,0.16426754,orange,l,peppe,25,2020-09-01_18h34.18.558,CDT_GNG_IUS12,2020.1.2,MacIntel,60,,l,1,0.751,0,4,4,99,1,,,,,,,,,,,,,,,,,,,,,,,,,,,,,,,,,,,,,,,,,,,,,,,,,
,,,,,,,,,,115,different,6,-0.16426754,0.273779233,magenta,1,-0.273779233,-0.054755847,blue,1,0.273779233,0.273779233,red,1,0.054755847,-0.273779233,cyan,1,-0.054755847,0.16426754,green,1,-0.273779233,-0.273779233,yellow,1,0.05,0.05,0.15,-0.273779233,-0.054755847,yellow,l,peppe,25,2020-09-01_18h34.18.558,CDT_GNG_IUS12,2020.1.2,MacIntel,60,,l,1,0.569,0,5,5,114,1,,,,,,,,,,,,,,,,,,,,,,,,,,,,,,,,,,,,,,,,,,,,,,,,,
,,,,,,,,,,40,different,4,-0.273779233,-0.273779233,magenta,1,0.054755847,-0.16426754,yellow,1,-0.16426754,0.054755847,red,1,0.273779233,0.273779233,orange,1,-0.054755847,-0.054755847,cyan,0,0.16426754,-0.16426754,green,0,0.05,0.05,0.15,0.273779233,0.273779233,black,l,peppe,25,2020-09-01_18h34.18.558,CDT_GNG_IUS12,2020.1.2,MacIntel,60,,l,1,1.007,0,6,6,39,1,,,,,,,,,,,,,,,,,,,,,,,,,,,,,,,,,,,,,,,,,,,,,,,,,
,,,,,,,,,,55,different,4,0.273779233,0.054755847,yellow,1,0.054755847,-0.16426754,green,1,-0.273779233,-0.16426754,orange,1,-0.273779233,0.273779233,blue,1,0.273779233,0.273779233,red,0,0.273779233,-0.16426754,cyan,0,0.05,0.05,0.15,0.054755847,-0.16426754,red,l,peppe,25,2020-09-01_18h34.18.558,CDT_GNG_IUS12,2020.1.2,MacIntel,60,,l,1,0.574,0,7,7,54,1,,,,,,,,,,,,,,,,,,,,,,,,,,,,,,,,,,,,,,,,,,,,,,,,,
,,,,,,,,,,3,same,4,-0.054755847,-0.054755847,yellow,1,-0.054755847,0.054755847,cyan,1,0.16426754,-0.273779233,black,1,0.273779233,0.273779233,magenta,1,-0.054755847,-0.273779233,orange,0,-0.273779233,0.054755847,green,0,0.05,0.05,0.15,0.273779233,0.273779233,magenta,k,peppe,25,2020-09-01_18h34.18.558,CDT_GNG_IUS12,2020.1.2,MacIntel,60,,l,0,1.035,0,8,8,2,1,,,,,,,,,,,,,,,,,,,,,,,,,,,,,,,,,,,,,,,,,,,,,,,,,
,,,,,,,,,,62,same,6,0.054755847,-0.054755847,yellow,1,-0.273779233,-0.16426754,green,1,0.273779233,0.054755847,orange,1,-0.16426754,0.054755847,cyan,1,0.054755847,-0.273779233,red,1,-0.054755847,-0.054755847,blue,1,0.05,0.05,0.15,0.054755847,-0.054755847,yellow,k,peppe,25,2020-09-01_18h34.18.558,CDT_GNG_IUS12,2020.1.2,MacIntel,60,,l,0,0.821,0,9,9,61,1,,,,,,,,,,,,,,,,,,,,,,,,,,,,,,,,,,,,,,,,,,,,,,,,,
,,,,,,,,,,12,same,4,0.054755847,0.054755847,blue,1,-0.273779233,-0.054755847,magenta,1,-0.054755847,0.273779233,black,1,0.16426754,-0.16426754,green,1,0.16426754,0.16426754,yellow,0,-0.16426754,-0.054755847,orange,0,0.05,0.05,0.15,0.054755847,0.054755847,blue,k,peppe,25,2020-09-01_18h34.18.558,CDT_GNG_IUS12,2020.1.2,MacIntel,60,,k,1,0.451,0,10,10,11,1,,,,,,,,,,,,,,,,,,,,,,,,,,,,,,,,,,,,,,,,,,,,,,,,,
,,,,,,,,,,50,different,4,-0.16426754,0.054755847,black,1,-0.273779233,-0.16426754,magenta,1,0.054755847,0.054755847,cyan,1,0.273779233,-0.16426754,green,1,-0.273779233,0.273779233,yellow,0,-0.16426754,-0.054755847,orange,0,0.05,0.05,0.15,-0.273779233,-0.16426754,yellow,l,peppe,25,2020-09-01_18h34.18.558,CDT_GNG_IUS12,2020.1.2,MacIntel,60,,l,1,1.086,0,11,11,49,1,,,,,,,,,,,,,,,,,,,,,,,,,,,,,,,,,,,,,,,,,,,,,,,,,
,,,,,,,,,,116,different,6,-0.273779233,0.16426754,green,1,-0.054755847,-0.054755847,orange,1,0.273779233,-0.273779233,cyan,1,0.054755847,0.273779233,red,1,-0.054755847,0.16426754,blue,1,-0.16426754,-0.054755847,yellow,1,0.05,0.05,0.15,-0.054755847,-0.054755847,magenta,l,peppe,25,2020-09-01_18h34.18.558,CDT_GNG_IUS12,2020.1.2,MacIntel,60,,l,1,2.035,0,12,12,115,1,,,,,,,,,,,,,,,,,,,,,,,,,,,,,,,,,,,,,,,,,,,,,,,,,
,,,,,,,,,,24,same,4,0.054755847,-0.16426754,red,1,0.054755847,0.054755847,yellow,1,-0.273779233,0.16426754,orange,1,-0.273779233,-0.16426754,magenta,1,0.273779233,-0.16426754,black,0,0.273779233,0.273779233,green,0,0.05,0.05,0.15,0.054755847,-0.16426754,red,k,peppe,25,2020-09-01_18h34.18.558,CDT_GNG_IUS12,2020.1.2,MacIntel,60,,k,1,0.607,0,13,13,23,1,,,,,,,,,,,,,,,,,,,,,,,,,,,,,,,,,,,,,,,,,,,,,,,,,
,,,,,,,,,,37,different,4,0.273779233,-0.273779233,cyan,1,-0.054755847,0.054755847,orange,1,-0.054755847,-0.16426754,yellow,1,0.16426754,0.054755847,blue,1,0.054755847,-0.273779233,red,0,-0.273779233,0.16426754,green,0,0.05,0.05,0.15,-0.054755847,0.054755847,green,l,peppe,25,2020-09-01_18h34.18.558,CDT_GNG_IUS12,2020.1.2,MacIntel,60,,l,1,0.617,0,14,14,36,1,,,,,,,,,,,,,,,,,,,,,,,,,,,,,,,,,,,,,,,,,,,,,,,,,
,,,,,,,,,,80,same,6,-0.273779233,0.16426754,orange,1,0.054755847,-0.273779233,yellow,1,0.054755847,0.273779233,green,1,-0.16426754,-0.273779233,red,1,-0.16426754,0.273779233,blue,1,0.273779233,-0.16426754,black,1,0.05,0.05,0.15,0.054755847,-0.273779233,yellow,k,peppe,25,2020-09-01_18h34.18.558,CDT_GNG_IUS12,2020.1.2,MacIntel,60,,k,1,0.898,0,15,15,79,1,,,,,,,,,,,,,,,,,,,,,,,,,,,,,,,,,,,,,,,,,,,,,,,,,
,,,,,,,,,,43,different,4,-0.16426754,-0.054755847,red,1,0.273779233,0.054755847,cyan,1,-0.16426754,0.054755847,orange,1,0.054755847,-0.054755847,blue,1,-0.054755847,-0.273779233,magenta,0,0.273779233,0.273779233,yellow,0,0.05,0.05,0.15,-0.16426754,-0.054755847,yellow,l,peppe,25,2020-09-01_18h34.18.558,CDT_GNG_IUS12,2020.1.2,MacIntel,60,,k,0,1.099,0,16,16,42,1,,,,,,,,,,,,,,,,,,,,,,,,,,,,,,,,,,,,,,,,,,,,,,,,,
,,,,,,,,,,29,same,4,0.273779233,0.054755847,magenta,1,-0.054755847,0.273779233,cyan,1,0.16426754,-0.054755847,green,1,-0.16426754,-0.054755847,black,1,0.273779233,0.16426754,orange,0,-0.16426754,0.054755847,blue,0,0.05,0.05,0.15,0.16426754,-0.054755847,green,k,peppe,25,2020-09-01_18h34.18.558,CDT_GNG_IUS12,2020.1.2,MacIntel,60,,k,1,0.474,0,17,17,28,1,,,,,,,,,,,,,,,,,,,,,,,,,,,,,,,,,,,,,,,,,,,,,,,,,
,,,,,,,,,,15,same,4,0.054755847,-0.273779233,yellow,1,-0.273779233,-0.054755847,cyan,1,0.273779233,0.16426754,green,1,-0.16426754,0.16426754,blue,1,0.273779233,-0.054755847,magenta,0,-0.16426754,-0.054755847,orange,0,0.05,0.05,0.15,-0.273779233,-0.054755847,cyan,k,peppe,25,2020-09-01_18h34.18.558,CDT_GNG_IUS12,2020.1.2,MacIntel,60,,k,1,0.792,0,18,18,14,1,,,,,,,,,,,,,,,,,,,,,,,,,,,,,,,,,,,,,,,,,,,,,,,,,
,,,,,,,,,,45,different,4,0.054755847,0.16426754,blue,1,-0.054755847,-0.273779233,magenta,1,-0.16426754,0.16426754,black,1,0.054755847,-0.16426754,orange,1,0.273779233,0.273779233,green,0,-0.273779233,-0.16426754,cyan,0,0.05,0.05,0.15,-0.16426754,0.16426754,magenta,l,peppe,25,2020-09-01_18h34.18.558,CDT_GNG_IUS12,2020.1.2,MacIntel,60,,l,1,1.002,0,19,19,44,1,,,,,,,,,,,,,,,,,,,,,,,,,,,,,,,,,,,,,,,,,,,,,,,,,
,,,,,,,,,,91,different,6,-0.054755847,0.054755847,green,1,0.054755847,-0.16426754,cyan,1,-0.054755847,-0.054755847,black,1,0.16426754,0.273779233,yellow,1,-0.273779233,0.273779233,magenta,1,0.16426754,-0.054755847,red,1,0.05,0.05,0.15,0.16426754,-0.054755847,green,l,peppe,25,2020-09-01_18h34.18.558,CDT_GNG_IUS12,2020.1.2,MacIntel,60,,l,1,0.737,0,20,20,90,1,,,,,,,,,,,,,,,,,,,,,,,,,,,,,,,,,,,,,,,,,,,,,,,,,
,,,,,,,,,,67,same,6,0.273779233,-0.054755847,magenta,1,0.16426754,0.273779233,orange,1,-0.273779233,0.273779233,cyan,1,-0.16426754,-0.054755847,yellow,1,0.16426754,-0.16426754,blue,1,0.16426754,0.16426754,red,1,0.05,0.05,0.15,-0.273779233,0.273779233,cyan,k,peppe,25,2020-09-01_18h34.18.558,CDT_GNG_IUS12,2020.1.2,MacIntel,60,,k,1,0.617,0,21,21,66,1,,,,,,,,,,,,,,,,,,,,,,,,,,,,,,,,,,,,,,,,,,,,,,,,,
,,,,,,,,,,112,different,6,-0.273779233,-0.16426754,magenta,1,-0.054755847,0.054755847,orange,1,0.054755847,0.273779233,cyan,1,0.16426754,-0.273779233,yellow,1,-0.273779233,-0.273779233,black,1,-0.16426754,0.054755847,red,1,0.05,0.05,0.15,-0.16426754,0.054755847,orange,l,peppe,25,2020-09-01_18h34.18.558,CDT_GNG_IUS12,2020.1.2,MacIntel,60,,l,1,1.284,0,22,22,111,1,,,,,,,,,,,,,,,,,,,,,,,,,,,,,,,,,,,,,,,,,,,,,,,,,
,,,,,,,,,,20,same,4,0.273779233,0.054755847,magenta,1,0.054755847,-0.273779233,black,1,-0.054755847,0.16426754,blue,1,-0.273779233,-0.054755847,orange,1,0.054755847,0.054755847,red,0,0.054755847,-0.054755847,cyan,0,0.05,0.05,0.15,-0.054755847,0.16426754,blue,k,peppe,25,2020-09-01_18h34.18.558,CDT_GNG_IUS12,2020.1.2,MacIntel,60,,k,1,1.067,0,23,23,19,1,,,,,,,,,,,,,,,,,,,,,,,,,,,,,,,,,,,,,,,,,,,,,,,,,
,,,,,,,,,,85,same,6,-0.16426754,-0.273779233,black,1,-0.16426754,0.16426754,green,1,0.16426754,-0.054755847,blue,1,0.054755847,0.054755847,magenta,1,-0.16426754,-0.054755847,red,1,-0.054755847,0.054755847,yellow,1,0.05,0.05,0.15,-0.16426754,-0.273779233,black,k,peppe,25,2020-09-01_18h34.18.558,CDT_GNG_IUS12,2020.1.2,MacIntel,60,,l,0,1.334,0,24,24,84,1,,,,,,,,,,,,,,,,,,,,,,,,,,,,,,,,,,,,,,,,,,,,,,,,,
,,,,,,,,,,34,different,4,0.16426754,0.16426754,yellow,1,0.273779233,-0.16426754,cyan,1,-0.273779233,-0.273779233,magenta,1,-0.273779233,0.16426754,green,1,0.054755847,0.054755847,black,0,0.273779233,-0.273779233,orange,0,0.05,0.05,0.15,0.16426754,0.16426754,cyan,l,peppe,25,2020-09-01_18h34.18.558,CDT_GNG_IUS12,2020.1.2,MacIntel,60,,l,1,0.601,0,25,25,33,1,,,,,,,,,,,,,,,,,,,,,,,,,,,,,,,,,,,,,,,,,,,,,,,,,
,,,,,,,,,,113,different,6,-0.273779233,0.054755847,black,1,-0.16426754,-0.16426754,blue,1,0.054755847,-0.16426754,orange,1,0.16426754,0.16426754,red,1,-0.273779233,0.273779233,green,1,-0.273779233,-0.16426754,magenta,1,0.05,0.05,0.15,-0.273779233,-0.16426754,black,l,peppe,25,2020-09-01_18h34.18.558,CDT_GNG_IUS12,2020.1.2,MacIntel,60,,l,1,1.205,0,26,26,112,1,,,,,,,,,,,,,,,,,,,,,,,,,,,,,,,,,,,,,,,,,,,,,,,,,
,,,,,,,,,,90,same,6,0.16426754,-0.054755847,black,1,-0.273779233,-0.054755847,orange,1,-0.16426754,0.16426754,cyan,1,0.273779233,0.273779233,blue,1,0.054755847,-0.054755847,magenta,1,-0.273779233,-0.273779233,yellow,1,0.05,0.05,0.15,-0.273779233,-0.054755847,orange,k,peppe,25,2020-09-01_18h34.18.558,CDT_GNG_IUS12,2020.1.2,MacIntel,60,,k,1,1.238,0,27,27,89,1,,,,,,,,,,,,,,,,,,,,,,,,,,,,,,,,,,,,,,,,,,,,,,,,,
,,,,,,,,,,108,different,6,-0.273779233,-0.054755847,magenta,1,0.054755847,0.16426754,red,1,-0.16426754,0.054755847,cyan,1,0.054755847,-0.273779233,green,1,-0.273779233,-0.16426754,orange,1,0.273779233,0.273779233,black,1,0.05,0.05,0.15,-0.273779233,-0.054755847,blue,l,peppe,25,2020-09-01_18h34.18.558,CDT_GNG_IUS12,2020.1.2,MacIntel,60,,l,1,0.866,0,28,28,107,1,,,,,,,,,,,,,,,,,,,,,,,,,,,,,,,,,,,,,,,,,,,,,,,,,
,,,,,,,,,,38,different,4,0.273779233,-0.16426754,red,1,-0.054755847,0.16426754,blue,1,-0.273779233,-0.054755847,green,1,0.273779233,0.054755847,cyan,1,0.16426754,-0.054755847,orange,0,-0.054755847,0.054755847,yellow,0,0.05,0.05,0.15,0.273779233,0.054755847,black,l,peppe,25,2020-09-01_18h34.18.558,CDT_GNG_IUS12,2020.1.2,MacIntel,60,,l,1,0.867,0,29,29,37,1,,,,,,,,,,,,,,,,,,,,,,,,,,,,,,,,,,,,,,,,,,,,,,,,,
,,,,,,,,,,11,same,4,0.273779233,0.16426754,black,1,-0.054755847,0.273779233,cyan,1,0.16426754,-0.054755847,blue,1,-0.273779233,-0.16426754,orange,1,0.054755847,0.273779233,magenta,0,-0.273779233,0.054755847,green,0,0.05,0.05,0.15,0.273779233,0.16426754,black,k,peppe,25,2020-09-01_18h34.18.558,CDT_GNG_IUS12,2020.1.2,MacIntel,60,,k,1,0.652,0,30,30,10,1,,,,,,,,,,,,,,,,,,,,,,,,,,,,,,,,,,,,,,,,,,,,,,,,,
,,,,,,,,,,52,different,4,-0.273779233,-0.16426754,magenta,1,-0.273779233,0.054755847,green,1,0.273779233,-0.054755847,cyan,1,0.273779233,0.054755847,black,1,-0.16426754,-0.16426754,orange,0,-0.054755847,0.054755847,red,0,0.05,0.05,0.15,-0.273779233,-0.16426754,black,l,peppe,25,2020-09-01_18h34.18.558,CDT_GNG_IUS12,2020.1.2,MacIntel,60,,l,1,0.529,0,31,31,51,1,,,,,,,,,,,,,,,,,,,,,,,,,,,,,,,,,,,,,,,,,,,,,,,,,
,,,,,,,,,,87,same,6,0.273779233,0.16426754,green,1,-0.16426754,-0.054755847,black,1,-0.054755847,0.054755847,cyan,1,0.273779233,-0.054755847,blue,1,0.054755847,0.054755847,yellow,1,-0.273779233,-0.273779233,red,1,0.05,0.05,0.15,-0.273779233,-0.273779233,red,k,peppe,25,2020-09-01_18h34.18.558,CDT_GNG_IUS12,2020.1.2,MacIntel,60,,l,0,0.919,0,32,32,86,1,,,,,,,,,,,,,,,,,,,,,,,,,,,,,,,,,,,,,,,,,,,,,,,,,
,,,,,,,,,,105,different,6,0.054755847,0.273779233,cyan,1,0.273779233,-0.16426754,magenta,1,-0.16426754,-0.054755847,yellow,1,-0.16426754,0.16426754,blue,1,0.273779233,0.16426754,orange,1,0.16426754,-0.273779233,green,1,0.05,0.05,0.15,0.16426754,-0.273779233,blue,l,peppe,25,2020-09-01_18h34.18.558,CDT_GNG_IUS12,2020.1.2,MacIntel,60,,k,0,1.267,0,33,33,104,1,,,,,,,,,,,,,,,,,,,,,,,,,,,,,,,,,,,,,,,,,,,,,,,,,
,,,,,,,,,,26,same,4,0.16426754,-0.16426754,green,1,-0.054755847,0.16426754,yellow,1,-0.273779233,-0.16426754,black,1,0.054755847,0.054755847,red,1,0.16426754,-0.054755847,cyan,0,-0.273779233,0.273779233,magenta,0,0.05,0.05,0.15,-0.054755847,0.16426754,yellow,k,peppe,25,2020-09-01_18h34.18.558,CDT_GNG_IUS12,2020.1.2,MacIntel,60,,k,1,0.574,0,34,34,25,1,,,,,,,,,,,,,,,,,,,,,,,,,,,,,,,,,,,,,,,,,,,,,,,,,
,,,,,,,,,,88,same,6,0.054755847,0.054755847,orange,1,0.054755847,-0.273779233,red,1,-0.16426754,-0.16426754,magenta,1,-0.16426754,0.273779233,yellow,1,0.16426754,0.16426754,blue,1,0.273779233,-0.16426754,cyan,1,0.05,0.05,0.15,-0.16426754,0.273779233,yellow,k,peppe,25,2020-09-01_18h34.18.558,CDT_GNG_IUS12,2020.1.2,MacIntel,60,,k,1,1.102,0,35,35,87,1,,,,,,,,,,,,,,,,,,,,,,,,,,,,,,,,,,,,,,,,,,,,,,,,,
,,,,,,,,,,92,different,6,0.16426754,0.16426754,green,1,-0.054755847,-0.054755847,cyan,1,-0.054755847,0.054755847,red,1,0.16426754,-0.054755847,magenta,1,0.054755847,0.16426754,orange,1,-0.273779233,-0.16426754,yellow,1,0.05,0.05,0.15,0.16426754,0.16426754,cyan,l,peppe,25,2020-09-01_18h34.18.558,CDT_GNG_IUS12,2020.1.2,MacIntel,60,,k,0,0.935,0,36,36,91,1,,,,,,,,,,,,,,,,,,,,,,,,,,,,,,,,,,,,,,,,,,,,,,,,,
,,,,,,,,,,27,same,4,-0.273779233,0.054755847,blue,1,-0.16426754,-0.16426754,black,1,0.16426754,-0.273779233,cyan,1,0.273779233,0.054755847,red,1,-0.054755847,0.273779233,magenta,0,-0.054755847,-0.273779233,yellow,0,0.05,0.05,0.15,0.273779233,0.054755847,red,k,peppe,25,2020-09-01_18h34.18.558,CDT_GNG_IUS12,2020.1.2,MacIntel,60,,k,1,0.934,0,37,37,26,1,,,,,,,,,,,,,,,,,,,,,,,,,,,,,,,,,,,,,,,,,,,,,,,,,
,,,,,,,,,,33,different,4,-0.273779233,0.273779233,yellow,1,0.16426754,-0.16426754,cyan,1,-0.273779233,-0.273779233,black,1,0.054755847,0.273779233,blue,1,-0.16426754,0.273779233,green,0,0.054755847,-0.273779233,orange,0,0.05,0.05,0.15,-0.273779233,-0.273779233,cyan,l,peppe,25,2020-09-01_18h34.18.558,CDT_GNG_IUS12,2020.1.2,MacIntel,60,,l,1,0.782,0,38,38,32,1,,,,,,,,,,,,,,,,,,,,,,,,,,,,,,,,,,,,,,,,,,,,,,,,,
,,,,,,,,,,117,different,6,-0.054755847,0.054755847,black,1,0.054755847,0.273779233,magenta,1,-0.273779233,-0.273779233,yellow,1,0.054755847,-0.16426754,blue,1,-0.16426754,0.054755847,cyan,1,0.054755847,0.054755847,red,1,0.05,0.05,0.15,-0.16426754,0.054755847,black,l,peppe,25,2020-09-01_18h34.18.558,CDT_GNG_IUS12,2020.1.2,MacIntel,60,,l,1,0.921,0,39,39,116,1,,,,,,,,,,,,,,,,,,,,,,,,,,,,,,,,,,,,,,,,,,,,,,,,,
,,,,,,,,,,35,different,4,-0.054755847,-0.054755847,black,1,0.054755847,0.273779233,magenta,1,-0.273779233,0.054755847,blue,1,0.273779233,-0.054755847,red,1,-0.054755847,-0.16426754,cyan,0,0.054755847,0.054755847,yellow,0,0.05,0.05,0.15,0.054755847,0.273779233,cyan,l,peppe,25,2020-09-01_18h34.18.558,CDT_GNG_IUS12,2020.1.2,MacIntel,60,,l,1,1.615,0,40,40,34,1,,,,,,,,,,,,,,,,,,,,,,,,,,,,,,,,,,,,,,,,,,,,,,,,,
,,,,,,,,,,101,different,6,0.273779233,0.273779233,yellow,1,0.054755847,-0.16426754,black,1,-0.054755847,0.054755847,cyan,1,-0.054755847,-0.16426754,magenta,1,0.273779233,0.054755847,green,1,0.16426754,-0.16426754,blue,1,0.05,0.05,0.15,0.273779233,0.273779233,green,l,peppe,25,2020-09-01_18h34.18.558,CDT_GNG_IUS12,2020.1.2,MacIntel,60,,l,1,0.919,0,41,41,100,1,,,,,,,,,,,,,,,,,,,,,,,,,,,,,,,,,,,,,,,,,,,,,,,,,
,,,,,,,,,,83,same,6,0.054755847,-0.16426754,cyan,1,-0.16426754,-0.16426754,blue,1,0.273779233,0.054755847,magenta,1,-0.273779233,0.273779233,green,1,0.273779233,-0.16426754,orange,1,-0.054755847,-0.054755847,yellow,1,0.05,0.05,0.15,-0.054755847,-0.054755847,yellow,k,peppe,25,2020-09-01_18h34.18.558,CDT_GNG_IUS12,2020.1.2,MacIntel,60,,k,1,0.538,0,42,42,82,1,,,,,,,,,,,,,,,,,,,,,,,,,,,,,,,,,,,,,,,,,,,,,,,,,
,,,,,,,,,,107,different,6,0.273779233,0.16426754,cyan,1,-0.16426754,-0.273779233,magenta,1,-0.054755847,0.054755847,black,1,0.16426754,-0.054755847,blue,1,0.16426754,0.054755847,green,1,-0.273779233,-0.16426754,yellow,1,0.05,0.05,0.15,0.16426754,0.054755847,blue,l,peppe,25,2020-09-01_18h34.18.558,CDT_GNG_IUS12,2020.1.2,MacIntel,60,,l,1,1.002,0,43,43,106,1,,,,,,,,,,,,,,,,,,,,,,,,,,,,,,,,,,,,,,,,,,,,,,,,,
,,,,,,,,,,77,same,6,0.273779233,0.273779233,black,1,-0.273779233,-0.16426754,red,1,0.16426754,-0.054755847,magenta,1,-0.054755847,0.16426754,cyan,1,0.16426754,0.273779233,orange,1,-0.16426754,-0.273779233,blue,1,0.05,0.05,0.15,-0.273779233,-0.16426754,red,k,peppe,25,2020-09-01_18h34.18.558,CDT_GNG_IUS12,2020.1.2,MacIntel,60,,l,0,3.021,0,44,44,76,1,,,,,,,,,,,,,,,,,,,,,,,,,,,,,,,,,,,,,,,,,,,,,,,,,
,,,,,,,,,,75,same,6,0.16426754,0.273779233,magenta,1,-0.273779233,-0.16426754,green,1,-0.273779233,0.16426754,yellow,1,0.054755847,-0.054755847,red,1,0.273779233,0.054755847,blue,1,-0.16426754,-0.054755847,cyan,1,0.05,0.05,0.15,0.054755847,-0.054755847,red,k,peppe,25,2020-09-01_18h34.18.558,CDT_GNG_IUS12,2020.1.2,MacIntel,60,,k,1,0.45,0,45,45,74,1,,,,,,,,,,,,,,,,,,,,,,,,,,,,,,,,,,,,,,,,,,,,,,,,,
,,,,,,,,,,66,same,6,0.273779233,-0.273779233,cyan,1,-0.273779233,-0.054755847,black,1,-0.273779233,0.054755847,yellow,1,0.273779233,0.16426754,green,1,0.054755847,-0.16426754,orange,1,-0.273779233,-0.16426754,magenta,1,0.05,0.05,0.15,0.273779233,0.16426754,green,k,peppe,25,2020-09-01_18h34.18.558,CDT_GNG_IUS12,2020.1.2,MacIntel,60,,k,1,0.752,0,46,46,65,1,,,,,,,,,,,,,,,,,,,,,,,,,,,,,,,,,,,,,,,,,,,,,,,,,
,,,,,,,,,,61,same,6,0.273779233,0.16426754,cyan,1,0.273779233,-0.273779233,blue,1,-0.16426754,-0.16426754,green,1,-0.16426754,0.273779233,black,1,0.16426754,0.054755847,red,1,0.273779233,-0.16426754,yellow,1,0.05,0.05,0.15,0.273779233,-0.16426754,yellow,k,peppe,25,2020-09-01_18h34.18.558,CDT_GNG_IUS12,2020.1.2,MacIntel,60,,k,1,0.706,0,47,47,60,1,,,,,,,,,,,,,,,,,,,,,,,,,,,,,,,,,,,,,,,,,,,,,,,,,
,,,,,,,,,,120,different,6,0.16426754,-0.054755847,blue,1,-0.16426754,-0.273779233,cyan,1,0.16426754,0.16426754,magenta,1,-0.273779233,0.273779233,black,1,0.273779233,-0.16426754,green,1,-0.273779233,-0.16426754,orange,1,0.05,0.05,0.15,0.16426754,0.16426754,yellow,l,peppe,25,2020-09-01_18h34.18.558,CDT_GNG_IUS12,2020.1.2,MacIntel,60,,l,1,0.669,0,48,48,119,1,,,,,,,,,,,,,,,,,,,,,,,,,,,,,,,,,,,,,,,,,,,,,,,,,
,,,,,,,,,,16,same,4,0.16426754,0.16426754,cyan,1,-0.16426754,-0.273779233,red,1,-0.16426754,0.16426754,black,1,0.273779233,-0.054755847,yellow,1,0.273779233,0.273779233,orange,0,-0.054755847,-0.273779233,blue,0,0.05,0.05,0.15,-0.16426754,-0.273779233,red,k,peppe,25,2020-09-01_18h34.18.558,CDT_GNG_IUS12,2020.1.2,MacIntel,60,,k,1,0.852,0,49,49,15,1,,,,,,,,,,,,,,,,,,,,,,,,,,,,,,,,,,,,,,,,,,,,,,,,,
,,,,,,,,,,28,same,4,0.16426754,-0.273779233,yellow,1,-0.054755847,0.16426754,black,1,0.16426754,0.054755847,cyan,1,-0.273779233,-0.16426754,blue,1,0.273779233,-0.273779233,orange,0,-0.054755847,0.054755847,magenta,0,0.05,0.05,0.15,-0.054755847,0.16426754,black,k,peppe,25,2020-09-01_18h34.18.558,CDT_GNG_IUS12,2020.1.2,MacIntel,60,,k,1,0.555,0,50,50,27,1,,,,,,,,,,,,,,,,,,,,,,,,,,,,,,,,,,,,,,,,,,,,,,,,,
,,,,,,,,,,31,different,4,-0.16426754,0.16426754,blue,1,0.16426754,-0.054755847,magenta,1,-0.16426754,-0.054755847,yellow,1,0.054755847,0.273779233,black,1,-0.273779233,0.054755847,red,0,0.273779233,-0.273779233,cyan,0,0.05,0.05,0.15,-0.16426754,-0.054755847,black,l,peppe,25,2020-09-01_18h34.18.558,CDT_GNG_IUS12,2020.1.2,MacIntel,60,,l,1,0.516,0,51,51,30,1,,,,,,,,,,,,,,,,,,,,,,,,,,,,,,,,,,,,,,,,,,,,,,,,,
,,,,,,,,,,14,same,4,0.16426754,0.16426754,magenta,1,-0.16426754,0.16426754,blue,1,0.16426754,-0.16426754,green,1,-0.16426754,-0.16426754,red,1,0.16426754,0.273779233,cyan,0,-0.16426754,0.273779233,orange,0,0.05,0.05,0.15,-0.16426754,0.16426754,blue,k,peppe,25,2020-09-01_18h34.18.558,CDT_GNG_IUS12,2020.1.2,MacIntel,60,,k,1,0.517,0,52,52,13,1,,,,,,,,,,,,,,,,,,,,,,,,,,,,,,,,,,,,,,,,,,,,,,,,,
,,,,,,,,,,99,different,6,0.054755847,0.16426754,orange,1,0.16426754,-0.16426754,yellow,1,-0.16426754,0.273779233,red,1,-0.273779233,-0.054755847,magenta,1,0.16426754,0.054755847,black,1,0.054755847,-0.054755847,green,1,0.05,0.05,0.15,-0.16426754,0.273779233,blue,l,peppe,25,2020-09-01_18h34.18.558,CDT_GNG_IUS12,2020.1.2,MacIntel,60,,l,1,1.483,0,53,53,98,1,,,,,,,,,,,,,,,,,,,,,,,,,,,,,,,,,,,,,,,,,,,,,,,,,
,,,,,,,,,,72,same,6,0.273779233,-0.16426754,blue,1,0.16426754,0.273779233,yellow,1,-0.16426754,0.273779233,magenta,1,-0.273779233,-0.054755847,orange,1,0.054755847,-0.16426754,cyan,1,0.273779233,0.054755847,black,1,0.05,0.05,0.15,-0.16426754,0.273779233,magenta,k,peppe,25,2020-09-01_18h34.18.558,CDT_GNG_IUS12,2020.1.2,MacIntel,60,,l,0,1.318,0,54,54,71,1,,,,,,,,,,,,,,,,,,,,,,,,,,,,,,,,,,,,,,,,,,,,,,,,,
,,,,,,,,,,46,different,4,-0.16426754,0.273779233,yellow,1,-0.16426754,-0.16426754,green,1,0.16426754,0.054755847,black,1,0.273779233,-0.054755847,red,1,-0.16426754,0.16426754,blue,0,-0.273779233,-0.054755847,cyan,0,0.05,0.05,0.15,0.16426754,0.054755847,cyan,l,peppe,25,2020-09-01_18h34.18.558,CDT_GNG_IUS12,2020.1.2,MacIntel,60,,l,1,0.557,0,55,55,45,1,,,,,,,,,,,,,,,,,,,,,,,,,,,,,,,,,,,,,,,,,,,,,,,,,
,,,,,,,,,,23,same,4,0.273779233,-0.16426754,yellow,1,0.054755847,0.273779233,red,1,-0.054755847,0.054755847,black,1,-0.273779233,-0.054755847,orange,1,0.273779233,-0.054755847,green,0,0.273779233,0.054755847,magenta,0,0.05,0.05,0.15,-0.054755847,0.054755847,black,k,peppe,25,2020-09-01_18h34.18.558,CDT_GNG_IUS12,2020.1.2,MacIntel,60,,k,1,0.557,0,56,56,22,1,,,,,,,,,,,,,,,,,,,,,,,,,,,,,,,,,,,,,,,,,,,,,,,,,
,,,,,,,,,,42,different,4,0.273779233,0.16426754,cyan,1,-0.054755847,0.16426754,magenta,1,0.16426754,-0.054755847,green,1,-0.16426754,-0.16426754,red,1,0.16426754,0.273779233,black,0,-0.054755847,0.273779233,yellow,0,0.05,0.05,0.15,0.273779233,0.16426754,blue,l,peppe,25,2020-09-01_18h34.18.558,CDT_GNG_IUS12,2020.1.2,MacIntel,60,,k,0,0.834,0,57,57,41,1,,,,,,,,,,,,,,,,,,,,,,,,,,,,,,,,,,,,,,,,,,,,,,,,,
,,,,,,,,,,114,different,6,-0.16426754,0.16426754,black,1,-0.054755847,-0.273779233,orange,1,0.054755847,0.16426754,magenta,1,0.273779233,-0.16426754,green,1,-0.054755847,0.16426754,cyan,1,-0.273779233,-0.273779233,yellow,1,0.05,0.05,0.15,0.054755847,0.16426754,blue,l,peppe,25,2020-09-01_18h34.18.558,CDT_GNG_IUS12,2020.1.2,MacIntel,60,,l,1,1.102,0,58,58,113,1,,,,,,,,,,,,,,,,,,,,,,,,,,,,,,,,,,,,,,,,,,,,,,,,,
,,,,,,,,,,97,different,6,-0.273779233,-0.273779233,orange,1,0.054755847,-0.273779233,blue,1,0.16426754,0.16426754,green,1,-0.16426754,0.054755847,cyan,1,-0.16426754,-0.16426754,black,1,0.273779233,-0.16426754,yellow,1,0.05,0.05,0.15,-0.16426754,0.054755847,yellow,l,peppe,25,2020-09-01_18h34.18.558,CDT_GNG_IUS12,2020.1.2,MacIntel,60,s,k,0,1.391,0,59,59,96,1,13.109,,,,,,,,,,,,,,,,,,,,,,,,,,,,,,,,,,,,,,,,,,,,,,,,
,,,,,,,,,,64,same,6,0.16426754,0.273779233,black,1,-0.16426754,-0.16426754,orange,1,0.16426754,-0.16426754,red,1,-0.273779233,0.054755847,magenta,1,0.054755847,0.16426754,cyan,1,-0.054755847,-0.16426754,yellow,1,0.05,0.05,0.15,0.16426754,0.273779233,black,k,peppe,25,2020-09-01_18h34.18.558,CDT_GNG_IUS12,2020.1.2,MacIntel,60,,k,1,0.969,0,60,60,63,1,,,,,,,,,,,,,,,,,,,,,,,,,,,,,,,,,,,,,,,,,,,,,,,,,
,,,,,,,,,,104,different,6,0.054755847,-0.16426754,magenta,1,0.273779233,0.273779233,yellow,1,-0.273779233,0.273779233,blue,1,-0.16426754,-0.054755847,cyan,1,0.16426754,-0.054755847,orange,1,0.273779233,0.16426754,green,1,0.05,0.05,0.15,0.054755847,-0.16426754,cyan,l,peppe,25,2020-09-01_18h34.18.558,CDT_GNG_IUS12,2020.1.2,MacIntel,60,,l,1,1.625,0,61,61,103,1,,,,,,,,,,,,,,,,,,,,,,,,,,,,,,,,,,,,,,,,,,,,,,,,,
,,,,,,,,,,59,different,4,0.16426754,-0.16426754,red,1,-0.054755847,-0.16426754,cyan,1,0.054755847,0.16426754,yellow,1,-0.16426754,0.273779233,green,1,0.16426754,-0.054755847,orange,0,-0.16426754,-0.054755847,black,0,0.05,0.05,0.15,-0.16426754,0.273779233,black,l,peppe,25,2020-09-01_18h34.18.558,CDT_GNG_IUS12,2020.1.2,MacIntel,60,,k,0,0.957,0,62,62,58,1,,,,,,,,,,,,,,,,,,,,,,,,,,,,,,,,,,,,,,,,,,,,,,,,,
,,,,,,,,,,2,same,4,0.273779233,0.054755847,magenta,1,-0.273779233,0.273779233,red,1,-0.054755847,-0.054755847,yellow,1,0.273779233,-0.273779233,blue,1,0.054755847,0.16426754,green,0,-0.16426754,0.054755847,cyan,0,0.05,0.05,0.15,0.273779233,-0.273779233,blue,k,peppe,25,2020-09-01_18h34.18.558,CDT_GNG_IUS12,2020.1.2,MacIntel,60,,l,0,1.088,0,63,63,1,1,,,,,,,,,,,,,,,,,,,,,,,,,,,,,,,,,,,,,,,,,,,,,,,,,
,,,,,,,,,,13,same,4,0.16426754,0.273779233,orange,1,0.054755847,-0.273779233,blue,1,-0.054755847,0.054755847,magenta,1,-0.054755847,-0.16426754,black,1,0.054755847,0.16426754,yellow,0,0.16426754,-0.054755847,cyan,0,0.05,0.05,0.15,0.054755847,-0.273779233,blue,k,peppe,25,2020-09-01_18h34.18.558,CDT_GNG_IUS12,2020.1.2,MacIntel,60,,k,1,0.401,0,64,64,12,1,,,,,,,,,,,,,,,,,,,,,,,,,,,,,,,,,,,,,,,,,,,,,,,,,
,,,,,,,,,,96,different,6,-0.16426754,-0.16426754,green,1,-0.16426754,0.054755847,black,1,0.054755847,0.16426754,cyan,1,0.16426754,-0.273779233,yellow,1,-0.273779233,-0.273779233,blue,1,-0.054755847,0.054755847,red,1,0.05,0.05,0.15,-0.16426754,0.054755847,magenta,l,peppe,25,2020-09-01_18h34.18.558,CDT_GNG_IUS12,2020.1.2,MacIntel,60,,l,1,0.823,0,65,65,95,1,,,,,,,,,,,,,,,,,,,,,,,,,,,,,,,,,,,,,,,,,,,,,,,,,
,,,,,,,,,,82,same,6,-0.054755847,-0.16426754,red,1,0.273779233,-0.054755847,cyan,1,0.16426754,0.273779233,blue,1,-0.054755847,0.054755847,black,1,-0.16426754,-0.16426754,yellow,1,0.273779233,-0.16426754,green,1,0.05,0.05,0.15,-0.16426754,-0.16426754,yellow,k,peppe,25,2020-09-01_18h34.18.558,CDT_GNG_IUS12,2020.1.2,MacIntel,60,,k,1,0.883,0,66,66,81,1,,,,,,,,,,,,,,,,,,,,,,,,,,,,,,,,,,,,,,,,,,,,,,,,,
,,,,,,,,,,36,different,4,-0.16426754,-0.054755847,cyan,1,0.16426754,0.054755847,red,1,0.16426754,-0.054755847,black,1,-0.273779233,0.273779233,orange,1,-0.054755847,-0.054755847,yellow,0,0.273779233,0.273779233,green,0,0.05,0.05,0.15,0.16426754,-0.054755847,orange,l,peppe,25,2020-09-01_18h34.18.558,CDT_GNG_IUS12,2020.1.2,MacIntel,60,,k,0,0.889,0,67,67,35,1,,,,,,,,,,,,,,,,,,,,,,,,,,,,,,,,,,,,,,,,,,,,,,,,,
,,,,,,,,,,89,same,6,-0.054755847,-0.273779233,cyan,1,-0.16426754,0.16426754,green,1,0.273779233,0.273779233,black,1,0.273779233,-0.273779233,orange,1,-0.273779233,-0.16426754,magenta,1,-0.16426754,0.273779233,yellow,1,0.05,0.05,0.15,-0.16426754,0.273779233,yellow,k,peppe,25,2020-09-01_18h34.18.558,CDT_GNG_IUS12,2020.1.2,MacIntel,60,,k,1,0.568,0,68,68,88,1,,,,,,,,,,,,,,,,,,,,,,,,,,,,,,,,,,,,,,,,,,,,,,,,,
,,,,,,,,,,95,different,6,-0.273779233,-0.16426754,magenta,1,0.16426754,0.273779233,green,1,-0.273779233,0.273779233,black,1,0.16426754,-0.273779233,orange,1,-0.054755847,-0.16426754,blue,1,0.16426754,0.054755847,cyan,1,0.05,0.05,0.15,0.16426754,0.273779233,black,l,peppe,25,2020-09-01_18h34.18.558,CDT_GNG_IUS12,2020.1.2,MacIntel,60,,l,1,1.039,0,69,69,94,1,,,,,,,,,,,,,,,,,,,,,,,,,,,,,,,,,,,,,,,,,,,,,,,,,
,,,,,,,,,,41,different,4,0.054755847,-0.273779233,orange,1,-0.273779233,0.054755847,blue,1,-0.054755847,-0.16426754,yellow,1,0.273779233,0.16426754,red,1,0.273779233,-0.273779233,black,0,-0.273779233,0.273779233,magenta,0,0.05,0.05,0.15,-0.054755847,-0.16426754,black,l,peppe,25,2020-09-01_18h34.18.558,CDT_GNG_IUS12,2020.1.2,MacIntel,60,,l,1,0.756,0,70,70,40,1,,,,,,,,,,,,,,,,,,,,,,,,,,,,,,,,,,,,,,,,,,,,,,,,,
,,,,,,,,,,30,same,4,0.16426754,0.16426754,blue,1,0.054755847,-0.054755847,green,1,-0.273779233,-0.16426754,black,1,-0.054755847,0.273779233,yellow,1,0.16426754,0.273779233,red,0,0.16426754,-0.16426754,magenta,0,0.05,0.05,0.15,0.054755847,-0.054755847,green,k,peppe,25,2020-09-01_18h34.18.558,CDT_GNG_IUS12,2020.1.2,MacIntel,60,,k,1,0.607,0,71,71,29,1,,,,,,,,,,,,,,,,,,,,,,,,,,,,,,,,,,,,,,,,,,,,,,,,,
,,,,,,,,,,79,same,6,0.054755847,-0.16426754,black,1,-0.054755847,-0.273779233,yellow,1,-0.273779233,0.273779233,red,1,0.054755847,0.054755847,magenta,1,0.16426754,-0.054755847,cyan,1,-0.16426754,-0.054755847,orange,1,0.05,0.05,0.15,0.054755847,0.054755847,magenta,k,peppe,25,2020-09-01_18h34.18.558,CDT_GNG_IUS12,2020.1.2,MacIntel,60,,k,1,0.486,0,72,72,78,1,,,,,,,,,,,,,,,,,,,,,,,,,,,,,,,,,,,,,,,,,,,,,,,,,
,,,,,,,,,,54,different,4,-0.054755847,-0.054755847,black,1,0.054755847,0.054755847,cyan,1,0.273779233,-0.16426754,green,1,-0.273779233,0.16426754,magenta,1,-0.054755847,-0.16426754,orange,0,0.054755847,0.16426754,blue,0,0.05,0.05,0.15,-0.273779233,0.16426754,orange,l,peppe,25,2020-09-01_18h34.18.558,CDT_GNG_IUS12,2020.1.2,MacIntel,60,,l,1,1.05,0,73,73,53,1,,,,,,,,,,,,,,,,,,,,,,,,,,,,,,,,,,,,,,,,,,,,,,,,,
,,,,,,,,,,118,different,6,-0.16426754,-0.16426754,red,1,0.273779233,0.16426754,orange,1,-0.16426754,0.273779233,cyan,1,0.16426754,-0.273779233,black,1,-0.054755847,-0.054755847,yellow,1,0.054755847,0.054755847,green,1,0.05,0.05,0.15,-0.054755847,-0.054755847,magenta,l,peppe,25,2020-09-01_18h34.18.558,CDT_GNG_IUS12,2020.1.2,MacIntel,60,,l,1,1.218,0,74,74,117,1,,,,,,,,,,,,,,,,,,,,,,,,,,,,,,,,,,,,,,,,,,,,,,,,,
,,,,,,,,,,60,different,4,0.273779233,0.273779233,red,1,-0.273779233,-0.054755847,blue,1,-0.273779233,0.054755847,magenta,1,0.054755847,-0.273779233,black,1,0.273779233,0.054755847,orange,0,-0.054755847,-0.16426754,yellow,0,0.05,0.05,0.15,-0.273779233,0.054755847,yellow,l,peppe,25,2020-09-01_18h34.18.558,CDT_GNG_IUS12,2020.1.2,MacIntel,60,,l,1,0.621,0,75,75,59,1,,,,,,,,,,,,,,,,,,,,,,,,,,,,,,,,,,,,,,,,,,,,,,,,,
,,,,,,,,,,49,different,4,-0.16426754,-0.273779233,black,1,0.16426754,0.16426754,red,1,-0.273779233,0.16426754,yellow,1,0.054755847,-0.273779233,green,1,-0.273779233,-0.273779233,magenta,0,0.054755847,0.273779233,blue,0,0.05,0.05,0.15,0.054755847,-0.273779233,orange,l,peppe,25,2020-09-01_18h34.18.558,CDT_GNG_IUS12,2020.1.2,MacIntel,60,,k,0,1.716,0,76,76,48,1,,,,,,,,,,,,,,,,,,,,,,,,,,,,,,,,,,,,,,,,,,,,,,,,,
,,,,,,,,,,76,same,6,0.16426754,0.054755847,cyan,1,0.273779233,-0.273779233,red,1,-0.054755847,-0.273779233,magenta,1,-0.054755847,0.16426754,yellow,1,0.054755847,0.273779233,blue,1,0.054755847,-0.273779233,green,1,0.05,0.05,0.15,0.16426754,0.054755847,cyan,k,peppe,25,2020-09-01_18h34.18.558,CDT_GNG_IUS12,2020.1.2,MacIntel,60,,k,1,0.541,0,77,77,75,1,,,,,,,,,,,,,,,,,,,,,,,,,,,,,,,,,,,,,,,,,,,,,,,,,
,,,,,,,,,,19,same,4,-0.054755847,-0.16426754,orange,1,-0.273779233,0.273779233,red,1,0.273779233,0.054755847,yellow,1,0.273779233,-0.16426754,magenta,1,-0.273779233,-0.054755847,black,0,-0.054755847,0.273779233,blue,0,0.05,0.05,0.15,0.273779233,-0.16426754,magenta,k,peppe,25,2020-09-01_18h34.18.558,CDT_GNG_IUS12,2020.1.2,MacIntel,60,,k,1,1.036,0,78,78,18,1,,,,,,,,,,,,,,,,,,,,,,,,,,,,,,,,,,,,,,,,,,,,,,,,,
,,,,,,,,,,32,different,4,-0.054755847,-0.273779233,green,1,-0.273779233,0.16426754,black,1,0.16426754,0.16426754,cyan,1,0.273779233,-0.16426754,yellow,1,-0.054755847,-0.054755847,blue,0,-0.054755847,0.273779233,orange,0,0.05,0.05,0.15,-0.054755847,-0.273779233,red,l,peppe,25,2020-09-01_18h34.18.558,CDT_GNG_IUS12,2020.1.2,MacIntel,60,,l,1,0.571,0,79,79,31,1,,,,,,,,,,,,,,,,,,,,,,,,,,,,,,,,,,,,,,,,,,,,,,,,,
,,,,,,,,,,73,same,6,0.054755847,0.16426754,blue,1,-0.273779233,0.273779233,red,1,-0.273779233,-0.16426754,green,1,0.054755847,-0.054755847,orange,1,0.16426754,0.16426754,black,1,-0.054755847,0.16426754,magenta,1,0.05,0.05,0.15,-0.273779233,0.273779233,red,k,peppe,25,2020-09-01_18h34.18.558,CDT_GNG_IUS12,2020.1.2,MacIntel,60,,l,0,1.07,0,80,80,72,1,,,,,,,,,,,,,,,,,,,,,,,,,,,,,,,,,,,,,,,,,,,,,,,,,
,,,,,,,,,,44,different,4,0.16426754,0.16426754,green,1,0.16426754,-0.16426754,black,1,-0.16426754,-0.054755847,cyan,1,-0.16426754,0.054755847,magenta,1,0.16426754,0.054755847,blue,0,0.054755847,-0.273779233,yellow,0,0.05,0.05,0.15,0.16426754,0.16426754,red,l,peppe,25,2020-09-01_18h34.18.558,CDT_GNG_IUS12,2020.1.2,MacIntel,60,,l,1,0.837,0,81,81,43,1,,,,,,,,,,,,,,,,,,,,,,,,,,,,,,,,,,,,,,,,,,,,,,,,,
,,,,,,,,,,68,same,6,0.16426754,-0.054755847,blue,1,-0.054755847,-0.16426754,orange,1,-0.16426754,0.054755847,red,1,0.16426754,0.273779233,magenta,1,0.054755847,-0.054755847,black,1,-0.273779233,-0.273779233,yellow,1,0.05,0.05,0.15,-0.054755847,-0.16426754,orange,k,peppe,25,2020-09-01_18h34.18.558,CDT_GNG_IUS12,2020.1.2,MacIntel,60,,l,0,1.384,0,82,82,67,1,,,,,,,,,,,,,,,,,,,,,,,,,,,,,,,,,,,,,,,,,,,,,,,,,
,,,,,,,,,,98,different,6,-0.054755847,-0.16426754,magenta,1,0.273779233,0.273779233,green,1,0.273779233,-0.273779233,red,1,-0.16426754,0.273779233,blue,1,-0.273779233,-0.16426754,cyan,1,0.273779233,0.054755847,black,1,0.05,0.05,0.15,-0.16426754,0.273779233,cyan,l,peppe,25,2020-09-01_18h34.18.558,CDT_GNG_IUS12,2020.1.2,MacIntel,60,,k,0,1.125,0,83,83,97,1,,,,,,,,,,,,,,,,,,,,,,,,,,,,,,,,,,,,,,,,,,,,,,,,,
,,,,,,,,,,18,same,4,-0.054755847,0.273779233,black,1,-0.16426754,-0.16426754,cyan,1,0.054755847,0.16426754,red,1,0.273779233,-0.273779233,magenta,1,-0.16426754,0.273779233,orange,0,-0.054755847,-0.273779233,green,0,0.05,0.05,0.15,0.273779233,-0.273779233,magenta,k,peppe,25,2020-09-01_18h34.18.558,CDT_GNG_IUS12,2020.1.2,MacIntel,60,,l,0,1.801,0,84,84,17,1,,,,,,,,,,,,,,,,,,,,,,,,,,,,,,,,,,,,,,,,,,,,,,,,,
,,,,,,,,,,1,same,4,-0.16426754,-0.273779233,orange,1,0.054755847,0.16426754,yellow,1,-0.16426754,0.16426754,green,1,0.054755847,-0.054755847,red,1,-0.273779233,-0.16426754,cyan,0,0.16426754,0.16426754,blue,0,0.05,0.05,0.15,0.054755847,0.16426754,yellow,k,peppe,25,2020-09-01_18h34.18.558,CDT_GNG_IUS12,2020.1.2,MacIntel,60,,l,0,1.374,0,85,85,0,1,,,,,,,,,,,,,,,,,,,,,,,,,,,,,,,,,,,,,,,,,,,,,,,,,
,,,,,,,,,,71,same,6,-0.054755847,-0.16426754,orange,1,0.273779233,0.054755847,green,1,0.16426754,-0.16426754,yellow,1,-0.054755847,0.054755847,blue,1,-0.054755847,-0.273779233,black,1,0.054755847,0.16426754,cyan,1,0.05,0.05,0.15,-0.054755847,0.054755847,blue,k,peppe,25,2020-09-01_18h34.18.558,CDT_GNG_IUS12,2020.1.2,MacIntel,60,,k,1,0.704,0,86,86,70,1,,,,,,,,,,,,,,,,,,,,,,,,,,,,,,,,,,,,,,,,,,,,,,,,,
,,,,,,,,,,70,same,6,0.16426754,0.16426754,cyan,1,0.273779233,-0.273779233,red,1,-0.16426754,0.16426754,yellow,1,-0.273779233,-0.273779233,green,1,0.16426754,0.054755847,magenta,1,0.16426754,-0.054755847,blue,1,0.05,0.05,0.15,0.273779233,-0.273779233,red,k,peppe,25,2020-09-01_18h34.18.558,CDT_GNG_IUS12,2020.1.2,MacIntel,60,,k,1,1.407,0,87,87,69,1,,,,,,,,,,,,,,,,,,,,,,,,,,,,,,,,,,,,,,,,,,,,,,,,,
,,,,,,,,,,74,same,6,-0.273779233,-0.273779233,magenta,1,0.16426754,0.054755847,cyan,1,-0.16426754,0.273779233,black,1,0.273779233,-0.054755847,yellow,1,-0.16426754,-0.16426754,red,1,0.054755847,0.273779233,green,1,0.05,0.05,0.15,-0.16426754,-0.16426754,red,k,peppe,25,2020-09-01_18h34.18.558,CDT_GNG_IUS12,2020.1.2,MacIntel,60,,k,1,0.498,0,88,88,73,1,,,,,,,,,,,,,,,,,,,,,,,,,,,,,,,,,,,,,,,,,,,,,,,,,
,,,,,,,,,,57,different,4,-0.273779233,-0.054755847,yellow,1,0.16426754,-0.054755847,green,1,-0.273779233,0.16426754,red,1,0.273779233,0.054755847,black,1,-0.16426754,-0.054755847,orange,0,0.054755847,-0.16426754,magenta,0,0.05,0.05,0.15,0.16426754,-0.054755847,orange,l,peppe,25,2020-09-01_18h34.18.558,CDT_GNG_IUS12,2020.1.2,MacIntel,60,,l,1,0.714,0,89,89,56,1,,,,,,,,,,,,,,,,,,,,,,,,,,,,,,,,,,,,,,,,,,,,,,,,,
,,,,,,,,,,86,same,6,0.054755847,0.273779233,green,1,-0.054755847,0.273779233,red,1,0.16426754,-0.16426754,yellow,1,-0.054755847,-0.273779233,black,1,0.273779233,0.273779233,cyan,1,-0.273779233,0.054755847,orange,1,0.05,0.05,0.15,-0.273779233,0.054755847,orange,k,peppe,25,2020-09-01_18h34.18.558,CDT_GNG_IUS12,2020.1.2,MacIntel,60,,k,1,1.367,0,90,90,85,1,,,,,,,,,,,,,,,,,,,,,,,,,,,,,,,,,,,,,,,,,,,,,,,,,
,,,,,,,,,,78,same,6,0.054755847,0.054755847,black,1,-0.054755847,0.16426754,red,1,0.273779233,-0.273779233,blue,1,-0.054755847,-0.054755847,magenta,1,0.16426754,0.054755847,yellow,1,-0.273779233,0.16426754,cyan,1,0.05,0.05,0.15,-0.054755847,0.16426754,red,k,peppe,25,2020-09-01_18h34.18.558,CDT_GNG_IUS12,2020.1.2,MacIntel,60,,l,0,0.701,0,91,91,77,1,,,,,,,,,,,,,,,,,,,,,,,,,,,,,,,,,,,,,,,,,,,,,,,,,
,,,,,,,,,,10,same,4,0.273779233,0.273779233,green,1,-0.16426754,-0.054755847,yellow,1,-0.16426754,0.16426754,cyan,1,0.273779233,-0.16426754,blue,1,0.273779233,0.054755847,orange,0,-0.273779233,-0.16426754,red,0,0.05,0.05,0.15,0.273779233,0.273779233,green,k,peppe,25,2020-09-01_18h34.18.558,CDT_GNG_IUS12,2020.1.2,MacIntel,60,,l,0,0.805,0,92,92,9,1,,,,,,,,,,,,,,,,,,,,,,,,,,,,,,,,,,,,,,,,,,,,,,,,,
,,,,,,,,,,63,same,6,-0.273779233,0.273779233,red,1,-0.273779233,-0.16426754,orange,1,0.054755847,-0.273779233,black,1,0.16426754,0.16426754,cyan,1,-0.054755847,0.054755847,blue,1,-0.273779233,-0.054755847,magenta,1,0.05,0.05,0.15,-0.273779233,-0.054755847,magenta,k,peppe,25,2020-09-01_18h34.18.558,CDT_GNG_IUS12,2020.1.2,MacIntel,60,,l,0,0.624,0,93,93,62,1,,,,,,,,,,,,,,,,,,,,,,,,,,,,,,,,,,,,,,,,,,,,,,,,,
,,,,,,,,,,94,different,6,0.273779233,-0.273779233,green,1,-0.16426754,-0.054755847,black,1,-0.273779233,0.16426754,blue,1,0.273779233,0.054755847,cyan,1,0.16426754,-0.16426754,magenta,1,-0.054755847,-0.054755847,orange,1,0.05,0.05,0.15,0.273779233,-0.273779233,magenta,l,peppe,25,2020-09-01_18h34.18.558,CDT_GNG_IUS12,2020.1.2,MacIntel,60,,l,1,0.934,0,94,94,93,1,,,,,,,,,,,,,,,,,,,,,,,,,,,,,,,,,,,,,,,,,,,,,,,,,
,,,,,,,,,,8,same,4,0.16426754,-0.16426754,blue,1,-0.16426754,-0.054755847,red,1,-0.273779233,0.16426754,green,1,0.054755847,0.054755847,cyan,1,0.16426754,-0.273779233,magenta,0,-0.054755847,-0.054755847,orange,0,0.05,0.05,0.15,-0.273779233,0.16426754,green,k,peppe,25,2020-09-01_18h34.18.558,CDT_GNG_IUS12,2020.1.2,MacIntel,60,,l,0,1.414,0,95,95,7,1,,,,,,,,,,,,,,,,,,,,,,,,,,,,,,,,,,,,,,,,,,,,,,,,,
,,,,,,,,,,53,different,4,-0.16426754,0.054755847,green,1,0.273779233,0.054755847,cyan,1,-0.273779233,-0.273779233,magenta,1,0.054755847,-0.16426754,black,1,-0.054755847,0.16426754,red,0,0.273779233,0.273779233,blue,0,0.05,0.05,0.15,-0.273779233,-0.273779233,black,l,peppe,25,2020-09-01_18h34.18.558,CDT_GNG_IUS12,2020.1.2,MacIntel,60,,l,1,1.05,0,96,96,52,1,,,,,,,,,,,,,,,,,,,,,,,,,,,,,,,,,,,,,,,,,,,,,,,,,
,,,,,,,,,,5,same,4,0.273779233,-0.054755847,green,1,0.273779233,0.054755847,orange,1,-0.054755847,0.054755847,black,1,-0.054755847,-0.16426754,blue,1,0.054755847,-0.054755847,cyan,0,0.054755847,0.273779233,red,0,0.05,0.05,0.15,-0.054755847,-0.16426754,blue,k,peppe,25,2020-09-01_18h34.18.558,CDT_GNG_IUS12,2020.1.2,MacIntel,60,,k,1,0.538,0,97,97,4,1,,,,,,,,,,,,,,,,,,,,,,,,,,,,,,,,,,,,,,,,,,,,,,,,,
,,,,,,,,,,119,different,6,-0.273779233,0.054755847,cyan,1,-0.273779233,-0.273779233,blue,1,0.16426754,0.054755847,orange,1,0.054755847,-0.16426754,yellow,1,-0.273779233,0.273779233,black,1,-0.054755847,-0.054755847,green,1,0.05,0.05,0.15,-0.273779233,-0.273779233,cyan,l,peppe,25,2020-09-01_18h34.18.558,CDT_GNG_IUS12,2020.1.2,MacIntel,60,,l,1,1.319,0,98,98,118,1,,,,,,,,,,,,,,,,,,,,,,,,,,,,,,,,,,,,,,,,,,,,,,,,,
,,,,,,,,,,103,different,6,-0.273779233,-0.16426754,black,1,0.273779233,-0.054755847,cyan,1,0.054755847,0.273779233,magenta,1,-0.054755847,0.16426754,orange,1,-0.16426754,-0.16426754,green,1,0.273779233,-0.16426754,red,1,0.05,0.05,0.15,-0.273779233,-0.16426754,blue,l,peppe,25,2020-09-01_18h34.18.558,CDT_GNG_IUS12,2020.1.2,MacIntel,60,,l,1,0.955,0,99,99,102,1,,,,,,,,,,,,,,,,,,,,,,,,,,,,,,,,,,,,,,,,,,,,,,,,,
,,,,,,,,,,25,same,4,0.16426754,-0.273779233,green,1,-0.16426754,-0.273779233,black,1,0.16426754,0.054755847,cyan,1,-0.273779233,0.273779233,blue,1,0.054755847,-0.273779233,yellow,0,-0.273779233,-0.273779233,red,0,0.05,0.05,0.15,-0.273779233,0.273779233,blue,k,peppe,25,2020-09-01_18h34.18.558,CDT_GNG_IUS12,2020.1.2,MacIntel,60,,l,0,1.973,0,100,100,24,1,,,,,,,,,,,,,,,,,,,,,,,,,,,,,,,,,,,,,,,,,,,,,,,,,
,,,,,,,,,,17,same,4,0.16426754,0.273779233,yellow,1,-0.054755847,0.16426754,orange,1,0.273779233,-0.054755847,cyan,1,-0.273779233,-0.054755847,green,1,0.16426754,0.16426754,blue,0,-0.054755847,0.273779233,magenta,0,0.05,0.05,0.15,0.16426754,0.273779233,yellow,k,peppe,25,2020-09-01_18h34.18.558,CDT_GNG_IUS12,2020.1.2,MacIntel,60,,k,1,0.603,0,101,101,16,1,,,,,,,,,,,,,,,,,,,,,,,,,,,,,,,,,,,,,,,,,,,,,,,,,
,,,,,,,,,,6,same,4,0.273779233,0.273779233,blue,1,-0.273779233,-0.16426754,magenta,1,-0.054755847,0.054755847,green,1,0.054755847,-0.054755847,black,1,0.054755847,0.054755847,orange,0,-0.054755847,-0.054755847,red,0,0.05,0.05,0.15,-0.054755847,0.054755847,green,k,peppe,25,2020-09-01_18h34.18.558,CDT_GNG_IUS12,2020.1.2,MacIntel,60,,k,1,0.457,0,102,102,5,1,,,,,,,,,,,,,,,,,,,,,,,,,,,,,,,,,,,,,,,,,,,,,,,,,
,,,,,,,,,,7,same,4,-0.16426754,-0.054755847,yellow,1,0.273779233,0.16426754,magenta,1,-0.16426754,0.054755847,cyan,1,0.054755847,-0.054755847,black,1,-0.054755847,-0.054755847,orange,0,0.273779233,0.273779233,blue,0,0.05,0.05,0.15,0.054755847,-0.054755847,black,k,peppe,25,2020-09-01_18h34.18.558,CDT_GNG_IUS12,2020.1.2,MacIntel,60,,k,1,0.537,0,103,103,6,1,,,,,,,,,,,,,,,,,,,,,,,,,,,,,,,,,,,,,,,,,,,,,,,,,
,,,,,,,,,,93,different,6,-0.16426754,0.16426754,red,1,0.054755847,-0.054755847,black,1,-0.054755847,-0.16426754,blue,1,0.054755847,0.273779233,magenta,1,-0.054755847,0.054755847,orange,1,0.16426754,-0.054755847,cyan,1,0.05,0.05,0.15,-0.054755847,-0.16426754,black,l,peppe,25,2020-09-01_18h34.18.558,CDT_GNG_IUS12,2020.1.2,MacIntel,60,,l,1,0.737,0,104,104,92,1,,,,,,,,,,,,,,,,,,,,,,,,,,,,,,,,,,,,,,,,,,,,,,,,,
,,,,,,,,,,56,different,4,0.16426754,0.054755847,red,1,-0.054755847,0.16426754,orange,1,0.16426754,-0.16426754,black,1,-0.273779233,-0.054755847,yellow,1,0.16426754,0.273779233,blue,0,-0.054755847,0.273779233,magenta,0,0.05,0.05,0.15,-0.273779233,-0.054755847,green,l,peppe,25,2020-09-01_18h34.18.558,CDT_GNG_IUS12,2020.1.2,MacIntel,60,,l,1,0.986,0,105,105,55,1,,,,,,,,,,,,,,,,,,,,,,,,,,,,,,,,,,,,,,,,,,,,,,,,,
,,,,,,,,,,9,same,4,-0.16426754,0.054755847,cyan,1,0.16426754,-0.16426754,magenta,1,-0.273779233,-0.054755847,black,1,0.054755847,0.054755847,green,1,-0.273779233,0.16426754,orange,0,0.273779233,-0.273779233,red,0,0.05,0.05,0.15,-0.273779233,-0.054755847,black,k,peppe,25,2020-09-01_18h34.18.558,CDT_GNG_IUS12,2020.1.2,MacIntel,60,,k,1,0.88,0,106,106,8,1,,,,,,,,,,,,,,,,,,,,,,,,,,,,,,,,,,,,,,,,,,,,,,,,,
,,,,,,,,,,81,same,6,-0.273779233,-0.273779233,green,1,-0.273779233,0.16426754,blue,1,0.054755847,-0.16426754,black,1,0.273779233,0.054755847,cyan,1,-0.16426754,-0.273779233,orange,1,-0.054755847,0.054755847,red,1,0.05,0.05,0.15,0.054755847,-0.16426754,black,k,peppe,25,2020-09-01_18h34.18.558,CDT_GNG_IUS12,2020.1.2,MacIntel,60,,k,1,0.602,0,107,107,80,1,,,,,,,,,,,,,,,,,,,,,,,,,,,,,,,,,,,,,,,,,,,,,,,,,
,,,,,,,,,,58,different,4,-0.16426754,0.273779233,blue,1,0.16426754,0.273779233,yellow,1,0.273779233,-0.16426754,black,1,-0.16426754,-0.054755847,cyan,1,-0.16426754,0.16426754,green,0,0.16426754,0.054755847,orange,0,0.05,0.05,0.15,0.273779233,-0.16426754,magenta,l,peppe,25,2020-09-01_18h34.18.558,CDT_GNG_IUS12,2020.1.2,MacIntel,60,,l,1,0.474,0,108,108,57,1,,,,,,,,,,,,,,,,,,,,,,,,,,,,,,,,,,,,,,,,,,,,,,,,,
,,,,,,,,,,21,same,4,0.273779233,0.273779233,black,1,-0.273779233,-0.273779233,blue,1,0.054755847,-0.16426754,yellow,1,-0.273779233,0.054755847,cyan,1,0.16426754,0.273779233,magenta,0,-0.054755847,-0.054755847,green,0,0.05,0.05,0.15,0.273779233,0.273779233,black,k,peppe,25,2020-09-01_18h34.18.558,CDT_GNG_IUS12,2020.1.2,MacIntel,60,,l,0,0.622,0,109,109,20,1,,,,,,,,,,,,,,,,,,,,,,,,,,,,,,,,,,,,,,,,,,,,,,,,,
,,,,,,,,,,84,same,6,-0.273779233,-0.16426754,black,1,0.273779233,0.273779233,blue,1,-0.054755847,0.054755847,red,1,0.16426754,-0.054755847,orange,1,-0.16426754,-0.16426754,cyan,1,0.16426754,0.16426754,magenta,1,0.05,0.05,0.15,-0.16426754,-0.16426754,cyan,k,peppe,25,2020-09-01_18h34.18.558,CDT_GNG_IUS12,2020.1.2,MacIntel,60,,l,0,1.385,0,110,110,83,1,,,,,,,,,,,,,,,,,,,,,,,,,,,,,,,,,,,,,,,,,,,,,,,,,
,,,,,,,,,,48,different,4,0.16426754,0.273779233,cyan,1,-0.054755847,-0.273779233,magenta,1,0.16426754,-0.054755847,orange,1,-0.273779233,0.273779233,blue,1,0.273779233,0.16426754,red,0,-0.054755847,-0.16426754,green,0,0.05,0.05,0.15,0.16426754,-0.054755847,red,l,peppe,25,2020-09-01_18h34.18.558,CDT_GNG_IUS12,2020.1.2,MacIntel,60,,l,1,0.584,0,111,111,47,1,,,,,,,,,,,,,,,,,,,,,,,,,,,,,,,,,,,,,,,,,,,,,,,,,
,,,,,,,,,,22,same,4,-0.054755847,-0.16426754,green,1,-0.16426754,0.054755847,blue,1,0.16426754,0.16426754,yellow,1,0.273779233,-0.054755847,black,1,-0.273779233,-0.054755847,red,0,-0.054755847,0.16426754,cyan,0,0.05,0.05,0.15,0.273779233,-0.054755847,black,k,peppe,25,2020-09-01_18h34.18.558,CDT_GNG_IUS12,2020.1.2,MacIntel,60,,k,1,0.551,0,112,112,21,1,,,,,,,,,,,,,,,,,,,,,,,,,,,,,,,,,,,,,,,,,,,,,,,,,
,,,,,,,,,,109,different,6,-0.273779233,-0.16426754,blue,1,0.054755847,-0.16426754,black,1,-0.054755847,0.054755847,cyan,1,0.054755847,0.16426754,green,1,-0.054755847,-0.054755847,yellow,1,0.16426754,-0.273779233,orange,1,0.05,0.05,0.15,-0.273779233,-0.16426754,green,l,peppe,25,2020-09-01_18h34.18.558,CDT_GNG_IUS12,2020.1.2,MacIntel,60,,k,0,0.957,0,113,113,108,1,,,,,,,,,,,,,,,,,,,,,,,,,,,,,,,,,,,,,,,,,,,,,,,,,
,,,,,,,,,,110,different,6,-0.273779233,0.273779233,black,1,0.273779233,-0.16426754,red,1,0.054755847,0.273779233,cyan,1,-0.273779233,-0.16426754,orange,1,-0.054755847,0.054755847,magenta,1,0.16426754,-0.054755847,yellow,1,0.05,0.05,0.15,0.273779233,-0.16426754,yellow,l,peppe,25,2020-09-01_18h34.18.558,CDT_GNG_IUS12,2020.1.2,MacIntel,60,,l,1,0.522,0,114,114,109,1,,,,,,,,,,,,,,,,,,,,,,,,,,,,,,,,,,,,,,,,,,,,,,,,,
,,,,,,,,,,65,same,6,-0.273779233,-0.16426754,cyan,1,-0.054755847,0.054755847,blue,1,0.054755847,-0.054755847,red,1,0.273779233,0.054755847,green,1,-0.16426754,-0.054755847,orange,1,-0.273779233,0.273779233,yellow,1,0.05,0.05,0.15,-0.273779233,-0.16426754,cyan,k,peppe,25,2020-09-01_18h34.18.558,CDT_GNG_IUS12,2020.1.2,MacIntel,60,,k,1,0.8,0,115,115,64,1,,,,,,,,,,,,,,,,,,,,,,,,,,,,,,,,,,,,,,,,,,,,,,,,,
,,,,,,,,,,69,same,6,-0.054755847,-0.054755847,black,1,0.273779233,-0.054755847,orange,1,-0.273779233,0.16426754,blue,1,0.054755847,0.054755847,yellow,1,-0.16426754,-0.16426754,green,1,0.054755847,-0.16426754,magenta,1,0.05,0.05,0.15,-0.16426754,-0.16426754,green,k,peppe,25,2020-09-01_18h34.18.558,CDT_GNG_IUS12,2020.1.2,MacIntel,60,,l,0,0.95,0,116,116,68,1,,,,,,,,,,,,,,,,,,,,,,,,,,,,,,,,,,,,,,,,,,,,,,,,,
,,,,,,,,,,111,different,6,0.273779233,0.273779233,green,1,0.054755847,-0.16426754,red,1,-0.16426754,-0.16426754,black,1,-0.16426754,0.16426754,magenta,1,0.054755847,0.054755847,blue,1,0.273779233,-0.16426754,yellow,1,0.05,0.05,0.15,0.273779233,-0.16426754,green,l,peppe,25,2020-09-01_18h34.18.558,CDT_GNG_IUS12,2020.1.2,MacIntel,60,,l,1,0.907,0,117,117,110,1,,,,,,,,,,,,,,,,,,,,,,,,,,,,,,,,,,,,,,,,,,,,,,,,,
,,,,,,,,,,106,different,6,0.054755847,-0.16426754,blue,1,-0.273779233,-0.273779233,magenta,1,0.273779233,0.273779233,yellow,1,-0.273779233,0.054755847,orange,1,0.054755847,-0.054755847,green,1,-0.054755847,-0.16426754,black,1,0.05,0.05,0.15,0.054755847,-0.054755847,cyan,l,peppe,25,2020-09-01_18h34.18.558,CDT_GNG_IUS12,2020.1.2,MacIntel,60,,k,0,0.54,0,118,118,105,1,,,,,,,,,,,,,,,,,,,,,,,,,,,,,,,,,,,,,,,,,,,,,,,,,
,,,,,,,,,,39,different,4,0.054755847,0.054755847,green,1,0.273779233,-0.16426754,yellow,1,-0.16426754,0.054755847,orange,1,-0.273779233,-0.054755847,red,1,0.273779233,0.054755847,blue,0,0.054755847,-0.16426754,cyan,0,0.05,0.05,0.15,-0.273779233,-0.054755847,cyan,l,peppe,25,2020-09-01_18h34.18.558,CDT_GNG_IUS12,2020.1.2,MacIntel,60,,k,0,1.253,0,119,119,38,1,,,,,,,,,,,,,,,,,,,,,,,,,,,,,,,,,,,,,,,,,,,,,,,,,
,,,,,,,,,,,,,,,,,,,,,,,,,,,,,,,,,,,,,,,,,,,space,peppe,25,2020-09-01_18h34.18.558,CDT_GNG_IUS12,2020.1.2,MacIntel,60,,,,,,,,,,,space,1,0.461,0,0,0,4,1,0,1,,,,,,,,,,,,,,,,,,,,,,,,,,,,,,,,,,,,,,
,,,,,,,,,,,,,,,,,,,,,,,,,,,,,,,,,,,,,,,,,,,,peppe,25,2020-09-01_18h34.18.558,CDT_GNG_IUS12,2020.1.2,MacIntel,60,,,,,,,,,,,,1,,0,1,1,1,1,1,0,,,,,,,,,,,,,,,,,,,,,,,,,,,,,,,,,,,,,,
,,,,,,,,,,,,,,,,,,,,,,,,,,,,,,,,,,,,,,,,,,,,peppe,25,2020-09-01_18h34.18.558,CDT_GNG_IUS12,2020.1.2,MacIntel,60,,,,,,,,,,,,1,,0,2,2,2,1,1,0,,,,,,,,,,,,,,,,,,,,,,,,,,,,,,,,,,,,,,
,,,,,,,,,,,,,,,,,,,,,,,,,,,,,,,,,,,,,,,,,,,,peppe,25,2020-09-01_18h34.18.558,CDT_GNG_IUS12,2020.1.2,MacIntel,60,,,,,,,,,,,,1,,0,3,3,3,1,1,0,,,,,,,,,,,,,,,,,,,,,,,,,,,,,,,,,,,,,,
,,,,,,,,,,,,,,,,,,,,,,,,,,,,,,,,,,,,,,,,,,,space,peppe,25,2020-09-01_18h34.18.558,CDT_GNG_IUS12,2020.1.2,MacIntel,60,,,,,,,,,,,space,1,0.339,0,4,4,6,1,0,1,,,,,,,,,,,,,,,,,,,,,,,,,,,,,,,,,,,,,,
,,,,,,,,,,,,,,,,,,,,,,,,,,,,,,,,,,,,,,,,,,,,peppe,25,2020-09-01_18h34.18.558,CDT_GNG_IUS12,2020.1.2,MacIntel,60,,,,,,,,,,,,1,,0,5,5,0,1,1,0,,,,,,,,,,,,,,,,,,,,,,,,,,,,,,,,,,,,,,
,,,,,,,,,,,,,,,,,,,,,,,,,,,,,,,,,,,,,,,,,,,space,peppe,25,2020-09-01_18h34.18.558,CDT_GNG_IUS12,2020.1.2,MacIntel,60,,,,,,,,,,,space,1,0.699,0,6,6,7,1,0,1,,,,,,,,,,,,,,,,,,,,,,,,,,,,,,,,,,,,,,
,,,,,,,,,,,,,,,,,,,,,,,,,,,,,,,,,,,,,,,,,,,space,peppe,25,2020-09-01_18h34.18.558,CDT_GNG_IUS12,2020.1.2,MacIntel,60,,,,,,,,,,,space,1,0.368,0,7,7,5,1,0,1,,,,,,,,,,,,,,,,,,,,,,,,,,,,,,,,,,,,,,
,,,,,,,,,,,,,,,,,,,,,,,,,,,,,,,,,,,,,,,,,,,space,peppe,25,2020-09-01_18h34.18.558,CDT_GNG_IUS12,2020.1.2,MacIntel,60,,,,,,,,,,,,,,,,,,,0,1,space,1,0.395,0,0,0,21,1,,,,,,,,,,,,,,,,,,,,,,,,,,,,,,
,,,,,,,,,,,,,,,,,,,,,,,,,,,,,,,,,,,,,,,,,,,space,peppe,25,2020-09-01_18h34.18.558,CDT_GNG_IUS12,2020.1.2,MacIntel,60,,,,,,,,,,,,,,,,,,,0,1,space,1,0.319,0,1,1,35,1,,,,,,,,,,,,,,,,,,,,,,,,,,,,,,
,,,,,,,,,,,,,,,,,,,,,,,,,,,,,,,,,,,,,,,,,,,space,peppe,25,2020-09-01_18h34.18.558,CDT_GNG_IUS12,2020.1.2,MacIntel,60,,,,,,,,,,,,,,,,,,,0,1,space,1,0.288,0,2,2,14,1,,,,,,,,,,,,,,,,,,,,,,,,,,,,,,
,,,,,,,,,,,,,,,,,,,,,,,,,,,,,,,,,,,,,,,,,,,space,peppe,25,2020-09-01_18h34.18.558,CDT_GNG_IUS12,2020.1.2,MacIntel,60,,,,,,,,,,,,,,,,,,,0,1,space,1,0.263,0,3,3,10,1,,,,,,,,,,,,,,,,,,,,,,,,,,,,,,
,,,,,,,,,,,,,,,,,,,,,,,,,,,,,,,,,,,,,,,,,,,space,peppe,25,2020-09-01_18h34.18.558,CDT_GNG_IUS12,2020.1.2,MacIntel,60,,,,,,,,,,,,,,,,,,,0,1,space,1,0.354,0,4,4,13,1,,,,,,,,,,,,,,,,,,,,,,,,,,,,,,
,,,,,,,,,,,,,,,,,,,,,,,,,,,,,,,,,,,,,,,,,,,space,peppe,25,2020-09-01_18h34.18.558,CDT_GNG_IUS12,2020.1.2,MacIntel,60,,,,,,,,,,,,,,,,,,,0,1,space,1,0.422,0,5,5,42,1,,,,,,,,,,,,,,,,,,,,,,,,,,,,,,
,,,,,,,,,,,,,,,,,,,,,,,,,,,,,,,,,,,,,,,,,,,space,peppe,25,2020-09-01_18h34.18.558,CDT_GNG_IUS12,2020.1.2,MacIntel,60,,,,,,,,,,,,,,,,,,,0,1,space,1,0.438,0,6,6,38,1,,,,,,,,,,,,,,,,,,,,,,,,,,,,,,
,,,,,,,,,,,,,,,,,,,,,,,,,,,,,,,,,,,,,,,,,,,space,peppe,25,2020-09-01_18h34.18.558,CDT_GNG_IUS12,2020.1.2,MacIntel,60,,,,,,,,,,,,,,,,,,,0,1,space,1,0.497,0,7,7,33,1,,,,,,,,,,,,,,,,,,,,,,,,,,,,,,
,,,,,,,,,,,,,,,,,,,,,,,,,,,,,,,,,,,,,,,,,,,space,peppe,25,2020-09-01_18h34.18.558,CDT_GNG_IUS12,2020.1.2,MacIntel,60,,,,,,,,,,,,,,,,,,,0,1,space,1,0.481,0,8,8,29,1,,,,,,,,,,,,,,,,,,,,,,,,,,,,,,
,,,,,,,,,,,,,,,,,,,,,,,,,,,,,,,,,,,,,,,,,,,space,peppe,25,2020-09-01_18h34.18.558,CDT_GNG_IUS12,2020.1.2,MacIntel,60,,,,,,,,,,,,,,,,,,,0,1,space,1,0.448,0,9,9,31,1,,,,,,,,,,,,,,,,,,,,,,,,,,,,,,
,,,,,,,,,,,,,,,,,,,,,,,,,,,,,,,,,,,,,,,,,,,space,peppe,25,2020-09-01_18h34.18.558,CDT_GNG_IUS12,2020.1.2,MacIntel,60,,,,,,,,,,,,,,,,,,,0,1,space,1,0.449,0,10,10,48,1,,,,,,,,,,,,,,,,,,,,,,,,,,,,,,
,,,,,,,,,,,,,,,,,,,,,,,,,,,,,,,,,,,,,,,,,,,space,peppe,25,2020-09-01_18h34.18.558,CDT_GNG_IUS12,2020.1.2,MacIntel,60,,,,,,,,,,,,,,,,,,,0,1,space,1,0.485,0,11,11,45,1,,,,,,,,,,,,,,,,,,,,,,,,,,,,,,
,,,,,,,,,,,,,,,,,,,,,,,,,,,,,,,,,,,,,,,,,,,space,peppe,25,2020-09-01_18h34.18.558,CDT_GNG_IUS12,2020.1.2,MacIntel,60,,,,,,,,,,,,,,,,,,,0,1,space,1,0.487,0,12,12,43,1,,,,,,,,,,,,,,,,,,,,,,,,,,,,,,
,,,,,,,,,,,,,,,,,,,,,,,,,,,,,,,,,,,,,,,,,,,space,peppe,25,2020-09-01_18h34.18.558,CDT_GNG_IUS12,2020.1.2,MacIntel,60,,,,,,,,,,,,,,,,,,,0,1,space,1,0.48,0,13,13,39,1,,,,,,,,,,,,,,,,,,,,,,,,,,,,,,
,,,,,,,,,,,,,,,,,,,,,,,,,,,,,,,,,,,,,,,,,,,space,peppe,25,2020-09-01_18h34.18.558,CDT_GNG_IUS12,2020.1.2,MacIntel,60,,,,,,,,,,,,,,,,,,,0,1,space,1,0.532,0,14,14,44,1,,,,,,,,,,,,,,,,,,,,,,,,,,,,,,
,,,,,,,,,,,,,,,,,,,,,,,,,,,,,,,,,,,,,,,,,,,space,peppe,25,2020-09-01_18h34.18.558,CDT_GNG_IUS12,2020.1.2,MacIntel,60,,,,,,,,,,,,,,,,,,,0,1,,0,,0,15,15,25,1,,,,,,,,,,,,,,,,,,,,,,,,,,,,,,
,,,,,,,,,,,,,,,,,,,,,,,,,,,,,,,,,,,,,,,,,,,space,peppe,25,2020-09-01_18h34.18.558,CDT_GNG_IUS12,2020.1.2,MacIntel,60,,,,,,,,,,,,,,,,,,,0,1,space,1,0.034,0,16,16,36,1,,,,,,,,,,,,,,,,,,,,,,,,,,,,,,
,,,,,,,,,,,,,,,,,,,,,,,,,,,,,,,,,,,,,,,,,,,,peppe,25,2020-09-01_18h34.18.558,CDT_GNG_IUS12,2020.1.2,MacIntel,60,,,,,,,,,,,,,,,,,,,1,0,space,0,0.13,0,17,17,3,1,,,,,,,,,,,,,,,,,,,,,,,,,,,,,,
,,,,,,,,,,,,,,,,,,,,,,,,,,,,,,,,,,,,,,,,,,,space,peppe,25,2020-09-01_18h34.18.558,CDT_GNG_IUS12,2020.1.2,MacIntel,60,,,,,,,,,,,,,,,,,,,0,1,space,1,0.298,0,18,18,22,1,,,,,,,,,,,,,,,,,,,,,,,,,,,,,,
,,,,,,,,,,,,,,,,,,,,,,,,,,,,,,,,,,,,,,,,,,,space,peppe,25,2020-09-01_18h34.18.558,CDT_GNG_IUS12,2020.1.2,MacIntel,60,,,,,,,,,,,,,,,,,,,0,1,space,1,0.306,0,19,19,37,1,,,,,,,,,,,,,,,,,,,,,,,,,,,,,,
,,,,,,,,,,,,,,,,,,,,,,,,,,,,,,,,,,,,,,,,,,,,peppe,25,2020-09-01_18h34.18.558,CDT_GNG_IUS12,2020.1.2,MacIntel,60,,,,,,,,,,,,,,,,,,,1,0,,1,,0,20,20,8,1,,,,,,,,,,,,,,,,,,,,,,,,,,,,,,
,,,,,,,,,,,,,,,,,,,,,,,,,,,,,,,,,,,,,,,,,,,space,peppe,25,2020-09-01_18h34.18.558,CDT_GNG_IUS12,2020.1.2,MacIntel,60,,,,,,,,,,,,,,,,,,,0,1,,0,,0,21,21,34,1,,,,,,,,,,,,,,,,,,,,,,,,,,,,,,
,,,,,,,,,,,,,,,,,,,,,,,,,,,,,,,,,,,,,,,,,,,space,peppe,25,2020-09-01_18h34.18.558,CDT_GNG_IUS12,2020.1.2,MacIntel,60,,,,,,,,,,,,,,,,,,,0,1,space,1,0.381,0,22,22,18,1,,,,,,,,,,,,,,,,,,,,,,,,,,,,,,
,,,,,,,,,,,,,,,,,,,,,,,,,,,,,,,,,,,,,,,,,,,space,peppe,25,2020-09-01_18h34.18.558,CDT_GNG_IUS12,2020.1.2,MacIntel,60,,,,,,,,,,,,,,,,,,,0,1,space,1,0.365,0,23,23,47,1,,,,,,,,,,,,,,,,,,,,,,,,,,,,,,
,,,,,,,,,,,,,,,,,,,,,,,,,,,,,,,,,,,,,,,,,,,,peppe,25,2020-09-01_18h34.18.558,CDT_GNG_IUS12,2020.1.2,MacIntel,60,,,,,,,,,,,,,,,,,,,1,0,,1,,0,24,24,4,1,,,,,,,,,,,,,,,,,,,,,,,,,,,,,,
,,,,,,,,,,,,,,,,,,,,,,,,,,,,,,,,,,,,,,,,,,,space,peppe,25,2020-09-01_18h34.18.558,CDT_GNG_IUS12,2020.1.2,MacIntel,60,,,,,,,,,,,,,,,,,,,0,1,space,1,0.322,0,25,25,40,1,,,,,,,,,,,,,,,,,,,,,,,,,,,,,,
,,,,,,,,,,,,,,,,,,,,,,,,,,,,,,,,,,,,,,,,,,,space,peppe,25,2020-09-01_18h34.18.558,CDT_GNG_IUS12,2020.1.2,MacIntel,60,,,,,,,,,,,,,,,,,,,0,1,space,1,0.268,0,26,26,49,1,,,,,,,,,,,,,,,,,,,,,,,,,,,,,,
,,,,,,,,,,,,,,,,,,,,,,,,,,,,,,,,,,,,,,,,,,,,peppe,25,2020-09-01_18h34.18.558,CDT_GNG_IUS12,2020.1.2,MacIntel,60,,,,,,,,,,,,,,,,,,,1,0,,1,,0,27,27,1,1,,,,,,,,,,,,,,,,,,,,,,,,,,,,,,
,,,,,,,,,,,,,,,,,,,,,,,,,,,,,,,,,,,,,,,,,,,,peppe,25,2020-09-01_18h34.18.558,CDT_GNG_IUS12,2020.1.2,MacIntel,60,,,,,,,,,,,,,,,,,,,1,0,space,0,0.214,0,28,28,7,1,,,,,,,,,,,,,,,,,,,,,,,,,,,,,,
,,,,,,,,,,,,,,,,,,,,,,,,,,,,,,,,,,,,,,,,,,,space,peppe,25,2020-09-01_18h34.18.558,CDT_GNG_IUS12,2020.1.2,MacIntel,60,,,,,,,,,,,,,,,,,,,0,1,space,1,0.216,0,29,29,46,1,,,,,,,,,,,,,,,,,,,,,,,,,,,,,,
,,,,,,,,,,,,,,,,,,,,,,,,,,,,,,,,,,,,,,,,,,,space,peppe,25,2020-09-01_18h34.18.558,CDT_GNG_IUS12,2020.1.2,MacIntel,60,,,,,,,,,,,,,,,,,,,0,1,space,1,0.355,0,30,30,30,1,,,,,,,,,,,,,,,,,,,,,,,,,,,,,,
,,,,,,,,,,,,,,,,,,,,,,,,,,,,,,,,,,,,,,,,,,,space,peppe,25,2020-09-01_18h34.18.558,CDT_GNG_IUS12,2020.1.2,MacIntel,60,,,,,,,,,,,,,,,,,,,0,1,space,1,0.27,0,31,31,11,1,,,,,,,,,,,,,,,,,,,,,,,,,,,,,,
,,,,,,,,,,,,,,,,,,,,,,,,,,,,,,,,,,,,,,,,,,,space,peppe,25,2020-09-01_18h34.18.558,CDT_GNG_IUS12,2020.1.2,MacIntel,60,,,,,,,,,,,,,,,,,,,0,1,space,1,0.255,0,32,32,27,1,,,,,,,,,,,,,,,,,,,,,,,,,,,,,,
,,,,,,,,,,,,,,,,,,,,,,,,,,,,,,,,,,,,,,,,,,,space,peppe,25,2020-09-01_18h34.18.558,CDT_GNG_IUS12,2020.1.2,MacIntel,60,,,,,,,,,,,,,,,,,,,0,1,space,1,0.251,0,33,33,12,1,,,,,,,,,,,,,,,,,,,,,,,,,,,,,,
,,,,,,,,,,,,,,,,,,,,,,,,,,,,,,,,,,,,,,,,,,,space,peppe,25,2020-09-01_18h34.18.558,CDT_GNG_IUS12,2020.1.2,MacIntel,60,,,,,,,,,,,,,,,,,,,0,1,space,1,0.265,0,34,34,23,1,,,,,,,,,,,,,,,,,,,,,,,,,,,,,,
,,,,,,,,,,,,,,,,,,,,,,,,,,,,,,,,,,,,,,,,,,,space,peppe,25,2020-09-01_18h34.18.558,CDT_GNG_IUS12,2020.1.2,MacIntel,60,,,,,,,,,,,,,,,,,,,0,1,space,1,0.252,0,35,35,16,1,,,,,,,,,,,,,,,,,,,,,,,,,,,,,,
,,,,,,,,,,,,,,,,,,,,,,,,,,,,,,,,,,,,,,,,,,,space,peppe,25,2020-09-01_18h34.18.558,CDT_GNG_IUS12,2020.1.2,MacIntel,60,,,,,,,,,,,,,,,,,,,0,1,space,1,0.286,0,36,36,32,1,,,,,,,,,,,,,,,,,,,,,,,,,,,,,,
,,,,,,,,,,,,,,,,,,,,,,,,,,,,,,,,,,,,,,,,,,,,peppe,25,2020-09-01_18h34.18.558,CDT_GNG_IUS12,2020.1.2,MacIntel,60,,,,,,,,,,,,,,,,,,,1,0,space,0,0.251,0,37,37,2,1,,,,,,,,,,,,,,,,,,,,,,,,,,,,,,
,,,,,,,,,,,,,,,,,,,,,,,,,,,,,,,,,,,,,,,,,,,,peppe,25,2020-09-01_18h34.18.558,CDT_GNG_IUS12,2020.1.2,MacIntel,60,,,,,,,,,,,,,,,,,,,1,0,space,0,0.172,0,38,38,9,1,,,,,,,,,,,,,,,,,,,,,,,,,,,,,,
,,,,,,,,,,,,,,,,,,,,,,,,,,,,,,,,,,,,,,,,,,,space,peppe,25,2020-09-01_18h34.18.558,CDT_GNG_IUS12,2020.1.2,MacIntel,60,,,,,,,,,,,,,,,,,,,0,1,space,1,0.232,0,39,39,15,1,,,,,,,,,,,,,,,,,,,,,,,,,,,,,,
,,,,,,,,,,,,,,,,,,,,,,,,,,,,,,,,,,,,,,,,,,,,peppe,25,2020-09-01_18h34.18.558,CDT_GNG_IUS12,2020.1.2,MacIntel,60,,,,,,,,,,,,,,,,,,,1,0,space,0,0.214,0,40,40,5,1,,,,,,,,,,,,,,,,,,,,,,,,,,,,,,
,,,,,,,,,,,,,,,,,,,,,,,,,,,,,,,,,,,,,,,,,,,space,peppe,25,2020-09-01_18h34.18.558,CDT_GNG_IUS12,2020.1.2,MacIntel,60,,,,,,,,,,,,,,,,,,,0,1,space,1,0.205,0,41,41,24,1,,,,,,,,,,,,,,,,,,,,,,,,,,,,,,
,,,,,,,,,,,,,,,,,,,,,,,,,,,,,,,,,,,,,,,,,,,space,peppe,25,2020-09-01_18h34.18.558,CDT_GNG_IUS12,2020.1.2,MacIntel,60,,,,,,,,,,,,,,,,,,,0,1,space,1,0.238,0,42,42,26,1,,,,,,,,,,,,,,,,,,,,,,,,,,,,,,
,,,,,,,,,,,,,,,,,,,,,,,,,,,,,,,,,,,,,,,,,,,,peppe,25,2020-09-01_18h34.18.558,CDT_GNG_IUS12,2020.1.2,MacIntel,60,,,,,,,,,,,,,,,,,,,1,0,space,0,0.238,0,43,43,6,1,,,,,,,,,,,,,,,,,,,,,,,,,,,,,,
,,,,,,,,,,,,,,,,,,,,,,,,,,,,,,,,,,,,,,,,,,,space,peppe,25,2020-09-01_18h34.18.558,CDT_GNG_IUS12,2020.1.2,MacIntel,60,,,,,,,,,,,,,,,,,,,0,1,space,1,0.153,0,44,44,41,1,,,,,,,,,,,,,,,,,,,,,,,,,,,,,,
,,,,,,,,,,,,,,,,,,,,,,,,,,,,,,,,,,,,,,,,,,,space,peppe,25,2020-09-01_18h34.18.558,CDT_GNG_IUS12,2020.1.2,MacIntel,60,,,,,,,,,,,,,,,,,,,0,1,space,1,0.252,0,45,45,20,1,,,,,,,,,,,,,,,,,,,,,,,,,,,,,,
,,,,,,,,,,,,,,,,,,,,,,,,,,,,,,,,,,,,,,,,,,,,peppe,25,2020-09-01_18h34.18.558,CDT_GNG_IUS12,2020.1.2,MacIntel,60,,,,,,,,,,,,,,,,,,,1,0,,1,,0,46,46,0,1,,,,,,,,,,,,,,,,,,,,,,,,,,,,,,
,,,,,,,,,,,,,,,,,,,,,,,,,,,,,,,,,,,,,,,,,,,space,peppe,25,2020-09-01_18h34.18.558,CDT_GNG_IUS12,2020.1.2,MacIntel,60,,,,,,,,,,,,,,,,,,,0,1,space,1,0.268,0,47,47,19,1,,,,,,,,,,,,,,,,,,,,,,,,,,,,,,
,,,,,,,,,,,,,,,,,,,,,,,,,,,,,,,,,,,,,,,,,,,space,peppe,25,2020-09-01_18h34.18.558,CDT_GNG_IUS12,2020.1.2,MacIntel,60,,,,,,,,,,,,,,,,,,,0,1,space,1,0.267,0,48,48,17,1,,,,,,,,,,,,,,,,,,,,,,,,,,,,,,
,,,,,,,,,,,,,,,,,,,,,,,,,,,,,,,,,,,,,,,,,,,space,peppe,25,2020-09-01_18h34.18.558,CDT_GNG_IUS12,2020.1.2,MacIntel,60,,,,,,,,,,,,,,,,,,,0,1,space,1,0.265,0,49,49,28,1,,,,,,,,,,,,,,,,,,,,,,,,,,,,,,
,,,,,,,,,,,,,,,,,,,,,,,,,,,,,,,,,,,,,,,,,,,space,peppe,25,2020-09-01_18h34.18.558,CDT_GNG_IUS12,2020.1.2,MacIntel,60,,,,,,,,,,,,,,,,,,,0,1,space,1,0.337,,,,,,0,0,0,35,1,,,,,,,,,,,,,,,,,,,,,,,,,
,,,,,,,,,,,,,,,,,,,,,,,,,,,,,,,,,,,,,,,,,,,space,peppe,25,2020-09-01_18h34.18.558,CDT_GNG_IUS12,2020.1.2,MacIntel,60,,,,,,,,,,,,,,,,,,,0,1,space,1,0.333,,,,,,0,1,1,18,1,,,,,,,,,,,,,,,,,,,,,,,,,
,,,,,,,,,,,,,,,,,,,,,,,,,,,,,,,,,,,,,,,,,,,space,peppe,25,2020-09-01_18h34.18.558,CDT_GNG_IUS12,2020.1.2,MacIntel,60,,,,,,,,,,,,,,,,,,,0,1,space,1,0.348,,,,,,0,2,2,36,1,,,,,,,,,,,,,,,,,,,,,,,,,
,,,,,,,,,,,,,,,,,,,,,,,,,,,,,,,,,,,,,,,,,,,space,peppe,25,2020-09-01_18h34.18.558,CDT_GNG_IUS12,2020.1.2,MacIntel,60,,,,,,,,,,,,,,,,,,,0,1,space,1,0.356,,,,,,0,3,3,13,1,,,,,,,,,,,,,,,,,,,,,,,,,
,,,,,,,,,,,,,,,,,,,,,,,,,,,,,,,,,,,,,,,,,,,space,peppe,25,2020-09-01_18h34.18.558,CDT_GNG_IUS12,2020.1.2,MacIntel,60,,,,,,,,,,,,,,,,,,,0,1,space,1,0.331,,,,,,0,4,4,43,1,,,,,,,,,,,,,,,,,,,,,,,,,
,,,,,,,,,,,,,,,,,,,,,,,,,,,,,,,,,,,,,,,,,,,space,peppe,25,2020-09-01_18h34.18.558,CDT_GNG_IUS12,2020.1.2,MacIntel,60,,,,,,,,,,,,,,,,,,,0,1,space,1,0.321,,,,,,0,5,5,11,1,,,,,,,,,,,,,,,,,,,,,,,,,
,,,,,,,,,,,,,,,,,,,,,,,,,,,,,,,,,,,,,,,,,,,space,peppe,25,2020-09-01_18h34.18.558,CDT_GNG_IUS12,2020.1.2,MacIntel,60,,,,,,,,,,,,,,,,,,,0,1,space,1,0.299,,,,,,0,6,6,41,1,,,,,,,,,,,,,,,,,,,,,,,,,
,,,,,,,,,,,,,,,,,,,,,,,,,,,,,,,,,,,,,,,,,,,space,peppe,25,2020-09-01_18h34.18.558,CDT_GNG_IUS12,2020.1.2,MacIntel,60,,,,,,,,,,,,,,,,,,,0,1,space,1,0.305,,,,,,0,7,7,46,1,,,,,,,,,,,,,,,,,,,,,,,,,
,,,,,,,,,,,,,,,,,,,,,,,,,,,,,,,,,,,,,,,,,,,space,peppe,25,2020-09-01_18h34.18.558,CDT_GNG_IUS12,2020.1.2,MacIntel,60,,,,,,,,,,,,,,,,,,,0,1,space,1,0.332,,,,,,0,8,8,15,1,,,,,,,,,,,,,,,,,,,,,,,,,
,,,,,,,,,,,,,,,,,,,,,,,,,,,,,,,,,,,,,,,,,,,space,peppe,25,2020-09-01_18h34.18.558,CDT_GNG_IUS12,2020.1.2,MacIntel,60,,,,,,,,,,,,,,,,,,,0,1,space,1,0.33,,,,,,0,9,9,40,1,,,,,,,,,,,,,,,,,,,,,,,,,
,,,,,,,,,,,,,,,,,,,,,,,,,,,,,,,,,,,,,,,,,,,,peppe,25,2020-09-01_18h34.18.558,CDT_GNG_IUS12,2020.1.2,MacIntel,60,,,,,,,,,,,,,,,,,,,1,0,,1,,,,,,,0,10,10,3,1,,,,,,,,,,,,,,,,,,,,,,,,,
,,,,,,,,,,,,,,,,,,,,,,,,,,,,,,,,,,,,,,,,,,,,peppe,25,2020-09-01_18h34.18.558,CDT_GNG_IUS12,2020.1.2,MacIntel,60,,,,,,,,,,,,,,,,,,,1,0,space,0,0.268,,,,,,0,11,11,6,1,,,,,,,,,,,,,,,,,,,,,,,,,
,,,,,,,,,,,,,,,,,,,,,,,,,,,,,,,,,,,,,,,,,,,,peppe,25,2020-09-01_18h34.18.558,CDT_GNG_IUS12,2020.1.2,MacIntel,60,,,,,,,,,,,,,,,,,,,1,0,space,0,0.03,,,,,,0,12,12,5,1,,,,,,,,,,,,,,,,,,,,,,,,,
,,,,,,,,,,,,,,,,,,,,,,,,,,,,,,,,,,,,,,,,,,,space,peppe,25,2020-09-01_18h34.18.558,CDT_GNG_IUS12,2020.1.2,MacIntel,60,,,,,,,,,,,,,,,,,,,0,1,space,1,0.333,,,,,,0,13,13,27,1,,,,,,,,,,,,,,,,,,,,,,,,,
,,,,,,,,,,,,,,,,,,,,,,,,,,,,,,,,,,,,,,,,,,,space,peppe,25,2020-09-01_18h34.18.558,CDT_GNG_IUS12,2020.1.2,MacIntel,60,,,,,,,,,,,,,,,,,,,0,1,space,1,0.318,,,,,,0,14,14,44,1,,,,,,,,,,,,,,,,,,,,,,,,,
,,,,,,,,,,,,,,,,,,,,,,,,,,,,,,,,,,,,,,,,,,,space,peppe,25,2020-09-01_18h34.18.558,CDT_GNG_IUS12,2020.1.2,MacIntel,60,,,,,,,,,,,,,,,,,,,0,1,space,1,0.282,,,,,,0,15,15,26,1,,,,,,,,,,,,,,,,,,,,,,,,,
,,,,,,,,,,,,,,,,,,,,,,,,,,,,,,,,,,,,,,,,,,,space,peppe,25,2020-09-01_18h34.18.558,CDT_GNG_IUS12,2020.1.2,MacIntel,60,,,,,,,,,,,,,,,,,,,0,1,space,1,0.238,,,,,,0,16,16,16,1,,,,,,,,,,,,,,,,,,,,,,,,,
,,,,,,,,,,,,,,,,,,,,,,,,,,,,,,,,,,,,,,,,,,,space,peppe,25,2020-09-01_18h34.18.558,CDT_GNG_IUS12,2020.1.2,MacIntel,60,,,,,,,,,,,,,,,,,,,0,1,space,1,0.231,,,,,,0,17,17,34,1,,,,,,,,,,,,,,,,,,,,,,,,,
,,,,,,,,,,,,,,,,,,,,,,,,,,,,,,,,,,,,,,,,,,,space,peppe,25,2020-09-01_18h34.18.558,CDT_GNG_IUS12,2020.1.2,MacIntel,60,,,,,,,,,,,,,,,,,,,0,1,space,1,0.235,,,,,,0,18,18,14,1,,,,,,,,,,,,,,,,,,,,,,,,,
,,,,,,,,,,,,,,,,,,,,,,,,,,,,,,,,,,,,,,,,,,,space,peppe,25,2020-09-01_18h34.18.558,CDT_GNG_IUS12,2020.1.2,MacIntel,60,,,,,,,,,,,,,,,,,,,0,1,space,1,0.268,,,,,,0,19,19,32,1,,,,,,,,,,,,,,,,,,,,,,,,,
,,,,,,,,,,,,,,,,,,,,,,,,,,,,,,,,,,,,,,,,,,,,peppe,25,2020-09-01_18h34.18.558,CDT_GNG_IUS12,2020.1.2,MacIntel,60,,,,,,,,,,,,,,,,,,,1,0,space,0,0.268,,,,,,0,20,20,0,1,,,,,,,,,,,,,,,,,,,,,,,,,
,,,,,,,,,,,,,,,,,,,,,,,,,,,,,,,,,,,,,,,,,,,space,peppe,25,2020-09-01_18h34.18.558,CDT_GNG_IUS12,2020.1.2,MacIntel,60,,,,,,,,,,,,,,,,,,,0,1,space,1,0.367,,,,,,0,21,21,22,1,,,,,,,,,,,,,,,,,,,,,,,,,
,,,,,,,,,,,,,,,,,,,,,,,,,,,,,,,,,,,,,,,,,,,space,peppe,25,2020-09-01_18h34.18.558,CDT_GNG_IUS12,2020.1.2,MacIntel,60,,,,,,,,,,,,,,,,,,,0,1,space,1,0.331,,,,,,0,22,22,21,1,,,,,,,,,,,,,,,,,,,,,,,,,
,,,,,,,,,,,,,,,,,,,,,,,,,,,,,,,,,,,,,,,,,,,,peppe,25,2020-09-01_18h34.18.558,CDT_GNG_IUS12,2020.1.2,MacIntel,60,,,,,,,,,,,,,,,,,,,1,0,,1,,,,,,,0,23,23,8,1,,,,,,,,,,,,,,,,,,,,,,,,,
,,,,,,,,,,,,,,,,,,,,,,,,,,,,,,,,,,,,,,,,,,,space,peppe,25,2020-09-01_18h34.18.558,CDT_GNG_IUS12,2020.1.2,MacIntel,60,,,,,,,,,,,,,,,,,,,0,1,space,1,0.423,,,,,,0,24,24,47,1,,,,,,,,,,,,,,,,,,,,,,,,,
,,,,,,,,,,,,,,,,,,,,,,,,,,,,,,,,,,,,,,,,,,,space,peppe,25,2020-09-01_18h34.18.558,CDT_GNG_IUS12,2020.1.2,MacIntel,60,,,,,,,,,,,,,,,,,,,0,1,space,1,0.391,,,,,,0,25,25,25,1,,,,,,,,,,,,,,,,,,,,,,,,,
,,,,,,,,,,,,,,,,,,,,,,,,,,,,,,,,,,,,,,,,,,,space,peppe,25,2020-09-01_18h34.18.558,CDT_GNG_IUS12,2020.1.2,MacIntel,60,,,,,,,,,,,,,,,,,,,0,1,space,1,0.34,,,,,,0,26,26,37,1,,,,,,,,,,,,,,,,,,,,,,,,,
,,,,,,,,,,,,,,,,,,,,,,,,,,,,,,,,,,,,,,,,,,,space,peppe,25,2020-09-01_18h34.18.558,CDT_GNG_IUS12,2020.1.2,MacIntel,60,,,,,,,,,,,,,,,,,,,0,1,space,1,0.285,,,,,,0,27,27,33,1,,,,,,,,,,,,,,,,,,,,,,,,,
,,,,,,,,,,,,,,,,,,,,,,,,,,,,,,,,,,,,,,,,,,,,peppe,25,2020-09-01_18h34.18.558,CDT_GNG_IUS12,2020.1.2,MacIntel,60,,,,,,,,,,,,,,,,,,,1,0,space,0,0.267,,,,,,0,28,28,4,1,,,,,,,,,,,,,,,,,,,,,,,,,
,,,,,,,,,,,,,,,,,,,,,,,,,,,,,,,,,,,,,,,,,,,space,peppe,25,2020-09-01_18h34.18.558,CDT_GNG_IUS12,2020.1.2,MacIntel,60,,,,,,,,,,,,,,,,,,,0,1,space,1,0.423,,,,,,0,29,29,48,1,,,,,,,,,,,,,,,,,,,,,,,,,
,,,,,,,,,,,,,,,,,,,,,,,,,,,,,,,,,,,,,,,,,,,space,peppe,25,2020-09-01_18h34.18.558,CDT_GNG_IUS12,2020.1.2,MacIntel,60,,,,,,,,,,,,,,,,,,,0,1,space,1,0.398,,,,,,0,30,30,10,1,,,,,,,,,,,,,,,,,,,,,,,,,
,,,,,,,,,,,,,,,,,,,,,,,,,,,,,,,,,,,,,,,,,,,space,peppe,25,2020-09-01_18h34.18.558,CDT_GNG_IUS12,2020.1.2,MacIntel,60,,,,,,,,,,,,,,,,,,,0,1,space,1,0.302,,,,,,0,31,31,38,1,,,,,,,,,,,,,,,,,,,,,,,,,
,,,,,,,,,,,,,,,,,,,,,,,,,,,,,,,,,,,,,,,,,,,,peppe,25,2020-09-01_18h34.18.558,CDT_GNG_IUS12,2020.1.2,MacIntel,60,,,,,,,,,,,,,,,,,,,1,0,,1,,,,,,,0,32,32,9,1,,,,,,,,,,,,,,,,,,,,,,,,,
,,,,,,,,,,,,,,,,,,,,,,,,,,,,,,,,,,,,,,,,,,,space,peppe,25,2020-09-01_18h34.18.558,CDT_GNG_IUS12,2020.1.2,MacIntel,60,,,,,,,,,,,,,,,,,,,0,1,space,1,0.315,,,,,,0,33,33,49,1,,,,,,,,,,,,,,,,,,,,,,,,,
,,,,,,,,,,,,,,,,,,,,,,,,,,,,,,,,,,,,,,,,,,,space,peppe,25,2020-09-01_18h34.18.558,CDT_GNG_IUS12,2020.1.2,MacIntel,60,,,,,,,,,,,,,,,,,,,0,1,space,1,0.281,,,,,,0,34,34,20,1,,,,,,,,,,,,,,,,,,,,,,,,,
,,,,,,,,,,,,,,,,,,,,,,,,,,,,,,,,,,,,,,,,,,,space,peppe,25,2020-09-01_18h34.18.558,CDT_GNG_IUS12,2020.1.2,MacIntel,60,,,,,,,,,,,,,,,,,,,0,1,space,1,0.25,,,,,,0,35,35,12,1,,,,,,,,,,,,,,,,,,,,,,,,,
,,,,,,,,,,,,,,,,,,,,,,,,,,,,,,,,,,,,,,,,,,,space,peppe,25,2020-09-01_18h34.18.558,CDT_GNG_IUS12,2020.1.2,MacIntel,60,,,,,,,,,,,,,,,,,,,0,1,space,1,0.305,,,,,,0,36,36,30,1,,,,,,,,,,,,,,,,,,,,,,,,,
,,,,,,,,,,,,,,,,,,,,,,,,,,,,,,,,,,,,,,,,,,,space,peppe,25,2020-09-01_18h34.18.558,CDT_GNG_IUS12,2020.1.2,MacIntel,60,,,,,,,,,,,,,,,,,,,0,1,space,1,0.29,,,,,,0,37,37,19,1,,,,,,,,,,,,,,,,,,,,,,,,,
,,,,,,,,,,,,,,,,,,,,,,,,,,,,,,,,,,,,,,,,,,,,peppe,25,2020-09-01_18h34.18.558,CDT_GNG_IUS12,2020.1.2,MacIntel,60,,,,,,,,,,,,,,,,,,,1,0,space,0,0.247,,,,,,0,38,38,2,1,,,,,,,,,,,,,,,,,,,,,,,,,
,,,,,,,,,,,,,,,,,,,,,,,,,,,,,,,,,,,,,,,,,,,space,peppe,25,2020-09-01_18h34.18.558,CDT_GNG_IUS12,2020.1.2,MacIntel,60,,,,,,,,,,,,,,,,,,,0,1,space,1,0.17,,,,,,0,39,39,28,1,,,,,,,,,,,,,,,,,,,,,,,,,
,,,,,,,,,,,,,,,,,,,,,,,,,,,,,,,,,,,,,,,,,,,space,peppe,25,2020-09-01_18h34.18.558,CDT_GNG_IUS12,2020.1.2,MacIntel,60,,,,,,,,,,,,,,,,,,,0,1,space,1,0.234,,,,,,0,40,40,23,1,,,,,,,,,,,,,,,,,,,,,,,,,
,,,,,,,,,,,,,,,,,,,,,,,,,,,,,,,,,,,,,,,,,,,space,peppe,25,2020-09-01_18h34.18.558,CDT_GNG_IUS12,2020.1.2,MacIntel,60,,,,,,,,,,,,,,,,,,,0,1,space,1,0.232,,,,,,0,41,41,39,1,,,,,,,,,,,,,,,,,,,,,,,,,
,,,,,,,,,,,,,,,,,,,,,,,,,,,,,,,,,,,,,,,,,,,space,peppe,25,2020-09-01_18h34.18.558,CDT_GNG_IUS12,2020.1.2,MacIntel,60,,,,,,,,,,,,,,,,,,,0,1,space,1,0.271,,,,,,0,42,42,45,1,,,,,,,,,,,,,,,,,,,,,,,,,
,,,,,,,,,,,,,,,,,,,,,,,,,,,,,,,,,,,,,,,,,,,space,peppe,25,2020-09-01_18h34.18.558,CDT_GNG_IUS12,2020.1.2,MacIntel,60,,,,,,,,,,,,,,,,,,,0,1,space,1,0.236,,,,,,0,43,43,29,1,,,,,,,,,,,,,,,,,,,,,,,,,
,,,,,,,,,,,,,,,,,,,,,,,,,,,,,,,,,,,,,,,,,,,,peppe,25,2020-09-01_18h34.18.558,CDT_GNG_IUS12,2020.1.2,MacIntel,60,,,,,,,,,,,,,,,,,,,1,0,,1,,,,,,,0,44,44,7,1,,,,,,,,,,,,,,,,,,,,,,,,,
,,,,,,,,,,,,,,,,,,,,,,,,,,,,,,,,,,,,,,,,,,,space,peppe,25,2020-09-01_18h34.18.558,CDT_GNG_IUS12,2020.1.2,MacIntel,60,,,,,,,,,,,,,,,,,,,0,1,space,1,0.238,,,,,,0,45,45,17,1,,,,,,,,,,,,,,,,,,,,,,,,,
,,,,,,,,,,,,,,,,,,,,,,,,,,,,,,,,,,,,,,,,,,,,peppe,25,2020-09-01_18h34.18.558,CDT_GNG_IUS12,2020.1.2,MacIntel,60,,,,,,,,,,,,,,,,,,,1,0,,1,,,,,,,0,46,46,1,1,,,,,,,,,,,,,,,,,,,,,,,,,
,,,,,,,,,,,,,,,,,,,,,,,,,,,,,,,,,,,,,,,,,,,space,peppe,25,2020-09-01_18h34.18.558,CDT_GNG_IUS12,2020.1.2,MacIntel,60,,,,,,,,,,,,,,,,,,,0,1,space,1,0.216,,,,,,0,47,47,31,1,,,,,,,,,,,,,,,,,,,,,,,,,
,,,,,,,,,,,,,,,,,,,,,,,,,,,,,,,,,,,,,,,,,,,space,peppe,25,2020-09-01_18h34.18.558,CDT_GNG_IUS12,2020.1.2,MacIntel,60,,,,,,,,,,,,,,,,,,,0,1,space,1,0.254,,,,,,0,48,48,42,1,,,,,,,,,,,,,,,,,,,,,,,,,
,,,,,,,,,,,,,,,,,,,,,,,,,,,,,,,,,,,,,,,,,,,space,peppe,25,2020-09-01_18h34.18.558,CDT_GNG_IUS12,2020.1.2,MacIntel,60,,,,,,,,,,,,,,,,,,,0,1,space,1,0.265,,,,,,0,49,49,24,1,,,,,,,,,,,,,,,,,,,,,,,,,
,,,,,,,,,,,,,,,,,,,,,,,,,,,,,,,,,,,,,,,,,,,space,peppe,25,2020-09-01_18h34.18.558,CDT_GNG_IUS12,2020.1.2,MacIntel,60,,,,,,,,,,,,,,,,,,,0,1,space,1,0.417,,,,,,,,,,,0,0,0,40,1,,,,,,,,,,,,,,,,,,,,
,,,,,,,,,,,,,,,,,,,,,,,,,,,,,,,,,,,,,,,,,,,space,peppe,25,2020-09-01_18h34.18.558,CDT_GNG_IUS12,2020.1.2,MacIntel,60,,,,,,,,,,,,,,,,,,,0,1,space,1,0.439,,,,,,,,,,,0,1,1,11,1,,,,,,,,,,,,,,,,,,,,
,,,,,,,,,,,,,,,,,,,,,,,,,,,,,,,,,,,,,,,,,,,space,peppe,25,2020-09-01_18h34.18.558,CDT_GNG_IUS12,2020.1.2,MacIntel,60,,,,,,,,,,,,,,,,,,,0,1,,0,,,,,,,,,,,,0,2,2,22,1,,,,,,,,,,,,,,,,,,,,
,,,,,,,,,,,,,,,,,,,,,,,,,,,,,,,,,,,,,,,,,,,space,peppe,25,2020-09-01_18h34.18.558,CDT_GNG_IUS12,2020.1.2,MacIntel,60,,,,,,,,,,,,,,,,,,,0,1,space,1,0.001,,,,,,,,,,,0,3,3,20,1,,,,,,,,,,,,,,,,,,,,
,,,,,,,,,,,,,,,,,,,,,,,,,,,,,,,,,,,,,,,,,,,space,peppe,25,2020-09-01_18h34.18.558,CDT_GNG_IUS12,2020.1.2,MacIntel,60,,,,,,,,,,,,,,,,,,,0,1,,0,,,,,,,,,,,,0,4,4,30,1,,,,,,,,,,,,,,,,,,,,
,,,,,,,,,,,,,,,,,,,,,,,,,,,,,,,,,,,,,,,,,,,space,peppe,25,2020-09-01_18h34.18.558,CDT_GNG_IUS12,2020.1.2,MacIntel,60,,,,,,,,,,,,,,,,,,,0,1,space,1,0.188,,,,,,,,,,,0,5,5,37,1,,,,,,,,,,,,,,,,,,,,
,,,,,,,,,,,,,,,,,,,,,,,,,,,,,,,,,,,,,,,,,,,space,peppe,25,2020-09-01_18h34.18.558,CDT_GNG_IUS12,2020.1.2,MacIntel,60,,,,,,,,,,,,,,,,,,,0,1,space,1,0.199,,,,,,,,,,,0,6,6,49,1,,,,,,,,,,,,,,,,,,,,
,,,,,,,,,,,,,,,,,,,,,,,,,,,,,,,,,,,,,,,,,,,space,peppe,25,2020-09-01_18h34.18.558,CDT_GNG_IUS12,2020.1.2,MacIntel,60,,,,,,,,,,,,,,,,,,,0,1,space,1,0.235,,,,,,,,,,,0,7,7,31,1,,,,,,,,,,,,,,,,,,,,
,,,,,,,,,,,,,,,,,,,,,,,,,,,,,,,,,,,,,,,,,,,space,peppe,25,2020-09-01_18h34.18.558,CDT_GNG_IUS12,2020.1.2,MacIntel,60,,,,,,,,,,,,,,,,,,,0,1,space,1,0.223,,,,,,,,,,,0,8,8,39,1,,,,,,,,,,,,,,,,,,,,
,,,,,,,,,,,,,,,,,,,,,,,,,,,,,,,,,,,,,,,,,,,space,peppe,25,2020-09-01_18h34.18.558,CDT_GNG_IUS12,2020.1.2,MacIntel,60,,,,,,,,,,,,,,,,,,,0,1,space,1,0.238,,,,,,,,,,,0,9,9,25,1,,,,,,,,,,,,,,,,,,,,
,,,,,,,,,,,,,,,,,,,,,,,,,,,,,,,,,,,,,,,,,,,space,peppe,25,2020-09-01_18h34.18.558,CDT_GNG_IUS12,2020.1.2,MacIntel,60,,,,,,,,,,,,,,,,,,,0,1,space,1,0.202,,,,,,,,,,,0,10,10,46,1,,,,,,,,,,,,,,,,,,,,
,,,,,,,,,,,,,,,,,,,,,,,,,,,,,,,,,,,,,,,,,,,,peppe,25,2020-09-01_18h34.18.558,CDT_GNG_IUS12,2020.1.2,MacIntel,60,,,,,,,,,,,,,,,,,,,1,0,space,0,0.202,,,,,,,,,,,0,11,11,2,1,,,,,,,,,,,,,,,,,,,,
,,,,,,,,,,,,,,,,,,,,,,,,,,,,,,,,,,,,,,,,,,,space,peppe,25,2020-09-01_18h34.18.558,CDT_GNG_IUS12,2020.1.2,MacIntel,60,,,,,,,,,,,,,,,,,,,0,1,space,1,0.147,,,,,,,,,,,0,12,12,38,1,,,,,,,,,,,,,,,,,,,,
,,,,,,,,,,,,,,,,,,,,,,,,,,,,,,,,,,,,,,,,,,,space,peppe,25,2020-09-01_18h34.18.558,CDT_GNG_IUS12,2020.1.2,MacIntel,60,,,,,,,,,,,,,,,,,,,0,1,space,1,0.232,,,,,,,,,,,0,13,13,10,1,,,,,,,,,,,,,,,,,,,,
,,,,,,,,,,,,,,,,,,,,,,,,,,,,,,,,,,,,,,,,,,,space,peppe,25,2020-09-01_18h34.18.558,CDT_GNG_IUS12,2020.1.2,MacIntel,60,,,,,,,,,,,,,,,,,,,0,1,space,1,0.302,,,,,,,,,,,0,14,14,16,1,,,,,,,,,,,,,,,,,,,,
,,,,,,,,,,,,,,,,,,,,,,,,,,,,,,,,,,,,,,,,,,,,peppe,25,2020-09-01_18h34.18.558,CDT_GNG_IUS12,2020.1.2,MacIntel,60,,,,,,,,,,,,,,,,,,,1,0,space,0,0.271,,,,,,,,,,,0,15,15,8,1,,,,,,,,,,,,,,,,,,,,
,,,,,,,,,,,,,,,,,,,,,,,,,,,,,,,,,,,,,,,,,,,space,peppe,25,2020-09-01_18h34.18.558,CDT_GNG_IUS12,2020.1.2,MacIntel,60,,,,,,,,,,,,,,,,,,,0,1,space,1,0.266,,,,,,,,,,,0,16,16,24,1,,,,,,,,,,,,,,,,,,,,
,,,,,,,,,,,,,,,,,,,,,,,,,,,,,,,,,,,,,,,,,,,space,peppe,25,2020-09-01_18h34.18.558,CDT_GNG_IUS12,2020.1.2,MacIntel,60,,,,,,,,,,,,,,,,,,,0,1,space,1,0.281,,,,,,,,,,,0,17,17,19,1,,,,,,,,,,,,,,,,,,,,
,,,,,,,,,,,,,,,,,,,,,,,,,,,,,,,,,,,,,,,,,,,space,peppe,25,2020-09-01_18h34.18.558,CDT_GNG_IUS12,2020.1.2,MacIntel,60,,,,,,,,,,,,,,,,,,,0,1,space,1,0.323,,,,,,,,,,,0,18,18,41,1,,,,,,,,,,,,,,,,,,,,
,,,,,,,,,,,,,,,,,,,,,,,,,,,,,,,,,,,,,,,,,,,space,peppe,25,2020-09-01_18h34.18.558,CDT_GNG_IUS12,2020.1.2,MacIntel,60,,,,,,,,,,,,,,,,,,,0,1,space,1,0.519,,,,,,,,,,,0,19,19,43,1,,,,,,,,,,,,,,,,,,,,
,,,,,,,,,,,,,,,,,,,,,,,,,,,,,,,,,,,,,,,,,,,space,peppe,25,2020-09-01_18h34.18.558,CDT_GNG_IUS12,2020.1.2,MacIntel,60,,,,,,,,,,,,,,,,,,,0,1,space,1,0.471,,,,,,,,,,,0,20,20,27,1,,,,,,,,,,,,,,,,,,,,
,,,,,,,,,,,,,,,,,,,,,,,,,,,,,,,,,,,,,,,,,,,space,peppe,25,2020-09-01_18h34.18.558,CDT_GNG_IUS12,2020.1.2,MacIntel,60,,,,,,,,,,,,,,,,,,,0,1,space,1,0.415,,,,,,,,,,,0,21,21,44,1,,,,,,,,,,,,,,,,,,,,
,,,,,,,,,,,,,,,,,,,,,,,,,,,,,,,,,,,,,,,,,,,space,peppe,25,2020-09-01_18h34.18.558,CDT_GNG_IUS12,2020.1.2,MacIntel,60,,,,,,,,,,,,,,,,,,,0,1,space,1,0.421,,,,,,,,,,,0,22,22,45,1,,,,,,,,,,,,,,,,,,,,
,,,,,,,,,,,,,,,,,,,,,,,,,,,,,,,,,,,,,,,,,,,space,peppe,25,2020-09-01_18h34.18.558,CDT_GNG_IUS12,2020.1.2,MacIntel,60,,,,,,,,,,,,,,,,,,,0,1,space,1,0.381,,,,,,,,,,,0,23,23,32,1,,,,,,,,,,,,,,,,,,,,
,,,,,,,,,,,,,,,,,,,,,,,,,,,,,,,,,,,,,,,,,,,,peppe,25,2020-09-01_18h34.18.558,CDT_GNG_IUS12,2020.1.2,MacIntel,60,,,,,,,,,,,,,,,,,,,1,0,,1,,,,,,,,,,,,0,24,24,5,1,,,,,,,,,,,,,,,,,,,,
,,,,,,,,,,,,,,,,,,,,,,,,,,,,,,,,,,,,,,,,,,,space,peppe,25,2020-09-01_18h34.18.558,CDT_GNG_IUS12,2020.1.2,MacIntel,60,,,,,,,,,,,,,,,,,,,0,1,space,1,0.219,,,,,,,,,,,0,25,25,36,1,,,,,,,,,,,,,,,,,,,,
,,,,,,,,,,,,,,,,,,,,,,,,,,,,,,,,,,,,,,,,,,,space,peppe,25,2020-09-01_18h34.18.558,CDT_GNG_IUS12,2020.1.2,MacIntel,60,,,,,,,,,,,,,,,,,,,0,1,space,1,0.267,,,,,,,,,,,0,26,26,21,1,,,,,,,,,,,,,,,,,,,,
,,,,,,,,,,,,,,,,,,,,,,,,,,,,,,,,,,,,,,,,,,,,peppe,25,2020-09-01_18h34.18.558,CDT_GNG_IUS12,2020.1.2,MacIntel,60,,,,,,,,,,,,,,,,,,,1,0,,1,,,,,,,,,,,,0,27,27,7,1,,,,,,,,,,,,,,,,,,,,
,,,,,,,,,,,,,,,,,,,,,,,,,,,,,,,,,,,,,,,,,,,space,peppe,25,2020-09-01_18h34.18.558,CDT_GNG_IUS12,2020.1.2,MacIntel,60,,,,,,,,,,,,,,,,,,,0,1,space,1,0.204,,,,,,,,,,,0,28,28,28,1,,,,,,,,,,,,,,,,,,,,
,,,,,,,,,,,,,,,,,,,,,,,,,,,,,,,,,,,,,,,,,,,space,peppe,25,2020-09-01_18h34.18.558,CDT_GNG_IUS12,2020.1.2,MacIntel,60,,,,,,,,,,,,,,,,,,,0,1,space,1,0.265,,,,,,,,,,,0,29,29,48,1,,,,,,,,,,,,,,,,,,,,
,,,,,,,,,,,,,,,,,,,,,,,,,,,,,,,,,,,,,,,,,,,space,peppe,25,2020-09-01_18h34.18.558,CDT_GNG_IUS12,2020.1.2,MacIntel,60,,,,,,,,,,,,,,,,,,,0,1,space,1,0.252,,,,,,,,,,,0,30,30,34,1,,,,,,,,,,,,,,,,,,,,
,,,,,,,,,,,,,,,,,,,,,,,,,,,,,,,,,,,,,,,,,,,space,peppe,25,2020-09-01_18h34.18.558,CDT_GNG_IUS12,2020.1.2,MacIntel,60,,,,,,,,,,,,,,,,,,,0,1,space,1,0.253,,,,,,,,,,,0,31,31,17,1,,,,,,,,,,,,,,,,,,,,
,,,,,,,,,,,,,,,,,,,,,,,,,,,,,,,,,,,,,,,,,,,space,peppe,25,2020-09-01_18h34.18.558,CDT_GNG_IUS12,2020.1.2,MacIntel,60,,,,,,,,,,,,,,,,,,,0,1,space,1,0.289,,,,,,,,,,,0,32,32,47,1,,,,,,,,,,,,,,,,,,,,
,,,,,,,,,,,,,,,,,,,,,,,,,,,,,,,,,,,,,,,,,,,space,peppe,25,2020-09-01_18h34.18.558,CDT_GNG_IUS12,2020.1.2,MacIntel,60,,,,,,,,,,,,,,,,,,,0,1,space,1,0.304,,,,,,,,,,,0,33,33,13,1,,,,,,,,,,,,,,,,,,,,
,,,,,,,,,,,,,,,,,,,,,,,,,,,,,,,,,,,,,,,,,,,space,peppe,25,2020-09-01_18h34.18.558,CDT_GNG_IUS12,2020.1.2,MacIntel,60,,,,,,,,,,,,,,,,,,,0,1,space,1,0.355,,,,,,,,,,,0,34,34,26,1,,,,,,,,,,,,,,,,,,,,
,,,,,,,,,,,,,,,,,,,,,,,,,,,,,,,,,,,,,,,,,,,,peppe,25,2020-09-01_18h34.18.558,CDT_GNG_IUS12,2020.1.2,MacIntel,60,,,,,,,,,,,,,,,,,,,1,0,,1,,,,,,,,,,,,0,35,35,0,1,,,,,,,,,,,,,,,,,,,,
,,,,,,,,,,,,,,,,,,,,,,,,,,,,,,,,,,,,,,,,,,,space,peppe,25,2020-09-01_18h34.18.558,CDT_GNG_IUS12,2020.1.2,MacIntel,60,,,,,,,,,,,,,,,,,,,0,1,space,1,0.266,,,,,,,,,,,0,36,36,14,1,,,,,,,,,,,,,,,,,,,,
,,,,,,,,,,,,,,,,,,,,,,,,,,,,,,,,,,,,,,,,,,,,peppe,25,2020-09-01_18h34.18.558,CDT_GNG_IUS12,2020.1.2,MacIntel,60,,,,,,,,,,,,,,,,,,,1,0,,1,,,,,,,,,,,,0,37,37,9,1,,,,,,,,,,,,,,,,,,,,
,,,,,,,,,,,,,,,,,,,,,,,,,,,,,,,,,,,,,,,,,,,,peppe,25,2020-09-01_18h34.18.558,CDT_GNG_IUS12,2020.1.2,MacIntel,60,,,,,,,,,,,,,,,,,,,1,0,space,0,0.22,,,,,,,,,,,0,38,38,6,1,,,,,,,,,,,,,,,,,,,,
,,,,,,,,,,,,,,,,,,,,,,,,,,,,,,,,,,,,,,,,,,,space,peppe,25,2020-09-01_18h34.18.558,CDT_GNG_IUS12,2020.1.2,MacIntel,60,,,,,,,,,,,,,,,,,,,0,1,space,1,0.265,,,,,,,,,,,0,39,39,15,1,,,,,,,,,,,,,,,,,,,,
,,,,,,,,,,,,,,,,,,,,,,,,,,,,,,,,,,,,,,,,,,,space,peppe,25,2020-09-01_18h34.18.558,CDT_GNG_IUS12,2020.1.2,MacIntel,60,,,,,,,,,,,,,,,,,,,0,1,space,1,0.299,,,,,,,,,,,0,40,40,18,1,,,,,,,,,,,,,,,,,,,,
,,,,,,,,,,,,,,,,,,,,,,,,,,,,,,,,,,,,,,,,,,,,peppe,25,2020-09-01_18h34.18.558,CDT_GNG_IUS12,2020.1.2,MacIntel,60,,,,,,,,,,,,,,,,,,,1,0,space,0,0.233,,,,,,,,,,,0,41,41,4,1,,,,,,,,,,,,,,,,,,,,
,,,,,,,,,,,,,,,,,,,,,,,,,,,,,,,,,,,,,,,,,,,space,peppe,25,2020-09-01_18h34.18.558,CDT_GNG_IUS12,2020.1.2,MacIntel,60,,,,,,,,,,,,,,,,,,,0,1,space,1,0.174,,,,,,,,,,,0,42,42,35,1,,,,,,,,,,,,,,,,,,,,
,,,,,,,,,,,,,,,,,,,,,,,,,,,,,,,,,,,,,,,,,,,space,peppe,25,2020-09-01_18h34.18.558,CDT_GNG_IUS12,2020.1.2,MacIntel,60,,,,,,,,,,,,,,,,,,,0,1,space,1,0.232,,,,,,,,,,,0,43,43,42,1,,,,,,,,,,,,,,,,,,,,
,,,,,,,,,,,,,,,,,,,,,,,,,,,,,,,,,,,,,,,,,,,space,peppe,25,2020-09-01_18h34.18.558,CDT_GNG_IUS12,2020.1.2,MacIntel,60,,,,,,,,,,,,,,,,,,,0,1,space,1,0.237,,,,,,,,,,,0,44,44,33,1,,,,,,,,,,,,,,,,,,,,
,,,,,,,,,,,,,,,,,,,,,,,,,,,,,,,,,,,,,,,,,,,space,peppe,25,2020-09-01_18h34.18.558,CDT_GNG_IUS12,2020.1.2,MacIntel,60,,,,,,,,,,,,,,,,,,,0,1,space,1,0.184,,,,,,,,,,,0,45,45,29,1,,,,,,,,,,,,,,,,,,,,
,,,,,,,,,,,,,,,,,,,,,,,,,,,,,,,,,,,,,,,,,,,,peppe,25,2020-09-01_18h34.18.558,CDT_GNG_IUS12,2020.1.2,MacIntel,60,,,,,,,,,,,,,,,,,,,1,0,space,0,0.12,,,,,,,,,,,0,46,46,3,1,,,,,,,,,,,,,,,,,,,,
,,,,,,,,,,,,,,,,,,,,,,,,,,,,,,,,,,,,,,,,,,,,peppe,25,2020-09-01_18h34.18.558,CDT_GNG_IUS12,2020.1.2,MacIntel,60,,,,,,,,,,,,,,,,,,,1,0,space,0,0.07,,,,,,,,,,,0,47,47,1,1,,,,,,,,,,,,,,,,,,,,
,,,,,,,,,,,,,,,,,,,,,,,,,,,,,,,,,,,,,,,,,,,space,peppe,25,2020-09-01_18h34.18.558,CDT_GNG_IUS12,2020.1.2,MacIntel,60,,,,,,,,,,,,,,,,,,,0,1,space,1,0.136,,,,,,,,,,,0,48,48,23,1,,,,,,,,,,,,,,,,,,,,
,,,,,,,,,,,,,,,,,,,,,,,,,,,,,,,,,,,,,,,,,,,space,peppe,25,2020-09-01_18h34.18.558,CDT_GNG_IUS12,2020.1.2,MacIntel,60,,,,,,,,,,,,,,,,,,,0,1,space,1,0.132,,,,,,,,,,,0,49,49,12,1,,,,,,,,,,,,,,,,,,,,
,,,,,,,,,,,,,,,,,,,,,,,,,,,,,,,,,,,,,,,,,,,,peppe,25,2020-09-01_18h34.18.558,CDT_GNG_IUS12,2020.1.2,MacIntel,60,,,,,,,,,,,,,,,,,,,,,,,,,,,,,,,,,,,,,,,9.033333333,2.935,0,0,0,0,1,1,"On a scale from 0 to 10, indicate your personal perception of your proficiency level for English (10 being the highest score)",,,,,,,,,,,
,,,,,,,,,,,,,,,,,,,,,,,,,,,,,,,,,,,,,,,,,,,,peppe,25,2020-09-01_18h34.18.558,CDT_GNG_IUS12,2020.1.2,MacIntel,60,,,,,,,,,,,,,,,,,,,,,,,,,,,,,,,,,,,,,,,9.066666667,0.561,0,1,1,1,1,2,"On a scale from 0 to 10, indicate how frequently you are exposed to English (10 being 'always', 0 being 'never')",,,,,,,,,,,
,,,,,,,,,,,,,,,,,,,,,,,,,,,,,,,,,,,,,,,,,,,,peppe,25,2020-09-01_18h34.18.558,CDT_GNG_IUS12,2020.1.2,MacIntel,60,,,,,,,,,,,,,,,,,,,,,,,,,,,,,,,,,,,,,,,,,,,,,,,"On a scale from 0 to 10, indicate your personal perception of your proficiency level for English (10 being the highest score)",2.035555556,1.418,0,0,0,0,1,1,Unforeseen events upset me greatly.,,
,,,,,,,,,,,,,,,,,,,,,,,,,,,,,,,,,,,,,,,,,,,,peppe,25,2020-09-01_18h34.18.558,CDT_GNG_IUS12,2020.1.2,MacIntel,60,,,,,,,,,,,,,,,,,,,,,,,,,,,,,,,,,,,,,,,,,,,,,,,"On a scale from 0 to 10, indicate how frequently you are exposed to English (10 being 'always', 0 being 'never')",2.035555556,1.111,0,1,1,1,1,2,It frustrates me not having all the information I need.,,
,,,,,,,,,,,,,,,,,,,,,,,,,,,,,,,,,,,,,,,,,,,,peppe,25,2020-09-01_18h34.18.558,CDT_GNG_IUS12,2020.1.2,MacIntel,60,,,,,,,,,,,,,,,,,,,,,,,,,,,,,,,,,,,,,,,,,,,,,,,,2.008888889,4.558,0,2,2,2,1,3,One should always look ahead so as to avoid surprises.,,
,,,,,,,,,,,,,,,,,,,,,,,,,,,,,,,,,,,,,,,,,,,,peppe,25,2020-09-01_18h34.18.558,CDT_GNG_IUS12,2020.1.2,MacIntel,60,,,,,,,,,,,,,,,,,,,,,,,,,,,,,,,,,,,,,,,,,,,,,,,,2,6.63,0,3,3,3,1,4,"A small, unforeseen event can spoil everything, even with the best of planning. ",,
,,,,,,,,,,,,,,,,,,,,,,,,,,,,,,,,,,,,,,,,,,,,peppe,25,2020-09-01_18h34.18.558,CDT_GNG_IUS12,2020.1.2,MacIntel,60,,,,,,,,,,,,,,,,,,,,,,,,,,,,,,,,,,,,,,,,,,,,,,,,2.004444444,2.177,0,4,4,4,1,5,I always want to know what the future has in store for me.,,
,,,,,,,,,,,,,,,,,,,,,,,,,,,,,,,,,,,,,,,,,,,,peppe,25,2020-09-01_18h34.18.558,CDT_GNG_IUS12,2020.1.2,MacIntel,60,,,,,,,,,,,,,,,,,,,,,,,,,,,,,,,,,,,,,,,,,,,,,,,,1,1.512,0,5,5,5,1,6,I can't stand being taken by surprise.,,
,,,,,,,,,,,,,,,,,,,,,,,,,,,,,,,,,,,,,,,,,,,,peppe,25,2020-09-01_18h34.18.558,CDT_GNG_IUS12,2020.1.2,MacIntel,60,,,,,,,,,,,,,,,,,,,,,,,,,,,,,,,,,,,,,,,,,,,,,,,,2.026666667,2.315,0,6,6,6,1,7,I should be able to organize everything in advance,,
,,,,,,,,,,,,,,,,,,,,,,,,,,,,,,,,,,,,,,,,,,,,peppe,25,2020-09-01_18h34.18.558,CDT_GNG_IUS12,2020.1.2,MacIntel,60,,,,,,,,,,,,,,,,,,,,,,,,,,,,,,,,,,,,,,,,,,,,,,,,2,1.91,0,7,7,7,1,8,Uncertainty keeps me from living a full life.,,
,,,,,,,,,,,,,,,,,,,,,,,,,,,,,,,,,,,,,,,,,,,,peppe,25,2020-09-01_18h34.18.558,CDT_GNG_IUS12,2020.1.2,MacIntel,60,,,,,,,,,,,,,,,,,,,,,,,,,,,,,,,,,,,,,,,,,,,,,,,,1.031111111,1.881,0,8,8,8,1,9,"When it's time to act, uncertainty paralyses me. ",,
,,,,,,,,,,,,,,,,,,,,,,,,,,,,,,,,,,,,,,,,,,,,peppe,25,2020-09-01_18h34.18.558,CDT_GNG_IUS12,2020.1.2,MacIntel,60,,,,,,,,,,,,,,,,,,,,,,,,,,,,,,,,,,,,,,,,,,,,,,,,2.031111111,2.227,0,9,9,9,1,10,"When I am uncertain, I can't function very well. ",,
,,,,,,,,,,,,,,,,,,,,,,,,,,,,,,,,,,,,,,,,,,,,peppe,25,2020-09-01_18h34.18.558,CDT_GNG_IUS12,2020.1.2,MacIntel,60,,,,,,,,,,,,,,,,,,,,,,,,,,,,,,,,,,,,,,,,,,,,,,,,2.044444444,3.677,0,10,10,10,1,11,The smallest doubt can stop me from acting. ,,
,,,,,,,,,,,,,,,,,,,,,,,,,,,,,,,,,,,,,,,,,,,,peppe,25,2020-09-01_18h34.18.558,CDT_GNG_IUS12,2020.1.2,MacIntel,60,,,,,,,,,,,,,,,,,,,,,,,,,,,,,,,,,,,,,,,,,,,,,,,,1.013333333,5.493,0,11,11,11,1,12,I must get away from all uncertain situations. ,,
,,,,,,,,,,,,,,,,,,,,,,,,,,,,,,,,,,,,,,,,,,,,peppe,25,2020-09-01_18h34.18.558,CDT_GNG_IUS12,2020.1.2,MacIntel,60,,,,,,,,,,,,,,,,,,,,,,,,,,,,,,,,,,,,,,,,,,,,,,,,,,,,,,,,,x,2.11
